Data from AgNPs_UA_10uM_CRN_0uM_R6G_10uM_Q_RamanShift__10__12-00-22-635.txt Node

Date: Mon Jul 18 12:00:22 BST 2022
User: TCL
Spectrometer: QEP01345
Trigger mode: 4
Integration Time (sec): 7.000000E0
Scans to average: 10
Electric dark correction enabled: true
Nonlinearity correction enabled: false
Boxcar width: 0
XAxis mode: Raman Shifts
Number of Pixels in Spectrum: 1044
>>>>>Begin Spectral Data<<<<<
46.04893	-0.6125
50.45542	-1.4125
54.85868	-1.2125
59.25871	-1.3125
63.6555	104.0875
68.04907	105.9875
72.43941	114.3875
76.82654	123.3875
81.21044	119.7875
85.59113	124.0875
89.96862	129.3875
94.34289	137.3875
98.71396	141.0875
103.08183	145.8875
107.4465	152.4875
111.80798	151.3875
116.16626	156.9875
120.52136	166.8875
124.87327	177.0875
129.222	185.9875
133.56755	194.2875
137.90993	204.9875
142.24913	225.7875
146.58517	254.7875
150.91804	298.8875
155.24774	353.7875
159.57429	442.3875
163.89768	576.8875
168.21792	760.1875
172.53501	1036.9875
176.84895	1437.9875
181.15975	2042.0875
185.46741	2868.4875
189.77193	3978.7875
194.07331	5316.3875
198.37157	6822.8875
202.6667	8447.0875
206.9587	10033.0875
211.24758	11629.7875
215.53334	13248.0875
219.81599	14974.0875
224.09553	16888.9875
228.37195	18959.2875
232.64527	21252.4875
236.91549	23509.7875
241.18261	25670.3875
245.44663	27628.7875
249.70755	29290.0875
253.96539	30793.4875
258.22014	32039.8875
262.4718	33067.2875
266.72039	33760.7875
270.96589	34150.9875
275.20832	34178.1875
279.44768	33932.1875
283.68397	33631.7875
287.91719	33523.3875
292.14735	33516.9875
296.37445	33778.5875
300.59849	34373.9875
304.81948	34921.8875
309.03742	35350.4875
313.25231	35359.6875
317.46415	34602.7875
321.67296	33417.3875
325.87872	32280.5875
330.08145	31719.1875
334.28114	31740.8875
338.47781	32026.1875
342.67145	32524.4875
346.86207	33209.0875
351.04966	34125.6875
355.23424	35009.4875
359.4158	35647.5875
363.59435	35983.4875
367.76989	36123.8875
371.94243	36035.6875
376.11196	35921.6875
380.27849	35876.8875
384.44203	35948.1875
388.60257	35966.2875
392.76012	36241.4875
396.91468	36720.2875
401.06626	37359.1875
405.21485	37714.2875
409.36047	37300.1875
413.50311	36452.3875
417.64277	35714.4875
421.77947	35486.3875
425.9132	35463.8875
430.04396	35544.4875
434.17176	35652.5875
438.2966	35874.6875
442.41849	36230.1875
446.53742	36827.6875
450.6534	37443.4875
454.76644	37936.9875
458.87653	38092.5875
462.98368	38060.7875
467.08789	37982.3875
471.18916	37676.6875
475.2875	37241.0875
479.38291	36881.4875
483.4754	36567.7875
487.56496	36298.3875
491.6516	36115.1875
495.73531	35990.0875
499.81612	36062.4875
503.89401	36303.5875
507.96899	36403.4875
512.04106	36519.5875
516.11023	36549.5875
520.1765	36522.9875
524.23987	36362.8875
528.30034	36088.4875
532.35792	35862.2875
536.41261	35580.3875
540.46441	35249.2875
544.51333	35307.3875
548.55936	35711.0875
552.60252	36376.9875
556.64279	37069.8875
560.6802	37406.0875
564.71473	37799.2875
568.7464	38477.4875
572.7752	39133.5875
576.80114	39420.2875
580.82422	39839.5875
584.84444	40366.5875
588.86181	40488.4875
592.87633	40416.9875
596.888	40427.9875
600.89682	41028.4875
604.9028	43309.9875
608.90594	48996.1875
612.90624	54334.9875
616.90371	49937.8875
620.89834	40705.9875
624.89015	36942.1875
628.87913	36585.0875
632.86528	37240.4875
636.84862	37620.9875
640.82913	37071.4875
644.80683	36058.8875
648.78172	35395.6875
652.75379	35477.6875
656.72306	36187.0875
660.68952	36919.7875
664.65319	36727.3875
668.61405	36063.3875
672.57211	35983.1875
676.52738	35989.7875
680.47986	35830.0875
684.42955	35513.8875
688.37646	35343.4875
692.32058	35576.4875
696.26192	36034.6875
700.20048	36472.0875
704.13626	36696.0875
708.06928	36601.6875
711.99952	36412.6875
715.927	36291.9875
719.85171	36351.7875
723.77365	36253.9875
727.69284	35875.9875
731.60928	35483.8875
735.52295	35402.3875
739.43388	35434.1875
743.34206	35550.4875
747.24749	35706.2875
751.15017	35921.3875
755.05012	36447.7875
758.94733	37723.0875
762.8418	40464.5875
766.73354	44535.9875
770.62254	47747.1875
774.50882	47859.9875
778.39237	45584.6875
782.27321	42292.7875
786.15132	39275.3875
790.02671	37257.0875
793.89938	36141.8875
797.76935	35643.4875
801.6366	35391.0875
805.50115	35300.4875
809.36299	35091.1875
813.22213	34936.9875
817.07857	34919.6875
820.93231	34922.8875
824.78336	34984.9875
828.63172	34955.0875
832.47738	34869.8875
836.32036	34837.5875
840.16066	34816.6875
843.99827	34779.8875
847.8332	34746.5875
851.66546	34774.4875
855.49504	34800.5875
859.32195	34806.3875
863.1462	34758.2875
866.96777	34795.4875
870.78668	34788.2875
874.60293	34841.1875
878.41652	34892.0875
882.22745	35101.8875
886.03573	35185.2875
889.84136	35167.8875
893.64433	35099.2875
897.44466	34964.8875
901.24235	34902.5875
905.0374	34829.0875
908.8298	34724.2875
912.61957	34681.5875
916.40671	34855.1875
920.19121	35139.4875
923.97308	35427.3875
927.75233	35577.0875
931.52895	35585.0875
935.30295	35158.3875
939.07433	34510.9875
942.84309	34048.4875
946.60924	33770.3875
950.37278	33651.7875
954.13371	33646.1875
957.89203	33660.1875
961.64774	33648.5875
965.40086	33643.6875
969.15137	33622.4875
972.89929	33568.2875
976.64461	33483.8875
980.38733	33472.2875
984.12747	33545.1875
987.86502	33631.6875
991.59999	33736.7875
995.33237	33851.5875
999.06217	34165.2875
1002.78939	34547.1875
1006.51404	35010.8875
1010.23611	35501.7875
1013.95561	35742.1875
1017.67255	35731.4875
1021.38692	35508.9875
1025.09872	35138.9875
1028.80796	34792.5875
1032.51465	34721.1875
1036.21877	34839.8875
1039.92035	34951.7875
1043.61937	35140.5875
1047.31584	35194.8875
1051.00976	35339.3875
1054.70114	35545.1875
1058.38998	35729.4875
1062.07627	35998.2875
1065.76003	36444.7875
1069.44126	36926.7875
1073.11995	37616.9875
1076.79611	38195.2875
1080.46974	38586.8875
1084.14085	38891.7875
1087.80943	39327.6875
1091.47549	39525.9875
1095.13903	39328.1875
1098.80005	38859.1875
1102.45857	38232.9875
1106.11456	37619.1875
1109.76805	37244.1875
1113.41903	37137.0875
1117.06751	37524.1875
1120.71348	38201.9875
1124.35696	38899.4875
1127.99793	39537.6875
1131.63641	39395.8875
1135.2724	38603.1875
1138.90589	38046.2875
1142.5369	37679.3875
1146.16542	37571.7875
1149.79145	37522.5875
1153.415	37561.7875
1157.03607	37818.9875
1160.65467	38440.0875
1164.27079	39499.9875
1167.88443	40942.0875
1171.49561	42981.5875
1175.10432	45874.8875
1178.71056	49456.1875
1182.31434	52492.6875
1185.91565	53744.0875
1189.51451	53619.1875
1193.11091	52527.9875
1196.70485	50651.0875
1200.29634	48827.7875
1203.88538	47004.1875
1207.47197	45167.5875
1211.05612	43594.9875
1214.63782	42441.6875
1218.21708	41532.4875
1221.79391	40867.6875
1225.36829	40470.0875
1228.94024	40267.6875
1232.50976	40221.0875
1236.07685	40215.6875
1239.6415	40285.5875
1243.20374	40350.7875
1246.76355	40522.5875
1250.32093	40864.9875
1253.8759	41440.1875
1257.42845	42334.0875
1260.97859	43466.8875
1264.52631	44589.6875
1268.07163	45617.5875
1271.61453	46472.7875
1275.15503	47182.8875
1278.69312	47752.1875
1282.22882	48260.2875
1285.76211	49291.3875
1289.29301	50517.3875
1292.82151	51819.9875
1296.34761	53143.8875
1299.87133	55086.6875
1303.39266	57658.9875
1306.9116	61226.4875
1310.42815	64903.2875
1313.94233	66367.7875
1317.45412	65017.8875
1320.96354	62865.9875
1324.47058	61031.2875
1327.97525	59720.7875
1331.47754	58958.8875
1334.97747	58760.8875
1338.47502	59011.7875
1341.97022	59946.0875
1345.46305	61380.8875
1348.95352	63111.8875
1352.44163	64904.2875
1355.92738	66782.5875
1359.41078	69908.2875
1362.89183	73111.3875
1366.37053	71128.5875
1369.84688	63851.9875
1373.32088	56432.5875
1376.79254	51656.6875
1380.26186	49260.2875
1383.72883	47982.0875
1387.19347	46970.3875
1390.65578	45978.6875
1394.11575	45091.7875
1397.57339	44529.5875
1401.0287	44134.3875
1404.48168	43819.9875
1407.93234	43595.4875
1411.38068	43392.6875
1414.82669	42976.2875
1418.27039	42389.7875
1421.71177	41676.3875
1425.15083	41034.7875
1428.58758	40731.6875
1432.02203	40935.9875
1435.45416	41418.6875
1438.88399	41874.3875
1442.31151	42095.3875
1445.73673	42390.0875
1449.15965	42634.5875
1452.58027	42860.5875
1455.9986	42943.4875
1459.41463	43193.8875
1462.82837	43705.2875
1466.23982	44477.3875
1469.64898	45218.8875
1473.05586	45821.4875
1476.46045	46145.1875
1479.86276	46547.5875
1483.26279	46955.9875
1486.66054	47695.4875
1490.05602	48854.4875
1493.44922	50618.0875
1496.84016	53251.2875
1500.22882	57144.0875
1503.61521	62203.6875
1506.99934	67487.9875
1510.38121	71030.8875
1513.76081	70862.9875
1517.13816	66865.9875
1520.51324	61268.6875
1523.88607	56496.1875
1527.25665	53615.0875
1530.62498	51909.8875
1533.99105	50740.2875
1537.35488	49785.9875
1540.71647	48732.1875
1544.07581	47744.0875
1547.4329	46898.1875
1550.78776	46188.3875
1554.14038	45809.2875
1557.49077	45812.1875
1560.83892	46185.2875
1564.18484	46896.9875
1567.52853	47845.0875
1570.86999	48527.6875
1574.20922	49106.4875
1577.54624	48928.7875
1580.88103	47564.3875
1584.2136	45949.5875
1587.54395	45171.4875
1590.87208	45540.5875
1594.19801	46881.9875
1597.52172	48478.8875
1600.84321	48810.7875
1604.16251	47685.4875
1607.47959	46052.1875
1610.79447	44234.1875
1614.10715	42049.9875
1617.41763	40009.8875
1620.7259	38481.6875
1624.03199	37587.7875
1627.33587	37374.8875
1630.63757	37894.1875
1633.93707	39221.3875
1637.23439	41651.5875
1640.52951	45365.0875
1643.82246	50281.2875
1647.11321	55129.6875
1650.40179	57779.5875
1653.68819	55973.7875
1656.97241	50286.1875
1660.25446	44131.4875
1663.53433	39318.8875
1666.81203	36179.9875
1670.08756	34247.5875
1673.36092	33100.8875
1676.63211	32354.8875
1679.90115	31786.6875
1683.16801	31346.1875
1686.43272	31075.8875
1689.69527	30814.8875
1692.95567	30599.8875
1696.2139	30456.0875
1699.46999	30338.8875
1702.72392	30233.3875
1705.97571	30182.0875
1709.22535	30139.0875
1712.47284	30171.7875
1715.71819	30165.2875
1718.96139	30069.8875
1722.20246	29927.6875
1725.44139	29889.0875
1728.67818	29680.7875
1731.91284	29513.2875
1735.14537	29317.5875
1738.37576	29280.8875
1741.60403	29215.6875
1744.83017	29155.2875
1748.05418	29020.0875
1751.27607	28967.0875
1754.49584	28903.9875
1757.71349	28877.2875
1760.92903	28800.2875
1764.14244	28776.9875
1767.35375	28793.3875
1770.56294	28699.0875
1773.77002	28626.0875
1776.97499	28586.9875
1780.17785	28566.4875
1783.37861	28466.9875
1786.57727	28452.4875
1789.77382	28367.5875
1792.96828	28267.1875
1796.16064	28272.5875
1799.3509	28236.7875
1802.53907	28129.6875
1805.72514	28003.7875
1808.90913	27960.2875
1812.09102	27869.2875
1815.27083	27839.1875
1818.44856	27803.8875
1821.6242	27765.3875
1824.79776	27710.6875
1827.96924	27717.1875
1831.13864	27671.2875
1834.30597	27633.4875
1837.47122	27553.4875
1840.6344	27572.8875
1843.7955	27589.1875
1846.95454	27530.0875
1850.11151	27524.8875
1853.26642	27467.1875
1856.41926	27484.7875
1859.57004	27413.3875
1862.71876	27391.3875
1865.86542	27370.1875
1869.01003	27366.3875
1872.15258	27341.5875
1875.29308	27267.0875
1878.43152	27179.2875
1881.56792	27163.0875
1884.70227	27133.9875
1887.83457	27130.0875
1890.96482	27078.5875
1894.09304	26992.9875
1897.21921	26971.5875
1900.34335	26972.3875
1903.46544	26869.1875
1906.58551	26861.2875
1909.70353	26784.9875
1912.81953	26756.6875
1915.93349	26746.3875
1919.04543	26693.2875
1922.15534	26633.6875
1925.26322	26572.1875
1928.36908	26517.4875
1931.47292	26459.3875
1934.57473	26327.2875
1937.67453	26281.1875
1940.77232	26236.8875
1943.86808	26140.1875
1946.96184	26091.0875
1950.05358	25988.7875
1953.14331	25877.1875
1956.23103	25805.4875
1959.31675	25743.5875
1962.40046	25721.6875
1965.48217	25663.1875
1968.56188	25582.1875
1971.63959	25511.9875
1974.7153	25427.4875
1977.78901	25349.9875
1980.86073	25256.4875
1983.93046	25198.4875
1986.99819	25109.6875
1990.06394	24998.5875
1993.1277	24951.3875
1996.18947	24853.2875
1999.24925	24788.0875
2002.30706	24716.4875
2005.36288	24714.9875
2008.41672	24627.8875
2011.46859	24505.1875
2014.51848	24427.3875
2017.56639	24418.0875
2020.61233	24335.2875
2023.6563	24263.3875
2026.6983	24127.9875
2029.73833	24032.9875
2032.7764	23968.6875
2035.8125	23944.7875
2038.84664	23900.4875
2041.87881	23844.5875
2044.90903	23781.9875
2047.93729	23654.8875
2050.96359	23658.8875
2053.98794	23658.5875
2057.01034	23650.0875
2060.03078	23589.9875
2063.04927	23620.8875
2066.06582	23563.2875
2069.08042	23526.7875
2072.09307	23518.7875
2075.10378	23491.5875
2078.11255	23443.6875
2081.11938	23504.2875
2084.12426	23468.6875
2087.12722	23433.3875
2090.12824	23431.7875
2093.12732	23473.1875
2096.12447	23450.1875
2099.11969	23440.9875
2102.11299	23475.6875
2105.10435	23458.3875
2108.09379	23464.1875
2111.08131	23514.2875
2114.0669	23473.1875
2117.05057	23475.3875
2120.03233	23522.2875
2123.01216	23549.9875
2125.99008	23567.6875
2128.96609	23561.5875
2131.94018	23613.0875
2134.91236	23656.3875
2137.88263	23608.0875
2140.851	23622.3875
2143.81746	23642.1875
2146.78201	23659.9875
2149.74466	23684.8875
2152.7054	23625.7875
2155.66425	23612.7875
2158.6212	23627.8875
2161.57625	23546.7875
2164.52941	23545.9875
2167.48067	23522.5875
2170.43004	23528.7875
2173.37752	23504.2875
2176.32311	23476.2875
2179.26681	23493.4875
2182.20863	23540.6875
2185.14856	23503.7875
2188.08661	23469.0875
2191.02278	23461.7875
2193.95707	23464.3875
2196.88948	23423.8875
2199.82001	23370.2875
2202.74867	23322.0875
2205.67545	23316.5875
2208.60037	23252.1875
2211.52341	23210.7875
2214.44458	23154.4875
2217.36388	23171.5875
2220.28132	23089.0875
2223.1969	23034.7875
2226.11061	22984.8875
2229.02246	22929.7875
2231.93245	22915.4875
2234.84058	22878.0875
2237.74686	22783.1875
2240.65128	22777.7875
2243.55385	22735.4875
2246.45456	22759.2875
2249.35343	22715.2875
2252.25044	22683.7875
2255.14561	22670.6875
2258.03893	22564.2875
2260.93041	22580.6875
2263.82004	22565.0875
2266.70783	22496.2875
2269.59378	22437.4875
2272.4779	22430.0875
2275.36017	22371.1875
2278.24061	22320.6875
2281.11922	22247.1875
2283.996	22227.2875
2286.87094	22166.7875
2289.74405	22126.5875
2292.61534	22109.6875
2295.4848	22055.0875
2298.35243	22034.4875
2301.21824	22055.0875
2304.08223	22044.5875
2306.94439	21959.1875
2309.80474	21959.8875
2312.66327	21959.3875
2315.51999	21909.5875
2318.37489	21913.9875
2321.22797	21879.9875
2324.07925	21811.0875
2326.92871	21767.0875
2329.77637	21717.8875
2332.62222	21707.3875
2335.46626	21715.6875
2338.3085	21705.7875
2341.14893	21687.9875
2343.98756	21629.8875
2346.8244	21644.5875
2349.65943	21689.7875
2352.49267	21660.9875
2355.32411	21608.9875
2358.15376	21625.4875
2360.98161	21632.0875
2363.80768	21646.0875
2366.63195	21639.2875
2369.45444	21617.5875
2372.27514	21582.3875
2375.09405	21540.9875
2377.91118	21512.1875
2380.72652	21435.4875
2383.54009	21360.9875
2386.35187	21366.9875
2389.16188	21306.0875
2391.97011	21272.9875
2394.77657	21171.1875
2397.58125	21164.9875
2400.38416	21088.6875
2403.18529	21086.0875
2405.98466	21088.3875
2408.78226	21033.8875
2411.57809	21011.1875
2414.37216	20990.4875
2417.16446	20972.8875
2419.955	20922.4875
2422.74378	20953.4875
2425.5308	20903.6875
2428.31606	20849.6875
2431.09956	20891.1875
2433.88131	20844.7875
2436.6613	20845.9875
2439.43954	20837.2875
2442.21603	20786.2875
2444.99077	20794.7875
2447.76377	20795.4875
2450.53501	20729.0875
2453.30451	20707.0875
2456.07226	20663.7875
2458.83827	20641.3875
2461.60254	20662.9875
2464.36507	20667.4875
2467.12586	20618.2875
2469.88492	20606.2875
2472.64224	20558.6875
2475.39782	20566.2875
2478.15167	20567.2875
2480.90379	20625.7875
2483.65417	20607.8875
2486.40283	20639.9875
2489.14976	20644.5875
2491.89497	20653.7875
2494.63845	20619.2875
2497.3802	20608.9875
2500.12024	20558.5875
2502.85855	20512.6875
2505.59514	20491.1875
2508.33002	20438.4875
2511.06318	20375.6875
2513.79462	20334.9875
2516.52435	20305.2875
2519.25237	20296.1875
2521.97867	20252.4875
2524.70327	20257.0875
2527.42616	20188.9875
2530.14734	20214.6875
2532.86681	20157.5875
2535.58458	20179.6875
2538.30065	20109.2875
2541.01501	20095.9875
2543.72768	20069.2875
2546.43864	20040.6875
2549.14791	19987.4875
2551.85548	19949.7875
2554.56136	19889.1875
2557.26554	19919.1875
2559.96803	19887.8875
2562.66883	19857.2875
2565.36794	19789.8875
2568.06536	19791.8875
2570.7611	19813.7875
2573.45514	19726.6875
2576.14751	19725.4875
2578.83819	19631.3875
2581.52719	19635.4875
2584.21451	19581.9875
2586.90015	19570.1875
2589.58411	19565.9875
2592.2664	19525.4875
2594.94701	19525.2875
2597.62594	19495.0875
2600.30321	19445.8875
2602.9788	19378.6875
2605.65273	19336.9875
2608.32498	19320.6875
2610.99557	19302.0875
2613.66449	19325.6875
2616.33175	19283.1875
2618.99734	19237.8875
2621.66128	19214.8875
2624.32355	19204.4875
2626.98416	19179.6875
2629.64311	19111.4875
2632.30041	19096.7875
2634.95605	19085.4875
2637.61004	19046.7875
2640.26238	19040.2875
2642.91306	19030.0875
2645.56209	19024.2875
2648.20948	19037.4875
2650.85521	18980.8875
2653.4993	18965.0875
2656.14175	18956.0875
2658.78255	19007.7875
2661.42171	19009.8875
2664.05923	19057.0875
2666.6951	19024.5875
2669.32934	19025.3875
2671.96194	18988.3875
2674.59291	18996.1875
2677.22224	18996.1875
2679.84993	19008.1875
2682.476	18993.2875
2685.10043	18963.5875
2687.72324	18937.4875
2690.34441	18931.0875
2692.96396	18949.5875
2695.58188	18968.5875
2698.19818	18907.4875
2700.81285	18877.9875
2703.4259	18907.7875
2706.03733	18947.9875
2708.64714	18983.2875
2711.25533	18955.6875
2713.86191	18927.9875
2716.46687	18943.2875
2719.07021	18939.0875
2721.67194	18958.2875
2724.27206	18950.0875
2726.87057	18944.6875
2729.46747	18898.4875
2732.06276	18971.8875
2734.65644	18943.2875
2737.24852	18918.6875
2739.83899	18846.3875
2742.42786	18842.1875
2745.01513	18795.1875
2747.60079	18800.1875
2750.18486	18816.9875
2752.76733	18780.6875
2755.3482	18763.3875
2757.92747	18732.3875
2760.50515	18681.1875
2763.08123	18694.9875
2765.65573	18591.1875
2768.22863	18655.0875
2770.79994	18585.5875
2773.36967	18585.6875
2775.9378	18561.3875
2778.50435	18515.2875
2781.06932	18465.7875
2783.6327	18463.8875
2786.1945	18462.0875
2788.75471	18453.8875
2791.31335	18412.3875
2793.87041	18352.3875
2796.42589	18299.4875
2798.97979	18301.0875
2801.53212	18306.8875
2804.08288	18279.3875
2806.63206	18206.4875
2809.17967	18199.4875
2811.72571	18128.5875
2814.27018	18114.9875
2816.81308	18051.4875
2819.35442	18051.9875
2821.89419	18023.6875
2824.43239	18014.8875
2826.96904	17962.9875
2829.50412	17974.5875
2832.03763	17938.6875
2834.56959	17934.8875
2837.1	17883.3875
2839.62884	17879.8875
2842.15613	17860.8875
2844.68186	17863.3875
2847.20604	17780.5875
2849.72867	17785.3875
2852.24974	17775.3875
2854.76927	17729.3875
2857.28724	17733.8875
2859.80367	17771.4875
2862.31855	17708.9875
2864.83189	17687.8875
2867.34368	17670.3875
2869.85393	17688.4875
2872.36264	17614.0875
2874.8698	17606.2875
2877.37543	17568.3875
2879.87952	17610.9875
2882.38207	17581.7875
2884.88308	17538.0875
2887.38256	17561.9875
2889.88051	17537.3875
2892.37692	17539.4875
2894.8718	17565.7875
2897.36515	17520.7875
2899.85698	17531.7875
2902.34727	17525.8875
2904.83604	17537.1875
2907.32328	17598.0875
2909.809	17573.2875
2912.29319	17590.9875
2914.77587	17552.0875
2917.25702	17553.2875
2919.73665	17547.0875
2922.21476	17586.5875
2924.69136	17567.4875
2927.16644	17546.3875
2929.64	17503.6875
2932.11205	17489.5875
2934.58258	17414.1875
2937.05161	17379.2875
2939.51912	17410.1875
2941.98513	17397.8875
2944.44962	17338.2875
2946.91261	17305.2875
2949.37409	17350.1875
2951.83407	17300.8875
2954.29254	17332.8875
2956.74951	17302.1875
2959.20498	17303.5875
2961.65895	17252.0875
2964.11142	17313.5875
2966.56239	17271.8875
2969.01186	17265.1875
2971.45984	17231.6875
2973.90632	17219.9875
2976.35131	17171.2875
2978.7948	17133.8875
2981.23681	17147.1875
2983.67732	17136.4875
2986.11635	17109.2875
2988.55388	17085.0875
2990.98993	17045.0875
2993.4245	16995.8875
2995.85758	16969.7875
2998.28917	16925.9875
3000.71928	16885.5875
3003.14791	16815.1875
3005.57506	16817.6875
3008.00073	16766.5875
3010.42493	16727.2875
3012.84764	16693.7875
3015.26888	16734.7875
3017.68865	16686.8875
3020.10694	16645.1875
3022.52376	16605.4875
3024.9391	16584.5875
3027.35298	16506.4875
3029.76539	16548.1875
3032.17632	16540.1875
3034.5858	16538.6875
3036.9938	16506.8875
3039.40034	16502.5875
3041.80542	16447.7875
3044.20903	16392.7875
3046.61118	16431.8875
3049.01187	16346.1875
3051.4111	16330.0875
3053.80888	16296.8875
3056.20519	16302.9875
3058.60005	16271.9875
3060.99345	16197.9875
3063.3854	16189.1875
3065.7759	16128.5875
3068.16494	16108.6875
3070.55254	16033.7875
3072.93868	16033.1875
3075.32338	15986.7875
3077.70662	15970.6875
3080.08842	15889.8875
3082.46878	15884.3875
3084.84769	15876.5875
3087.22515	15839.8875
3089.60118	15850.0875
3091.97576	15829.6875
3094.3489	15837.2875
3096.72061	15810.9875
3099.09087	15834.2875
3101.4597	15829.4875
3103.82709	15846.6875
3106.19305	15795.5875
3108.55757	15798.2875
3110.92066	15757.4875
3113.28232	15741.0875
3115.64255	15701.9875
3118.00134	15695.6875
3120.35871	15664.1875
3122.71466	15632.9875
3125.06917	15566.9875
3127.42226	15521.0875
3129.77393	15552.3875
3132.12417	15501.8875
3134.47299	15520.3875
3136.82039	15507.3875
3139.16636	15483.5875
3141.51092	15468.7875
3143.85406	15466.6875
3146.19579	15466.5875
3148.53609	15466.0875
3150.87499	15496.8875
3153.21246	15480.0875
3155.54853	15482.0875
3157.88318	15445.0875
3160.21642	15489.4875
3162.54826	15497.9875
3164.87868	15505.3875
3167.2077	15540.4875
3169.5353	15473.3875
3171.86151	15442.0875
3174.18631	15412.0875
3176.5097	15424.8875
3178.83169	15413.4875
3181.15228	15430.0875
3183.47147	15357.8875
3185.78926	15327.9875
3188.10565	15302.3875
3190.42065	15321.2875
3192.73424	15289.5875
3195.04645	15256.7875
3197.35725	15256.0875
3199.66667	15249.8875
3201.97469	15218.0875
3204.28132	15205.5875
3206.58656	15243.3875
3208.8904	15255.9875
3211.19287	15206.4875
3213.49394	15216.5875
3215.79363	15232.4875
3218.09193	15265.2875
3220.38884	15241.1875
3222.68438	15263.5875
3224.97853	15227.6875
3227.2713	15235.9875
3229.56269	15254.7875
3231.8527	15201.7875
3234.14133	15215.7875
3236.42858	15163.5875
3238.71446	15157.2875
3240.99896	15108.4875
3243.28209	15069.3875
3245.56384	15003.9875
3247.84423	15034.9875
3250.12324	14999.3875
3252.40088	15015.0875
3254.67715	14975.6875
3256.95205	14913.5875
3259.22558	14948.3875
3261.49775	14934.3875
3263.76855	14958.1875
3266.03799	14911.4875
3268.30606	14927.0875
3270.57277	14867.7875
3272.83812	14829.4875
3275.10211	14799.6875
3277.36474	14744.3875
3279.62601	14781.8875
3281.88593	14734.7875
3284.14448	14760.0875
3286.40168	14780.8875
3288.65753	14760.1875
3290.91202	14726.9875
3293.16516	14706.9875
3295.41695	14688.3875
3297.66738	14609.1875
3299.91647	14559.6875
3302.16421	14458.6875
3304.4106	14424.0875
3306.65564	14313.3875
3308.89933	14237.8875
3311.14169	14119.7875
3313.38269	13996.4875
3315.62236	13927.5875
3317.86068	13819.3875
3320.09766	13742.8875
3322.3333	13647.1875
3324.5676	13598.2875
3326.80056	13410.8875
3329.03219	13357.1875
3331.26248	4.0875
3333.49143	-0.8125
3335.71905	1.9875
