Data from AgNPs_UA_50uM_CRN_0uM_R6G_10uM_Q_RamanShift__13__12-26-21-768.txt Node

Date: Tue Jul 26 12:26:21 BST 2022
User: TCL
Spectrometer: QEP01345
Trigger mode: 4
Integration Time (sec): 7.000000E0
Scans to average: 10
Electric dark correction enabled: true
Nonlinearity correction enabled: false
Boxcar width: 0
XAxis mode: Raman Shifts
Number of Pixels in Spectrum: 1044
>>>>>Begin Spectral Data<<<<<
46.04893	0.125
50.45542	0.125
54.85868	-0.075
59.25871	-1.575
63.6555	91.325
68.04907	93.525
72.43941	98.725
76.82654	106.825
81.21044	105.825
85.59113	112.625
89.96862	118.025
94.34289	122.225
98.71396	129.325
103.08183	134.925
107.4465	132.425
111.80798	135.325
116.16626	134.325
120.52136	145.625
124.87327	147.125
129.222	153.225
133.56755	163.125
137.90993	169.825
142.24913	182.225
146.58517	198.225
150.91804	225.025
155.24774	266.025
159.57429	316.825
163.89768	395.425
168.21792	523.625
172.53501	705.425
176.84895	959.025
181.15975	1351.125
185.46741	1904.925
189.77193	2618.425
194.07331	3504.825
198.37157	4489.725
202.6667	5579.225
206.9587	6626.525
211.24758	7671.125
215.53334	8727.525
219.81599	9778.125
224.09553	10975.025
228.37195	12250.025
232.64527	13693.125
236.91549	15236.825
241.18261	16821.925
245.44663	18290.325
249.70755	19717.125
253.96539	20947.425
258.22014	21915.425
262.4718	22637.425
266.72039	23169.625
270.96589	23378.125
275.20832	23347.825
279.44768	23120.125
283.68397	22844.425
287.91719	22525.125
292.14735	22269.025
296.37445	22158.525
300.59849	22106.325
304.81948	22130.925
309.03742	22183.025
313.25231	22092.125
317.46415	21893.225
321.67296	21690.325
325.87872	21485.925
330.08145	21499.725
334.28114	21627.825
338.47781	21876.825
342.67145	22172.925
346.86207	22479.125
351.04966	22953.725
355.23424	23320.525
359.4158	23682.125
363.59435	24103.825
367.76989	24370.225
371.94243	24644.325
376.11196	24815.925
380.27849	25009.325
384.44203	25240.125
388.60257	25429.625
392.76012	25625.125
396.91468	25889.525
401.06626	26197.125
405.21485	26425.025
409.36047	26486.625
413.50311	26364.925
417.64277	26191.025
421.77947	26115.025
425.9132	26110.025
430.04396	26197.425
434.17176	26377.725
438.2966	26569.525
442.41849	26767.725
446.53742	27112.025
450.6534	27411.825
454.76644	27732.325
458.87653	27926.225
462.98368	28058.925
467.08789	28136.925
471.18916	28141.225
475.2875	27985.325
479.38291	27807.425
483.4754	27753.425
487.56496	27740.925
491.6516	27770.925
495.73531	27695.325
499.81612	27845.925
503.89401	28014.525
507.96899	28163.325
512.04106	28268.825
516.11023	28345.525
520.1765	28345.725
524.23987	28395.425
528.30034	28320.225
532.35792	28333.025
536.41261	28289.025
540.46441	28217.325
544.51333	28210.725
548.55936	28334.225
552.60252	28584.125
556.64279	28788.125
560.6802	29046.425
564.71473	29144.325
568.7464	29176.225
572.7752	29268.525
576.80114	29257.325
580.82422	29337.325
584.84444	29443.825
588.86181	29557.325
592.87633	29591.925
596.888	29714.925
600.89682	30134.525
604.9028	31190.725
608.90594	33252.125
612.90624	35309.525
616.90371	34313.025
620.89834	31420.825
624.89015	30111.825
628.87913	29978.125
632.86528	30232.425
636.84862	30446.925
640.82913	30398.125
644.80683	30124.225
648.78172	29881.825
652.75379	29904.725
656.72306	30182.225
660.68952	30549.425
664.65319	30668.325
668.61405	30574.625
672.57211	30714.125
676.52738	30817.325
680.47986	30720.225
684.42955	30585.225
688.37646	30564.925
692.32058	30687.025
696.26192	30915.425
700.20048	31151.325
704.13626	31384.025
708.06928	31367.425
711.99952	31261.425
715.927	31195.725
719.85171	31182.325
723.77365	31188.325
727.69284	31150.025
731.60928	31044.125
735.52295	31039.625
739.43388	31042.025
743.34206	31190.225
747.24749	31224.125
751.15017	31306.425
755.05012	31429.325
758.94733	31756.925
762.8418	32486.725
766.73354	33576.525
770.62254	34666.225
774.50882	35166.825
778.39237	34941.325
782.27321	34178.725
786.15132	33232.425
790.02671	32448.725
793.89938	31985.125
797.76935	31781.125
801.6366	31674.025
805.50115	31569.325
809.36299	31537.225
813.22213	31466.625
817.07857	31494.425
820.93231	31586.025
824.78336	31658.925
828.63172	31686.925
832.47738	31719.825
836.32036	31757.225
840.16066	31733.025
843.99827	31780.525
847.8332	31846.925
851.66546	31893.825
855.49504	31930.525
859.32195	32016.125
863.1462	32078.625
866.96777	32112.725
870.78668	32116.525
874.60293	32210.625
878.41652	32290.425
882.22745	32371.725
886.03573	32409.725
889.84136	32426.825
893.64433	32372.525
897.44466	32383.225
901.24235	32335.125
905.0374	32428.625
908.8298	32333.225
912.61957	32341.225
916.40671	32340.825
920.19121	32400.125
923.97308	32437.125
927.75233	32457.125
931.52895	32389.625
935.30295	32414.225
939.07433	32272.425
942.84309	32152.325
946.60924	32011.025
950.37278	32043.925
954.13371	32026.225
957.89203	32007.025
961.64774	31989.825
965.40086	31956.325
969.15137	31911.525
972.89929	31892.025
976.64461	31863.625
980.38733	31881.025
984.12747	31929.425
987.86502	31940.825
991.59999	32076.725
995.33237	32178.925
999.06217	32359.525
1002.78939	32484.125
1006.51404	32708.225
1010.23611	32983.625
1013.95561	33097.425
1017.67255	33173.225
1021.38692	33132.725
1025.09872	33053.625
1028.80796	32867.525
1032.51465	32837.625
1036.21877	32810.025
1039.92035	32890.725
1043.61937	32936.825
1047.31584	32965.225
1051.00976	33110.125
1054.70114	33238.025
1058.38998	33317.125
1062.07627	33487.725
1065.76003	33586.425
1069.44126	33815.125
1073.11995	34193.825
1076.79611	34646.825
1080.46974	34884.525
1084.14085	34969.525
1087.80943	34939.625
1091.47549	34957.425
1095.13903	35076.225
1098.80005	35176.525
1102.45857	35233.125
1106.11456	35187.325
1109.76805	34865.725
1113.41903	34632.425
1117.06751	34530.525
1120.71348	34603.425
1124.35696	34776.625
1127.99793	34831.225
1131.63641	34802.925
1135.2724	34573.525
1138.90589	34415.425
1142.5369	34347.525
1146.16542	34239.425
1149.79145	34168.525
1153.415	33979.525
1157.03607	33897.425
1160.65467	33931.425
1164.27079	34168.625
1167.88443	34569.925
1171.49561	35163.425
1175.10432	35956.125
1178.71056	37025.125
1182.31434	38053.625
1185.91565	38603.625
1189.51451	38816.925
1193.11091	38787.825
1196.70485	38540.425
1200.29634	38112.525
1203.88538	37594.225
1207.47197	36978.725
1211.05612	36450.225
1214.63782	36001.925
1218.21708	35644.325
1221.79391	35264.425
1225.36829	35117.925
1228.94024	34968.025
1232.50976	35002.925
1236.07685	35091.625
1239.6415	35114.225
1243.20374	35261.825
1246.76355	35407.525
1250.32093	35535.125
1253.8759	35709.625
1257.42845	36078.025
1260.97859	36514.625
1264.52631	36981.625
1268.07163	37234.225
1271.61453	37473.325
1275.15503	37521.125
1278.69312	37621.825
1282.22882	37547.925
1285.76211	37557.825
1289.29301	37705.225
1292.82151	37895.725
1296.34761	38206.725
1299.87133	38709.225
1303.39266	39374.825
1306.9116	40343.225
1310.42815	41339.725
1313.94233	41966.725
1317.45412	41833.125
1320.96354	41455.925
1324.47058	40986.725
1327.97525	40342.825
1331.47754	39860.525
1334.97747	39731.125
1338.47502	39969.125
1341.97022	40510.525
1345.46305	41455.725
1348.95352	42444.725
1352.44163	43310.525
1355.92738	43890.525
1359.41078	44423.025
1362.89183	44887.225
1366.37053	44035.825
1369.84688	41797.625
1373.32088	39568.825
1376.79254	38046.525
1380.26186	37059.725
1383.72883	36462.525
1387.19347	35963.525
1390.65578	35530.725
1394.11575	35039.425
1397.57339	34666.225
1401.0287	34430.525
1404.48168	34361.225
1407.93234	34381.725
1411.38068	34462.925
1414.82669	34543.725
1418.27039	34426.025
1421.71177	34359.725
1425.15083	34193.325
1428.58758	34043.325
1432.02203	33929.925
1435.45416	33874.725
1438.88399	33895.025
1442.31151	33878.525
1445.73673	33883.625
1449.15965	33989.525
1452.58027	33986.825
1455.9986	33986.725
1459.41463	34100.725
1462.82837	34355.125
1466.23982	34675.825
1469.64898	35001.625
1473.05586	35315.425
1476.46045	35500.225
1479.86276	35704.225
1483.26279	35926.425
1486.66054	36127.925
1490.05602	36401.425
1493.44922	36910.425
1496.84016	37816.525
1500.22882	39064.825
1503.61521	40636.525
1506.99934	42035.325
1510.38121	42838.825
1513.76081	42689.125
1517.13816	41637.225
1520.51324	40028.825
1523.88607	38660.125
1527.25665	37667.825
1530.62498	37105.325
1533.99105	36774.825
1537.35488	36474.025
1540.71647	36299.225
1544.07581	36208.725
1547.4329	36210.325
1550.78776	36061.925
1554.14038	35984.425
1557.49077	36001.125
1560.83892	36054.125
1564.18484	36284.425
1567.52853	36602.425
1570.86999	36750.525
1574.20922	36868.925
1577.54624	36754.025
1580.88103	36372.225
1584.2136	35802.225
1587.54395	35462.825
1590.87208	35435.425
1594.19801	35827.725
1597.52172	36409.725
1600.84321	36735.425
1604.16251	36639.625
1607.47959	36320.125
1610.79447	35837.125
1614.10715	35026.525
1617.41763	34207.525
1620.7259	33561.425
1624.03199	33070.225
1627.33587	32919.425
1630.63757	32922.525
1633.93707	33171.025
1637.23439	33707.225
1640.52951	34644.325
1643.82246	35903.525
1647.11321	37265.425
1650.40179	37991.825
1653.68819	37618.625
1656.97241	36179.025
1660.25446	34507.725
1663.53433	33190.825
1666.81203	32347.125
1670.08756	31770.025
1673.36092	31414.725
1676.63211	31162.925
1679.90115	30908.425
1683.16801	30689.925
1686.43272	30577.025
1689.69527	30486.925
1692.95567	30475.825
1696.2139	30377.425
1699.46999	30337.125
1702.72392	30337.125
1705.97571	30362.425
1709.22535	30361.125
1712.47284	30350.725
1715.71819	30264.925
1718.96139	30178.325
1722.20246	30185.625
1725.44139	30180.025
1728.67818	30103.225
1731.91284	30043.225
1735.14537	29919.825
1738.37576	29847.625
1741.60403	29819.825
1744.83017	29688.725
1748.05418	29626.525
1751.27607	29621.225
1754.49584	29530.325
1757.71349	29548.925
1760.92903	29466.925
1764.14244	29545.525
1767.35375	29482.625
1770.56294	29404.625
1773.77002	29406.525
1776.97499	29410.825
1780.17785	29373.925
1783.37861	29371.225
1786.57727	29339.625
1789.77382	29351.925
1792.96828	29306.125
1796.16064	29242.825
1799.3509	29246.825
1802.53907	29176.425
1805.72514	29113.425
1808.90913	29001.025
1812.09102	28937.525
1815.27083	28850.725
1818.44856	28806.325
1821.6242	28766.525
1824.79776	28721.225
1827.96924	28659.825
1831.13864	28632.325
1834.30597	28600.125
1837.47122	28637.725
1840.6344	28551.725
1843.7955	28574.525
1846.95454	28571.225
1850.11151	28527.525
1853.26642	28535.225
1856.41926	28470.825
1859.57004	28454.725
1862.71876	28391.925
1865.86542	28386.925
1869.01003	28368.725
1872.15258	28316.325
1875.29308	28307.825
1878.43152	28228.525
1881.56792	28205.225
1884.70227	28175.925
1887.83457	28162.025
1890.96482	28085.425
1894.09304	27989.325
1897.21921	27979.025
1900.34335	27959.325
1903.46544	27938.825
1906.58551	27865.825
1909.70353	27918.925
1912.81953	27897.225
1915.93349	27862.925
1919.04543	27763.325
1922.15534	27712.825
1925.26322	27632.625
1928.36908	27599.825
1931.47292	27576.025
1934.57473	27509.425
1937.67453	27440.625
1940.77232	27406.625
1943.86808	27332.225
1946.96184	27240.125
1950.05358	27172.425
1953.14331	27080.125
1956.23103	27051.825
1959.31675	26920.625
1962.40046	26855.825
1965.48217	26728.925
1968.56188	26692.525
1971.63959	26617.825
1974.7153	26549.925
1977.78901	26425.325
1980.86073	26405.425
1983.93046	26353.425
1986.99819	26290.025
1990.06394	26201.625
1993.1277	26112.025
1996.18947	26011.525
1999.24925	25982.325
2002.30706	25916.725
2005.36288	25840.225
2008.41672	25784.325
2011.46859	25663.525
2014.51848	25635.825
2017.56639	25486.125
2020.61233	25387.925
2023.6563	25361.125
2026.6983	25286.025
2029.73833	25227.325
2032.7764	25208.125
2035.8125	25071.425
2038.84664	25041.125
2041.87881	25070.825
2044.90903	24989.125
2047.93729	24919.325
2050.96359	24834.225
2053.98794	24836.825
2057.01034	24867.725
2060.03078	24835.425
2063.04927	24779.725
2066.06582	24784.225
2069.08042	24768.825
2072.09307	24711.625
2075.10378	24673.725
2078.11255	24622.625
2081.11938	24611.625
2084.12426	24617.325
2087.12722	24641.625
2090.12824	24652.925
2093.12732	24607.525
2096.12447	24599.925
2099.11969	24584.425
2102.11299	24607.225
2105.10435	24554.725
2108.09379	24576.825
2111.08131	24604.425
2114.0669	24560.325
2117.05057	24566.025
2120.03233	24659.825
2123.01216	24695.925
2125.99008	24704.325
2128.96609	24701.025
2131.94018	24746.425
2134.91236	24718.925
2137.88263	24715.225
2140.851	24760.525
2143.81746	24735.425
2146.78201	24752.725
2149.74466	24839.025
2152.7054	24833.425
2155.66425	24836.025
2158.6212	24787.225
2161.57625	24764.625
2164.52941	24791.525
2167.48067	24730.725
2170.43004	24702.525
2173.37752	24704.225
2176.32311	24688.025
2179.26681	24669.325
2182.20863	24670.925
2185.14856	24709.625
2188.08661	24650.425
2191.02278	24641.725
2193.95707	24628.125
2196.88948	24632.625
2199.82001	24639.225
2202.74867	24567.025
2205.67545	24549.025
2208.60037	24545.425
2211.52341	24494.225
2214.44458	24399.725
2217.36388	24362.925
2220.28132	24345.925
2223.1969	24273.725
2226.11061	24258.025
2229.02246	24186.025
2231.93245	24137.525
2234.84058	24084.025
2237.74686	24063.025
2240.65128	24035.125
2243.55385	23987.425
2246.45456	23944.825
2249.35343	23920.325
2252.25044	23935.425
2255.14561	23898.825
2258.03893	23878.625
2260.93041	23814.425
2263.82004	23701.825
2266.70783	23682.725
2269.59378	23648.025
2272.4779	23586.125
2275.36017	23514.925
2278.24061	23490.125
2281.11922	23417.325
2283.996	23356.725
2286.87094	23330.325
2289.74405	23287.225
2292.61534	23246.025
2295.4848	23190.525
2298.35243	23202.525
2301.21824	23159.325
2304.08223	23192.125
2306.94439	23147.125
2309.80474	23128.625
2312.66327	23090.325
2315.51999	23031.425
2318.37489	23049.925
2321.22797	23038.825
2324.07925	22943.025
2326.92871	22866.725
2329.77637	22815.225
2332.62222	22803.625
2335.46626	22775.025
2338.3085	22708.125
2341.14893	22681.725
2343.98756	22700.425
2346.8244	22679.425
2349.65943	22700.425
2352.49267	22623.225
2355.32411	22588.225
2358.15376	22532.625
2360.98161	22541.125
2363.80768	22548.625
2366.63195	22550.025
2369.45444	22518.725
2372.27514	22444.425
2375.09405	22458.425
2377.91118	22433.425
2380.72652	22372.425
2383.54009	22302.825
2386.35187	22280.025
2389.16188	22170.225
2391.97011	22148.525
2394.77657	22114.025
2397.58125	22031.725
2400.38416	22035.625
2403.18529	22002.925
2405.98466	21932.125
2408.78226	21861.225
2411.57809	21855.525
2414.37216	21830.825
2417.16446	21871.725
2419.955	21824.825
2422.74378	21826.225
2425.5308	21764.525
2428.31606	21769.625
2431.09956	21751.825
2433.88131	21680.725
2436.6613	21728.825
2439.43954	21682.025
2442.21603	21646.125
2444.99077	21587.825
2447.76377	21572.225
2450.53501	21537.025
2453.30451	21488.925
2456.07226	21423.625
2458.83827	21423.625
2461.60254	21358.325
2464.36507	21307.925
2467.12586	21317.825
2469.88492	21297.725
2472.64224	21327.025
2475.39782	21278.025
2478.15167	21231.225
2480.90379	21212.425
2483.65417	21219.425
2486.40283	21189.325
2489.14976	21179.725
2491.89497	21178.325
2494.63845	21175.525
2497.3802	21130.625
2500.12024	21076.525
2502.85855	21052.425
2505.59514	21017.925
2508.33002	20986.025
2511.06318	20962.225
2513.79462	20963.225
2516.52435	20932.325
2519.25237	20881.525
2521.97867	20815.325
2524.70327	20791.025
2527.42616	20782.525
2530.14734	20798.725
2532.86681	20717.725
2535.58458	20666.525
2538.30065	20598.525
2541.01501	20634.125
2543.72768	20610.325
2546.43864	20555.925
2549.14791	20495.425
2551.85548	20475.525
2554.56136	20436.525
2557.26554	20394.925
2559.96803	20382.025
2562.66883	20312.125
2565.36794	20240.825
2568.06536	20221.425
2570.7611	20186.425
2573.45514	20145.925
2576.14751	20065.025
2578.83819	20070.325
2581.52719	20035.125
2584.21451	19976.125
2586.90015	19917.725
2589.58411	19908.825
2592.2664	19887.125
2594.94701	19819.825
2597.62594	19823.225
2600.30321	19731.925
2602.9788	19727.525
2605.65273	19670.325
2608.32498	19681.525
2610.99557	19652.825
2613.66449	19613.725
2616.33175	19620.825
2618.99734	19598.725
2621.66128	19541.725
2624.32355	19466.325
2626.98416	19453.125
2629.64311	19385.125
2632.30041	19381.225
2634.95605	19395.725
2637.61004	19359.025
2640.26238	19339.825
2642.91306	19291.325
2645.56209	19276.425
2648.20948	19300.025
2650.85521	19214.025
2653.4993	19179.525
2656.14175	19139.725
2658.78255	19144.425
2661.42171	19094.825
2664.05923	19136.625
2666.6951	19175.525
2669.32934	19188.225
2671.96194	19156.225
2674.59291	19150.325
2677.22224	19126.025
2679.84993	19115.525
2682.476	19072.625
2685.10043	19067.525
2687.72324	19086.525
2690.34441	19029.725
2692.96396	19009.725
2695.58188	19023.225
2698.19818	19000.025
2700.81285	18985.725
2703.4259	19008.625
2706.03733	19009.425
2708.64714	18946.125
2711.25533	18952.825
2713.86191	18922.325
2716.46687	18977.925
2719.07021	18942.025
2721.67194	18993.125
2724.27206	18951.225
2726.87057	18931.825
2729.46747	18880.025
2732.06276	18913.225
2734.65644	18875.825
2737.24852	18888.625
2739.83899	18840.425
2742.42786	18892.725
2745.01513	18837.025
2747.60079	18763.025
2750.18486	18690.825
2752.76733	18687.825
2755.3482	18671.525
2757.92747	18636.325
2760.50515	18616.825
2763.08123	18613.525
2765.65573	18565.725
2768.22863	18590.925
2770.79994	18564.425
2773.36967	18525.125
2775.9378	18474.925
2778.50435	18432.225
2781.06932	18401.325
2783.6327	18421.225
2786.1945	18363.225
2788.75471	18334.525
2791.31335	18277.025
2793.87041	18224.225
2796.42589	18146.125
2798.97979	18127.225
2801.53212	18090.925
2804.08288	18090.925
2806.63206	18008.425
2809.17967	17925.625
2811.72571	17940.325
2814.27018	17887.925
2816.81308	17855.525
2819.35442	17831.425
2821.89419	17777.825
2824.43239	17795.125
2826.96904	17733.925
2829.50412	17718.925
2832.03763	17649.625
2834.56959	17609.925
2837.1	17570.425
2839.62884	17543.125
2842.15613	17541.825
2844.68186	17532.525
2847.20604	17499.025
2849.72867	17464.125
2852.24974	17455.625
2854.76927	17412.325
2857.28724	17395.325
2859.80367	17386.225
2862.31855	17355.725
2864.83189	17314.725
2867.34368	17276.625
2869.85393	17290.625
2872.36264	17246.525
2874.8698	17205.725
2877.37543	17236.925
2879.87952	17181.125
2882.38207	17153.925
2884.88308	17134.925
2887.38256	17177.125
2889.88051	17150.725
2892.37692	17111.025
2894.8718	17097.125
2897.36515	17067.525
2899.85698	17051.825
2902.34727	17115.525
2904.83604	17099.525
2907.32328	17167.625
2909.809	17160.625
2912.29319	17122.625
2914.77587	17104.725
2917.25702	17083.225
2919.73665	17087.025
2922.21476	17062.725
2924.69136	17026.025
2927.16644	17021.825
2929.64	16983.225
2932.11205	16976.425
2934.58258	16938.325
2937.05161	16963.025
2939.51912	16949.925
2941.98513	16919.725
2944.44962	16895.225
2946.91261	16850.825
2949.37409	16849.725
2951.83407	16862.525
2954.29254	16865.025
2956.74951	16889.925
2959.20498	16857.725
2961.65895	16803.125
2964.11142	16813.925
2966.56239	16772.225
2969.01186	16785.925
2971.45984	16776.525
2973.90632	16804.525
2976.35131	16728.825
2978.7948	16717.425
2981.23681	16677.125
2983.67732	16669.625
2986.11635	16618.525
2988.55388	16601.525
2990.98993	16574.625
2993.4245	16530.825
2995.85758	16507.125
2998.28917	16478.125
3000.71928	16463.925
3003.14791	16432.225
3005.57506	16385.025
3008.00073	16357.725
3010.42493	16346.925
3012.84764	16293.925
3015.26888	16299.825
3017.68865	16243.725
3020.10694	16235.325
3022.52376	16199.225
3024.9391	16168.125
3027.35298	16143.425
3029.76539	16091.525
3032.17632	16097.825
3034.5858	16092.125
3036.9938	16057.325
3039.40034	16025.225
3041.80542	16037.425
3044.20903	15988.925
3046.61118	15997.625
3049.01187	15916.325
3051.4111	15917.825
3053.80888	15897.925
3056.20519	15856.225
3058.60005	15801.725
3060.99345	15772.025
3063.3854	15741.725
3065.7759	15721.825
3068.16494	15675.125
3070.55254	15630.125
3072.93868	15627.125
3075.32338	15534.025
3077.70662	15529.325
3080.08842	15498.825
3082.46878	15514.425
3084.84769	15431.225
3087.22515	15464.125
3089.60118	15463.025
3091.97576	15463.325
3094.3489	15415.825
3096.72061	15456.925
3099.09087	15423.825
3101.4597	15404.225
3103.82709	15424.125
3106.19305	15407.825
3108.55757	15401.625
3110.92066	15371.825
3113.28232	15372.625
3115.64255	15306.625
3118.00134	15313.625
3120.35871	15286.425
3122.71466	15229.125
3125.06917	15190.225
3127.42226	15175.925
3129.77393	15172.725
3132.12417	15159.325
3134.47299	15117.525
3136.82039	15100.625
3139.16636	15108.125
3141.51092	15077.625
3143.85406	15062.525
3146.19579	15094.125
3148.53609	15077.825
3150.87499	15124.125
3153.21246	15121.025
3155.54853	15098.525
3157.88318	15087.425
3160.21642	15147.925
3162.54826	15126.725
3164.87868	15102.125
3167.2077	15084.625
3169.5353	15076.625
3171.86151	15101.125
3174.18631	15082.425
3176.5097	15072.125
3178.83169	15033.225
3181.15228	15007.625
3183.47147	14933.225
3185.78926	14942.825
3188.10565	14896.925
3190.42065	14894.125
3192.73424	14892.025
3195.04645	14817.825
3197.35725	14887.625
3199.66667	14836.025
3201.97469	14838.225
3204.28132	14825.725
3206.58656	14853.925
3208.8904	14838.525
3211.19287	14892.225
3213.49394	14832.225
3215.79363	14853.025
3218.09193	14813.825
3220.38884	14843.625
3222.68438	14844.225
3224.97853	14813.525
3227.2713	14815.925
3229.56269	14836.925
3231.8527	14809.425
3234.14133	14772.625
3236.42858	14722.925
3238.71446	14710.225
3240.99896	14656.425
3243.28209	14617.525
3245.56384	14599.125
3247.84423	14606.525
3250.12324	14562.925
3252.40088	14520.125
3254.67715	14508.725
3256.95205	14512.725
3259.22558	14504.425
3261.49775	14503.525
3263.76855	14531.325
3266.03799	14457.125
3268.30606	14477.125
3270.57277	14477.925
3272.83812	14424.825
3275.10211	14361.925
3277.36474	14305.725
3279.62601	14294.225
3281.88593	14276.225
3284.14448	14296.225
3286.40168	14266.425
3288.65753	14234.925
3290.91202	14226.125
3293.16516	14205.725
3295.41695	14148.625
3297.66738	14053.625
3299.91647	14004.825
3302.16421	13909.925
3304.4106	13846.725
3306.65564	13779.525
3308.89933	13679.725
3311.14169	13577.225
3313.38269	13458.025
3315.62236	13405.625
3317.86068	13274.525
3320.09766	13197.225
3322.3333	13070.925
3324.5676	13052.025
3326.80056	12855.825
3329.03219	12783.525
3331.26248	3.025
3333.49143	-1.275
3335.71905	-0.375
