Data from AgNPs_UA_20uM_CRN_0uM_R6G_10uM_Q_RamanShift__12__12-50-22-017.txt Node

Date: Mon Jul 18 12:50:22 BST 2022
User: TCL
Spectrometer: QEP01345
Trigger mode: 4
Integration Time (sec): 7.000000E0
Scans to average: 10
Electric dark correction enabled: true
Nonlinearity correction enabled: false
Boxcar width: 0
XAxis mode: Raman Shifts
Number of Pixels in Spectrum: 1044
>>>>>Begin Spectral Data<<<<<
46.04893	-2.0625
50.45542	-0.7625
54.85868	0.0375
59.25871	-2.1625
63.6555	141.5375
68.04907	151.5375
72.43941	152.7375
76.82654	163.3375
81.21044	166.9375
85.59113	175.8375
89.96862	176.4375
94.34289	184.6375
98.71396	194.6375
103.08183	200.8375
107.4465	206.6375
111.80798	208.6375
116.16626	213.5375
120.52136	229.3375
124.87327	238.4375
129.222	250.1375
133.56755	266.5375
137.90993	289.3375
142.24913	319.4375
146.58517	368.1375
150.91804	427.7375
155.24774	513.0375
159.57429	631.3375
163.89768	821.0375
168.21792	1094.3375
172.53501	1489.3375
176.84895	2078.9375
181.15975	2942.6375
185.46741	4150.6375
189.77193	5722.0375
194.07331	7668.4375
198.37157	9869.5375
202.6667	12182.1375
206.9587	14466.3375
211.24758	16713.5375
215.53334	18909.1375
219.81599	21284.3375
224.09553	23875.1375
228.37195	26732.2375
232.64527	29868.1375
236.91549	33163.2375
241.18261	36576.2375
245.44663	39696.9375
249.70755	42621.9375
253.96539	45242.9375
258.22014	47377.0375
262.4718	49079.5375
266.72039	50198.0375
270.96589	50762.4375
275.20832	50813.0375
279.44768	50608.6375
283.68397	50114.1375
287.91719	49727.2375
292.14735	49501.9375
296.37445	49328.7375
300.59849	49495.2375
304.81948	49643.4375
309.03742	49692.8375
313.25231	49533.9375
317.46415	48970.1375
321.67296	48164.0375
325.87872	47537.4375
330.08145	47396.6375
334.28114	47537.7375
338.47781	47965.0375
342.67145	48579.4375
346.86207	49163.0375
351.04966	49962.9375
355.23424	50745.7375
359.4158	51502.0375
363.59435	52133.0375
367.76989	52496.2375
371.94243	52794.4375
376.11196	53063.9375
380.27849	53359.0375
384.44203	53637.9375
388.60257	54016.2375
392.76012	54508.4375
396.91468	55070.4375
401.06626	55646.4375
405.21485	56103.8375
409.36047	56077.7375
413.50311	55591.5375
417.64277	55339.1375
421.77947	55380.0375
425.9132	55475.0375
430.04396	55856.3375
434.17176	56167.7375
438.2966	56534.4375
442.41849	57072.4375
446.53742	57928.5375
450.6534	58839.2375
454.76644	59486.7375
458.87653	59867.6375
462.98368	59923.1375
467.08789	59975.8375
471.18916	59791.9375
475.2875	59520.8375
479.38291	59285.6375
483.4754	58947.5375
487.56496	58745.6375
491.6516	58632.5375
495.73531	58436.0375
499.81612	58482.8375
503.89401	58769.5375
507.96899	58963.8375
512.04106	59164.5375
516.11023	59202.5375
520.1765	59119.4375
524.23987	58954.1375
528.30034	58808.1375
532.35792	58668.8375
536.41261	58447.7375
540.46441	58337.0375
544.51333	58549.8375
548.55936	58963.8375
552.60252	59618.4375
556.64279	60224.2375
560.6802	60663.8375
564.71473	61041.5375
568.7464	61461.2375
572.7752	62240.5375
576.80114	63040.8375
580.82422	63668.1375
584.84444	64249.1375
588.86181	64490.2375
592.87633	64641.5375
596.888	64845.4375
600.89682	65378.5375
604.9028	67208.4375
608.90594	71210.3375
612.90624	74521.3375
616.90371	70724.6375
620.89834	63926.4375
624.89015	61333.3375
628.87913	61193.6375
632.86528	61753.2375
636.84862	62020.4375
640.82913	61630.9375
644.80683	60870.8375
648.78172	60311.5375
652.75379	60345.4375
656.72306	60937.6375
660.68952	61670.7375
664.65319	61576.6375
668.61405	61289.9375
672.57211	61313.8375
676.52738	61519.2375
680.47986	61336.5375
684.42955	61183.2375
688.37646	61200.1375
692.32058	61396.7375
696.26192	61840.0375
700.20048	62302.5375
704.13626	62660.7375
708.06928	62706.5375
711.99952	62474.2375
715.927	62364.4375
719.85171	62295.5375
723.77365	62216.2375
727.69284	61933.7375
731.60928	61629.3375
735.52295	61613.5375
739.43388	61647.3375
743.34206	61783.3375
747.24749	61907.6375
751.15017	62128.2375
755.05012	62650.0375
758.94733	63780.4375
762.8418	66027.7375
766.73354	69222.4375
770.62254	71744.3375
774.50882	72023.0375
778.39237	70149.2375
782.27321	67581.2375
786.15132	65215.1375
790.02671	63623.3375
793.89938	62674.5375
797.76935	62303.6375
801.6366	62069.0375
805.50115	61890.9375
809.36299	61841.7375
813.22213	61679.4375
817.07857	61694.4375
820.93231	61744.1375
824.78336	61886.7375
828.63172	61913.5375
832.47738	61895.7375
836.32036	61863.8375
840.16066	61860.3375
843.99827	61910.9375
847.8332	61977.6375
851.66546	62156.5375
855.49504	62240.8375
859.32195	62255.9375
863.1462	62208.5375
866.96777	62460.4375
870.78668	62472.6375
874.60293	62535.4375
878.41652	62652.0375
882.22745	62834.7375
886.03573	62948.1375
889.84136	62919.2375
893.64433	62840.6375
897.44466	62773.2375
901.24235	62694.8375
905.0374	62662.3375
908.8298	62581.6375
912.61957	62684.8375
916.40671	62890.6375
920.19121	63126.4375
923.97308	63307.1375
927.75233	63299.8375
931.52895	63242.7375
935.30295	62928.9375
939.07433	62379.9375
942.84309	61964.7375
946.60924	61639.7375
950.37278	61508.8375
954.13371	61535.1375
957.89203	61548.0375
961.64774	61578.7375
965.40086	61416.2375
969.15137	61347.7375
972.89929	61285.5375
976.64461	61279.3375
980.38733	61256.1375
984.12747	61327.8375
987.86502	61542.6375
991.59999	61628.2375
995.33237	61780.1375
999.06217	62176.5375
1002.78939	62778.4375
1006.51404	63213.8375
1010.23611	63706.0375
1013.95561	64058.0375
1017.67255	64085.4375
1021.38692	63879.7375
1025.09872	63547.7375
1028.80796	63174.6375
1032.51465	63024.4375
1036.21877	63145.5375
1039.92035	63310.9375
1043.61937	63513.3375
1047.31584	63606.4375
1051.00976	63810.8375
1054.70114	63926.0375
1058.38998	64222.0375
1062.07627	64697.0375
1065.76003	65131.5375
1069.44126	65674.4375
1073.11995	66392.9375
1076.79611	66965.6375
1080.46974	67214.3375
1084.14085	67421.3375
1087.80943	67726.4375
1091.47549	67989.9375
1095.13903	67934.3375
1098.80005	67488.8375
1102.45857	66962.6375
1106.11456	66377.6375
1109.76805	65954.0375
1113.41903	65811.0375
1117.06751	66116.2375
1120.71348	66547.5375
1124.35696	66976.5375
1127.99793	67292.2375
1131.63641	67321.1375
1135.2724	66848.1375
1138.90589	66663.0375
1142.5369	66411.7375
1146.16542	66415.0375
1149.79145	66492.9375
1153.415	66515.1375
1157.03607	66737.5375
1160.65467	67240.6375
1164.27079	68357.0375
1167.88443	69725.6375
1171.49561	71713.8375
1175.10432	74316.9375
1178.71056	77339.8375
1182.31434	80095.7375
1185.91565	81478.4375
1189.51451	81913.2375
1193.11091	81377.0375
1196.70485	80227.7375
1200.29634	78612.1375
1203.88538	77078.5375
1207.47197	75401.2375
1211.05612	73888.6375
1214.63782	72852.3375
1218.21708	72059.9375
1221.79391	71122.1375
1225.36829	70572.6375
1228.94024	70369.9375
1232.50976	70247.8375
1236.07685	70258.9375
1239.6415	70349.2375
1243.20374	70415.3375
1246.76355	70664.3375
1250.32093	71154.9375
1253.8759	71677.6375
1257.42845	72610.5375
1260.97859	73657.1375
1264.52631	74707.1375
1268.07163	75671.2375
1271.61453	76528.7375
1275.15503	77246.6375
1278.69312	77952.5375
1282.22882	78512.0375
1285.76211	79389.4375
1289.29301	80300.1375
1292.82151	81468.9375
1296.34761	82846.0375
1299.87133	84625.2375
1303.39266	86862.8375
1306.9116	89510.0375
1310.42815	91831.8375
1313.94233	93120.2375
1317.45412	92780.4375
1320.96354	91898.9375
1324.47058	90930.6375
1327.97525	90175.8375
1331.47754	89650.6375
1334.97747	89712.2375
1338.47502	90284.9375
1341.97022	91537.4375
1345.46305	93199.3375
1348.95352	94758.3375
1352.44163	95558.2375
1355.92738	96066.9375
1359.41078	97221.6375
1362.89183	98232.3375
1366.37053	96059.4375
1369.84688	90718.1375
1373.32088	85153.9375
1376.79254	81194.6375
1380.26186	78970.6375
1383.72883	77918.8375
1387.19347	76963.7375
1390.65578	76010.9375
1394.11575	75219.0375
1397.57339	74536.4375
1401.0287	74084.8375
1404.48168	73849.3375
1407.93234	73567.8375
1411.38068	73156.6375
1414.82669	72635.3375
1418.27039	71711.3375
1421.71177	70869.5375
1425.15083	70114.6375
1428.58758	69722.1375
1432.02203	69750.2375
1435.45416	70254.4375
1438.88399	70676.7375
1442.31151	71114.7375
1445.73673	71553.9375
1449.15965	71943.2375
1452.58027	72232.3375
1455.9986	72338.7375
1459.41463	72714.8375
1462.82837	73367.8375
1466.23982	74168.4375
1469.64898	74951.0375
1473.05586	75761.9375
1476.46045	76177.4375
1479.86276	76391.2375
1483.26279	76719.8375
1486.66054	77191.6375
1490.05602	77955.2375
1493.44922	79321.1375
1496.84016	81317.6375
1500.22882	84314.6375
1503.61521	87974.9375
1506.99934	91252.7375
1510.38121	93051.3375
1513.76081	92550.9375
1517.13816	89904.2375
1520.51324	86427.0375
1523.88607	83635.8375
1527.25665	81945.1375
1530.62498	81052.8375
1533.99105	80221.5375
1537.35488	79485.6375
1540.71647	78674.4375
1544.07581	77955.1375
1547.4329	77070.0375
1550.78776	76294.7375
1554.14038	75819.7375
1557.49077	75643.6375
1560.83892	75784.0375
1564.18484	76283.4375
1567.52853	76756.5375
1570.86999	77108.4375
1574.20922	77633.9375
1577.54624	77529.8375
1580.88103	76705.5375
1584.2136	75800.2375
1587.54395	75304.3375
1590.87208	75799.7375
1594.19801	77263.5375
1597.52172	78820.5375
1600.84321	79305.9375
1604.16251	78263.7375
1607.47959	76658.1375
1610.79447	74471.3375
1614.10715	71960.4375
1617.41763	69760.7375
1620.7259	67882.3375
1624.03199	66768.3375
1627.33587	66454.1375
1630.63757	66911.5375
1633.93707	68267.4375
1637.23439	70748.5375
1640.52951	74525.7375
1643.82246	79032.3375
1647.11321	83042.3375
1650.40179	84595.3375
1653.68819	82275.2375
1656.97241	77033.1375
1660.25446	71455.5375
1663.53433	67132.3375
1666.81203	64196.3375
1670.08756	62370.5375
1673.36092	61115.8375
1676.63211	60330.6375
1679.90115	59800.5375
1683.16801	59202.8375
1686.43272	58768.7375
1689.69527	58459.3375
1692.95567	58194.5375
1696.2139	58018.0375
1699.46999	57847.9375
1702.72392	57829.5375
1705.97571	57793.2375
1709.22535	57735.2375
1712.47284	57801.8375
1715.71819	57724.3375
1718.96139	57697.2375
1722.20246	57530.6375
1725.44139	57406.9375
1728.67818	57226.6375
1731.91284	57085.2375
1735.14537	56848.5375
1738.37576	56726.6375
1741.60403	56602.1375
1744.83017	56434.6375
1748.05418	56382.1375
1751.27607	56268.8375
1754.49584	56147.0375
1757.71349	56170.6375
1760.92903	56094.9375
1764.14244	56061.7375
1767.35375	56030.9375
1770.56294	55916.4375
1773.77002	55885.7375
1776.97499	55885.0375
1780.17785	55744.1375
1783.37861	55679.9375
1786.57727	55603.8375
1789.77382	55508.5375
1792.96828	55361.7375
1796.16064	55288.1375
1799.3509	55265.6375
1802.53907	55075.0375
1805.72514	54962.0375
1808.90913	54928.8375
1812.09102	54915.4375
1815.27083	54778.2375
1818.44856	54718.0375
1821.6242	54671.0375
1824.79776	54589.7375
1827.96924	54463.8375
1831.13864	54369.4375
1834.30597	54411.9375
1837.47122	54373.0375
1840.6344	54237.9375
1843.7955	54139.9375
1846.95454	54157.9375
1850.11151	54254.5375
1853.26642	54136.0375
1856.41926	54190.0375
1859.57004	54150.1375
1862.71876	54056.7375
1865.86542	54106.2375
1869.01003	54037.8375
1872.15258	53883.9375
1875.29308	53827.9375
1878.43152	53761.3375
1881.56792	53622.4375
1884.70227	53608.8375
1887.83457	53550.5375
1890.96482	53457.2375
1894.09304	53400.2375
1897.21921	53388.9375
1900.34335	53227.5375
1903.46544	53146.5375
1906.58551	53067.9375
1909.70353	53021.8375
1912.81953	52975.1375
1915.93349	52903.4375
1919.04543	52757.1375
1922.15534	52674.2375
1925.26322	52606.6375
1928.36908	52538.5375
1931.47292	52488.9375
1934.57473	52344.1375
1937.67453	52200.0375
1940.77232	52138.5375
1943.86808	51912.4375
1946.96184	51796.5375
1950.05358	51582.3375
1953.14331	51440.6375
1956.23103	51190.4375
1959.31675	51103.4375
1962.40046	50966.9375
1965.48217	50808.2375
1968.56188	50699.2375
1971.63959	50557.1375
1974.7153	50336.0375
1977.78901	50218.8375
1980.86073	50049.4375
1983.93046	49950.6375
1986.99819	49823.4375
1990.06394	49674.3375
1993.1277	49506.5375
1996.18947	49383.3375
1999.24925	49257.2375
2002.30706	49139.3375
2005.36288	49028.2375
2008.41672	48944.3375
2011.46859	48796.3375
2014.51848	48637.1375
2017.56639	48538.0375
2020.61233	48438.8375
2023.6563	48302.2375
2026.6983	48164.2375
2029.73833	47985.3375
2032.7764	47862.3375
2035.8125	47751.4375
2038.84664	47687.8375
2041.87881	47591.2375
2044.90903	47402.4375
2047.93729	47295.5375
2050.96359	47290.1375
2053.98794	47259.8375
2057.01034	47144.6375
2060.03078	47069.2375
2063.04927	47138.1375
2066.06582	47088.2375
2069.08042	47080.4375
2072.09307	47112.5375
2075.10378	47095.3375
2078.11255	47055.2375
2081.11938	46952.7375
2084.12426	46825.5375
2087.12722	46927.6375
2090.12824	46906.7375
2093.12732	46886.1375
2096.12447	46826.9375
2099.11969	46821.3375
2102.11299	46871.7375
2105.10435	46944.4375
2108.09379	46910.6375
2111.08131	46910.0375
2114.0669	46880.3375
2117.05057	46910.2375
2120.03233	46906.4375
2123.01216	46908.2375
2125.99008	46998.2375
2128.96609	47129.3375
2131.94018	47212.0375
2134.91236	47278.1375
2137.88263	47291.3375
2140.851	47337.2375
2143.81746	47374.8375
2146.78201	47338.2375
2149.74466	47401.2375
2152.7054	47340.8375
2155.66425	47233.0375
2158.6212	47199.2375
2161.57625	47138.8375
2164.52941	47156.3375
2167.48067	47234.3375
2170.43004	47200.5375
2173.37752	47181.0375
2176.32311	47090.3375
2179.26681	47117.9375
2182.20863	47046.9375
2185.14856	47067.0375
2188.08661	47053.8375
2191.02278	46977.8375
2193.95707	47004.7375
2196.88948	46959.6375
2199.82001	46903.9375
2202.74867	46839.7375
2205.67545	46734.7375
2208.60037	46680.9375
2211.52341	46630.1375
2214.44458	46580.6375
2217.36388	46446.9375
2220.28132	46359.1375
2223.1969	46173.3375
2226.11061	46118.9375
2229.02246	45940.2375
2231.93245	45940.6375
2234.84058	45925.4375
2237.74686	45837.4375
2240.65128	45776.3375
2243.55385	45673.4375
2246.45456	45645.5375
2249.35343	45553.9375
2252.25044	45441.0375
2255.14561	45373.5375
2258.03893	45394.2375
2260.93041	45246.6375
2263.82004	45129.3375
2266.70783	45100.2375
2269.59378	45067.0375
2272.4779	44992.8375
2275.36017	44882.5375
2278.24061	44824.5375
2281.11922	44742.0375
2283.996	44601.6375
2286.87094	44569.6375
2289.74405	44438.8375
2292.61534	44442.8375
2295.4848	44441.7375
2298.35243	44427.7375
2301.21824	44395.5375
2304.08223	44356.3375
2306.94439	44211.3375
2309.80474	44107.3375
2312.66327	44139.0375
2315.51999	44075.2375
2318.37489	44101.4375
2321.22797	44003.1375
2324.07925	43941.7375
2326.92871	43822.3375
2329.77637	43799.0375
2332.62222	43701.8375
2335.46626	43596.5375
2338.3085	43460.4375
2341.14893	43413.2375
2343.98756	43327.9375
2346.8244	43452.9375
2349.65943	43438.5375
2352.49267	43413.7375
2355.32411	43386.2375
2358.15376	43282.1375
2360.98161	43267.5375
2363.80768	43246.0375
2366.63195	43265.2375
2369.45444	43170.8375
2372.27514	43170.1375
2375.09405	43109.0375
2377.91118	42932.1375
2380.72652	42836.3375
2383.54009	42724.6375
2386.35187	42689.0375
2389.16188	42623.4375
2391.97011	42562.3375
2394.77657	42454.4375
2397.58125	42366.3375
2400.38416	42324.1375
2403.18529	42301.6375
2405.98466	42298.4375
2408.78226	42130.7375
2411.57809	42057.7375
2414.37216	41976.9375
2417.16446	41915.7375
2419.955	41857.8375
2422.74378	41853.2375
2425.5308	41765.8375
2428.31606	41747.1375
2431.09956	41728.7375
2433.88131	41619.2375
2436.6613	41589.6375
2439.43954	41618.0375
2442.21603	41590.2375
2444.99077	41506.9375
2447.76377	41459.6375
2450.53501	41395.6375
2453.30451	41425.6375
2456.07226	41337.8375
2458.83827	41287.6375
2461.60254	41306.3375
2464.36507	41229.1375
2467.12586	41137.2375
2469.88492	41101.7375
2472.64224	41114.2375
2475.39782	41031.4375
2478.15167	41065.2375
2480.90379	41025.6375
2483.65417	41056.7375
2486.40283	41016.9375
2489.14976	40998.4375
2491.89497	40985.9375
2494.63845	40932.4375
2497.3802	40908.8375
2500.12024	40910.3375
2502.85855	40792.0375
2505.59514	40774.6375
2508.33002	40647.4375
2511.06318	40607.3375
2513.79462	40504.5375
2516.52435	40412.7375
2519.25237	40467.5375
2521.97867	40410.2375
2524.70327	40389.3375
2527.42616	40319.9375
2530.14734	40266.4375
2532.86681	40170.0375
2535.58458	40130.3375
2538.30065	40109.4375
2541.01501	40109.9375
2543.72768	40037.0375
2546.43864	39954.4375
2549.14791	39840.2375
2551.85548	39766.6375
2554.56136	39679.8375
2557.26554	39648.0375
2559.96803	39552.3375
2562.66883	39417.7375
2565.36794	39363.4375
2568.06536	39356.1375
2570.7611	39280.8375
2573.45514	39104.7375
2576.14751	39077.0375
2578.83819	38991.1375
2581.52719	38918.3375
2584.21451	38857.1375
2586.90015	38775.0375
2589.58411	38770.5375
2592.2664	38709.5375
2594.94701	38658.3375
2597.62594	38622.1375
2600.30321	38537.5375
2602.9788	38501.3375
2605.65273	38346.6375
2608.32498	38283.2375
2610.99557	38228.0375
2613.66449	38205.3375
2616.33175	38167.0375
2618.99734	38132.4375
2621.66128	38104.7375
2624.32355	38036.3375
2626.98416	37896.0375
2629.64311	37784.5375
2632.30041	37775.1375
2634.95605	37740.1375
2637.61004	37701.5375
2640.26238	37671.4375
2642.91306	37622.6375
2645.56209	37603.0375
2648.20948	37576.4375
2650.85521	37500.7375
2653.4993	37480.8375
2656.14175	37470.8375
2658.78255	37527.2375
2661.42171	37508.5375
2664.05923	37543.8375
2666.6951	37520.0375
2669.32934	37539.8375
2671.96194	37452.2375
2674.59291	37442.6375
2677.22224	37342.1375
2679.84993	37394.2375
2682.476	37379.4375
2685.10043	37418.1375
2687.72324	37330.6375
2690.34441	37284.6375
2692.96396	37288.4375
2695.58188	37370.4375
2698.19818	37267.0375
2700.81285	37238.1375
2703.4259	37175.1375
2706.03733	37189.1375
2708.64714	37205.2375
2711.25533	37260.6375
2713.86191	37219.8375
2716.46687	37258.9375
2719.07021	37202.8375
2721.67194	37310.7375
2724.27206	37309.6375
2726.87057	37270.1375
2729.46747	37230.6375
2732.06276	37265.1375
2734.65644	37265.8375
2737.24852	37232.1375
2739.83899	37093.8375
2742.42786	37016.0375
2745.01513	36951.7375
2747.60079	36938.7375
2750.18486	36956.4375
2752.76733	36936.8375
2755.3482	36815.6375
2757.92747	36800.1375
2760.50515	36729.4375
2763.08123	36673.9375
2765.65573	36595.5375
2768.22863	36642.7375
2770.79994	36565.3375
2773.36967	36505.3375
2775.9378	36446.0375
2778.50435	36300.0375
2781.06932	36218.7375
2783.6327	36188.2375
2786.1945	36134.9375
2788.75471	36123.0375
2791.31335	36019.2375
2793.87041	35997.3375
2796.42589	35908.9375
2798.97979	35907.6375
2801.53212	35851.8375
2804.08288	35798.1375
2806.63206	35743.7375
2809.17967	35652.5375
2811.72571	35459.5375
2814.27018	35395.2375
2816.81308	35260.5375
2819.35442	35238.3375
2821.89419	35161.7375
2824.43239	35121.7375
2826.96904	35122.1375
2829.50412	35096.1375
2832.03763	34985.6375
2834.56959	34929.6375
2837.1	34883.3375
2839.62884	34792.1375
2842.15613	34735.5375
2844.68186	34722.9375
2847.20604	34649.3375
2849.72867	34684.8375
2852.24974	34651.9375
2854.76927	34609.6375
2857.28724	34538.5375
2859.80367	34482.5375
2862.31855	34414.2375
2864.83189	34340.8375
2867.34368	34273.5375
2869.85393	34209.0375
2872.36264	34158.0375
2874.8698	34093.7375
2877.37543	34040.0375
2879.87952	33982.3375
2882.38207	33979.0375
2884.88308	33965.4375
2887.38256	34021.2375
2889.88051	34016.4375
2892.37692	34013.8375
2894.8718	33945.0375
2897.36515	33962.6375
2899.85698	33965.2375
2902.34727	34007.7375
2904.83604	33995.4375
2907.32328	34065.3375
2909.809	34091.5375
2912.29319	34105.3375
2914.77587	34030.7375
2917.25702	34074.3375
2919.73665	33993.2375
2922.21476	34019.9375
2924.69136	33930.7375
2927.16644	33870.5375
2929.64	33810.6375
2932.11205	33774.0375
2934.58258	33639.3375
2937.05161	33613.6375
2939.51912	33629.4375
2941.98513	33585.7375
2944.44962	33537.8375
2946.91261	33511.1375
2949.37409	33616.1375
2951.83407	33609.8375
2954.29254	33593.4375
2956.74951	33556.6375
2959.20498	33583.5375
2961.65895	33482.9375
2964.11142	33562.3375
2966.56239	33550.1375
2969.01186	33493.1375
2971.45984	33404.8375
2973.90632	33437.4375
2976.35131	33380.5375
2978.7948	33360.3375
2981.23681	33262.5375
2983.67732	33264.3375
2986.11635	33187.8375
2988.55388	33064.8375
2990.98993	33026.7375
2993.4245	32906.9375
2995.85758	32841.3375
2998.28917	32755.4375
3000.71928	32675.1375
3003.14791	32585.7375
3005.57506	32515.5375
3008.00073	32368.6375
3010.42493	32417.7375
3012.84764	32276.1375
3015.26888	32270.8375
3017.68865	32254.2375
3020.10694	32131.4375
3022.52376	32070.9375
3024.9391	32105.1375
3027.35298	32063.2375
3029.76539	32046.3375
3032.17632	31975.9375
3034.5858	31931.2375
3036.9938	31938.1375
3039.40034	31801.1375
3041.80542	31821.6375
3044.20903	31717.5375
3046.61118	31684.5375
3049.01187	31581.3375
3051.4111	31589.9375
3053.80888	31557.6375
3056.20519	31486.4375
3058.60005	31429.4375
3060.99345	31352.1375
3063.3854	31225.0375
3065.7759	31178.2375
3068.16494	31068.2375
3070.55254	30997.0375
3072.93868	30918.5375
3075.32338	30814.4375
3077.70662	30757.9375
3080.08842	30656.4375
3082.46878	30692.6375
3084.84769	30704.4375
3087.22515	30701.9375
3089.60118	30618.9375
3091.97576	30590.9375
3094.3489	30579.2375
3096.72061	30553.1375
3099.09087	30557.5375
3101.4597	30471.8375
3103.82709	30534.4375
3106.19305	30472.9375
3108.55757	30447.0375
3110.92066	30443.7375
3113.28232	30437.3375
3115.64255	30334.5375
3118.00134	30258.3375
3120.35871	30199.8375
3122.71466	30104.7375
3125.06917	30006.8375
3127.42226	29907.3375
3129.77393	29971.7375
3132.12417	29877.3375
3134.47299	29861.1375
3136.82039	29762.4375
3139.16636	29685.6375
3141.51092	29698.0375
3143.85406	29754.3375
3146.19579	29730.7375
3148.53609	29755.8375
3150.87499	29780.5375
3153.21246	29749.7375
3155.54853	29795.8375
3157.88318	29700.2375
3160.21642	29700.5375
3162.54826	29710.6375
3164.87868	29761.4375
3167.2077	29763.6375
3169.5353	29741.1375
3171.86151	29672.3375
3174.18631	29589.8375
3176.5097	29538.5375
3178.83169	29511.6375
3181.15228	29531.4375
3183.47147	29423.4375
3185.78926	29348.0375
3188.10565	29318.4375
3190.42065	29272.8375
3192.73424	29243.2375
3195.04645	29166.8375
3197.35725	29150.6375
3199.66667	29157.9375
3201.97469	29151.9375
3204.28132	29074.4375
3206.58656	29158.6375
3208.8904	29147.6375
3211.19287	29091.6375
3213.49394	29102.6375
3215.79363	29064.1375
3218.09193	29122.3375
3220.38884	29110.3375
3222.68438	29134.8375
3224.97853	29077.4375
3227.2713	29050.5375
3229.56269	28987.1375
3231.8527	28953.1375
3234.14133	28949.6375
3236.42858	28905.6375
3238.71446	28854.2375
3240.99896	28751.2375
3243.28209	28695.3375
3245.56384	28594.1375
3247.84423	28537.8375
3250.12324	28478.4375
3252.40088	28528.1375
3254.67715	28524.3375
3256.95205	28464.8375
3259.22558	28483.0375
3261.49775	28414.5375
3263.76855	28446.3375
3266.03799	28394.2375
3268.30606	28295.7375
3270.57277	28252.7375
3272.83812	28221.4375
3275.10211	28142.0375
3277.36474	28081.1375
3279.62601	28048.6375
3281.88593	27996.0375
3284.14448	28036.1375
3286.40168	27985.6375
3288.65753	27903.4375
3290.91202	27921.3375
3293.16516	27905.9375
3295.41695	27862.4375
3297.66738	27691.9375
3299.91647	27556.9375
3302.16421	27365.8375
3304.4106	27299.6375
3306.65564	27087.2375
3308.89933	26898.2375
3311.14169	26741.5375
3313.38269	26541.9375
3315.62236	26415.9375
3317.86068	26234.4375
3320.09766	26095.7375
3322.3333	25886.4375
3324.5676	25745.0375
3326.80056	25371.5375
3329.03219	25261.4375
3331.26248	6.2375
3333.49143	0.0375
3335.71905	0.1375
