Data from AgNPs_UA_200uM_CRN_0uM_R6G_10uM_Q_RamanShift__22__14-25-34-163.txt Node

Date: Tue Jul 26 14:25:34 BST 2022
User: TCL
Spectrometer: QEP01345
Trigger mode: 4
Integration Time (sec): 7.000000E0
Scans to average: 10
Electric dark correction enabled: true
Nonlinearity correction enabled: false
Boxcar width: 0
XAxis mode: Raman Shifts
Number of Pixels in Spectrum: 1044
>>>>>Begin Spectral Data<<<<<
46.04893	0.4375
50.45542	-0.6625
54.85868	-0.3625
59.25871	0.6375
63.6555	44.0375
68.04907	46.9375
72.43941	49.7375
76.82654	52.1375
81.21044	56.3375
85.59113	60.7375
89.96862	59.4375
94.34289	61.7375
98.71396	63.7375
103.08183	67.7375
107.4465	69.6375
111.80798	67.0375
116.16626	66.4375
120.52136	68.4375
124.87327	67.6375
129.222	69.2375
133.56755	69.9375
137.90993	69.3375
142.24913	72.3375
146.58517	76.6375
150.91804	82.6375
155.24774	90.1375
159.57429	105.6375
163.89768	118.3375
168.21792	149.5375
172.53501	192.4375
176.84895	253.8375
181.15975	342.0375
185.46741	469.8375
189.77193	641.5375
194.07331	852.5375
198.37157	1081.8375
202.6667	1340.7375
206.9587	1585.4375
211.24758	1844.5375
215.53334	2108.0375
219.81599	2399.7375
224.09553	2723.7375
228.37195	3079.2375
232.64527	3462.9375
236.91549	3833.3375
241.18261	4160.4375
245.44663	4456.0375
249.70755	4680.6375
253.96539	4852.6375
258.22014	5023.2375
262.4718	5153.5375
266.72039	5224.6375
270.96589	5215.5375
275.20832	5182.5375
279.44768	5082.8375
283.68397	4971.5375
287.91719	4890.2375
292.14735	4886.4375
296.37445	4967.2375
300.59849	5093.4375
304.81948	5261.9375
309.03742	5382.7375
313.25231	5373.0375
317.46415	5193.8375
321.67296	4927.1375
325.87872	4704.5375
330.08145	4607.1375
334.28114	4628.4375
338.47781	4703.6375
342.67145	4810.7375
346.86207	4956.6375
351.04966	5181.0375
355.23424	5441.2375
359.4158	5649.3375
363.59435	5783.9375
367.76989	5844.0375
371.94243	5861.3375
376.11196	5862.4375
380.27849	5863.7375
384.44203	5838.8375
388.60257	5824.3375
392.76012	5806.1375
396.91468	5846.6375
401.06626	5949.3375
405.21485	6008.7375
409.36047	5913.0375
413.50311	5728.0375
417.64277	5512.3375
421.77947	5398.1375
425.9132	5340.9375
430.04396	5332.8375
434.17176	5369.9375
438.2966	5439.9375
442.41849	5520.3375
446.53742	5634.7375
450.6534	5740.5375
454.76644	5803.4375
458.87653	5843.9375
462.98368	5830.6375
467.08789	5813.7375
471.18916	5731.1375
475.2875	5668.2375
479.38291	5586.7375
483.4754	5575.1375
487.56496	5546.6375
491.6516	5572.8375
495.73531	5570.4375
499.81612	5566.6375
503.89401	5591.3375
507.96899	5615.0375
512.04106	5673.6375
516.11023	5755.7375
520.1765	5824.7375
524.23987	5846.5375
528.30034	5816.0375
532.35792	5804.6375
536.41261	5749.0375
540.46441	5675.4375
544.51333	5611.3375
548.55936	5627.6375
552.60252	5695.0375
556.64279	5754.9375
560.6802	5813.1375
564.71473	5897.9375
568.7464	6025.3375
572.7752	6072.9375
576.80114	5915.1375
580.82422	5768.6375
584.84444	5728.8375
588.86181	5789.3375
592.87633	5859.9375
596.888	5973.5375
600.89682	6173.1375
604.9028	6812.4375
608.90594	8362.9375
612.90624	9943.0375
616.90371	9311.6375
620.89834	7275.5375
624.89015	6475.8375
628.87913	6464.2375
632.86528	6603.4375
636.84862	6712.1375
640.82913	6574.6375
644.80683	6281.9375
648.78172	6042.8375
652.75379	5967.4375
656.72306	6070.2375
660.68952	6242.0375
664.65319	6186.5375
668.61405	5975.2375
672.57211	5911.4375
676.52738	5903.6375
680.47986	5879.7375
684.42955	5840.2375
688.37646	5851.9375
692.32058	5861.1375
696.26192	5870.8375
700.20048	5906.9375
704.13626	5904.6375
708.06928	5851.9375
711.99952	5819.6375
715.927	5819.2375
719.85171	5871.2375
723.77365	5891.7375
727.69284	5927.2375
731.60928	5897.9375
735.52295	5883.2375
739.43388	5865.9375
743.34206	5850.4375
747.24749	5867.6375
751.15017	5870.7375
755.05012	5913.5375
758.94733	6133.1375
762.8418	6642.5375
766.73354	7444.0375
770.62254	8190.9375
774.50882	8546.4375
778.39237	8237.4375
782.27321	7431.6375
786.15132	6671.2375
790.02671	6226.0375
793.89938	6034.1375
797.76935	5937.9375
801.6366	5939.8375
805.50115	5951.1375
809.36299	6002.8375
813.22213	6011.6375
817.07857	5978.5375
820.93231	5922.9375
824.78336	5876.8375
828.63172	5844.3375
832.47738	5830.7375
836.32036	5814.9375
840.16066	5831.6375
843.99827	5814.9375
847.8332	5820.6375
851.66546	5789.6375
855.49504	5804.2375
859.32195	5810.1375
863.1462	5784.3375
866.96777	5782.5375
870.78668	5790.8375
874.60293	5841.5375
878.41652	5884.5375
882.22745	5948.7375
886.03573	6026.7375
889.84136	6036.0375
893.64433	5983.8375
897.44466	5949.8375
901.24235	5887.0375
905.0374	5813.0375
908.8298	5771.4375
912.61957	5733.0375
916.40671	5732.5375
920.19121	5747.8375
923.97308	5798.3375
927.75233	5864.8375
931.52895	5915.6375
935.30295	5867.3375
939.07433	5784.0375
942.84309	5714.8375
946.60924	5669.1375
950.37278	5649.9375
954.13371	5615.4375
957.89203	5620.1375
961.64774	5581.3375
965.40086	5567.5375
969.15137	5549.6375
972.89929	5531.7375
976.64461	5525.4375
980.38733	5537.2375
984.12747	5556.4375
987.86502	5596.6375
991.59999	5658.6375
995.33237	5757.3375
999.06217	5913.8375
1002.78939	6071.1375
1006.51404	6165.9375
1010.23611	6230.8375
1013.95561	6299.1375
1017.67255	6319.5375
1021.38692	6318.9375
1025.09872	6283.8375
1028.80796	6356.7375
1032.51465	6508.7375
1036.21877	6581.7375
1039.92035	6552.6375
1043.61937	6443.3375
1047.31584	6306.6375
1051.00976	6157.2375
1054.70114	6097.1375
1058.38998	6068.6375
1062.07627	6071.6375
1065.76003	6082.6375
1069.44126	6106.4375
1073.11995	6145.2375
1076.79611	6214.0375
1080.46974	6289.9375
1084.14085	6410.7375
1087.80943	6491.3375
1091.47549	6513.0375
1095.13903	6396.9375
1098.80005	6256.0375
1102.45857	6206.4375
1106.11456	6214.0375
1109.76805	6303.6375
1113.41903	6434.4375
1117.06751	6619.4375
1120.71348	6885.4375
1124.35696	7173.4375
1127.99793	7398.0375
1131.63641	7388.9375
1135.2724	7207.2375
1138.90589	7024.4375
1142.5369	6822.3375
1146.16542	6601.1375
1149.79145	6460.8375
1153.415	6348.4375
1157.03607	6307.1375
1160.65467	6335.9375
1164.27079	6459.3375
1167.88443	6689.8375
1171.49561	7039.3375
1175.10432	7658.0375
1178.71056	8471.4375
1182.31434	9162.0375
1185.91565	9430.8375
1189.51451	9248.7375
1193.11091	8736.3375
1196.70485	8266.4375
1200.29634	7959.6375
1203.88538	7708.8375
1207.47197	7399.6375
1211.05612	7092.5375
1214.63782	6902.8375
1218.21708	6778.8375
1221.79391	6767.9375
1225.36829	6775.5375
1228.94024	6728.1375
1232.50976	6656.3375
1236.07685	6611.7375
1239.6415	6606.0375
1243.20374	6640.5375
1246.76355	6671.4375
1250.32093	6760.0375
1253.8759	6894.3375
1257.42845	7032.1375
1260.97859	7196.4375
1264.52631	7354.2375
1268.07163	7551.1375
1271.61453	7719.8375
1275.15503	7865.6375
1278.69312	7987.3375
1282.22882	8067.0375
1285.76211	8205.5375
1289.29301	8337.6375
1292.82151	8524.5375
1296.34761	8795.0375
1299.87133	9230.3375
1303.39266	9983.7375
1306.9116	11093.5375
1310.42815	12082.4375
1313.94233	12432.1375
1317.45412	11887.2375
1320.96354	11022.6375
1324.47058	10195.8375
1327.97525	9496.7375
1331.47754	9053.6375
1334.97747	8916.8375
1338.47502	8976.9375
1341.97022	9219.7375
1345.46305	9670.4375
1348.95352	10240.1375
1352.44163	10947.7375
1355.92738	11957.9375
1359.41078	13489.2375
1362.89183	14741.6375
1366.37053	14068.1375
1369.84688	11934.3375
1373.32088	10124.0375
1376.79254	9126.8375
1380.26186	8518.3375
1383.72883	8133.5375
1387.19347	7824.0375
1390.65578	7565.4375
1394.11575	7354.8375
1397.57339	7254.4375
1401.0287	7231.4375
1404.48168	7238.6375
1407.93234	7244.0375
1411.38068	7265.6375
1414.82669	7289.1375
1418.27039	7281.1375
1421.71177	7197.8375
1425.15083	7138.7375
1428.58758	7110.9375
1432.02203	7132.2375
1435.45416	7204.8375
1438.88399	7187.6375
1442.31151	7150.7375
1445.73673	7150.0375
1449.15965	7152.4375
1452.58027	7116.6375
1455.9986	7062.5375
1459.41463	7070.5375
1462.82837	7123.1375
1466.23982	7243.0375
1469.64898	7364.2375
1473.05586	7471.4375
1476.46045	7577.7375
1479.86276	7692.7375
1483.26279	7804.4375
1486.66054	7979.8375
1490.05602	8178.6375
1493.44922	8542.3375
1496.84016	9108.3375
1500.22882	9982.2375
1503.61521	11190.7375
1506.99934	12483.5375
1510.38121	13302.3375
1513.76081	13189.5375
1517.13816	12092.5375
1520.51324	10657.6375
1523.88607	9450.2375
1527.25665	8704.4375
1530.62498	8310.2375
1533.99105	8080.9375
1537.35488	7951.4375
1540.71647	7863.7375
1544.07581	7830.6375
1547.4329	7835.4375
1550.78776	7830.5375
1554.14038	7881.0375
1557.49077	7921.5375
1560.83892	7996.8375
1564.18484	8155.0375
1567.52853	8370.6375
1570.86999	8555.0375
1574.20922	8636.3375
1577.54624	8567.1375
1580.88103	8211.2375
1584.2136	7817.1375
1587.54395	7596.0375
1590.87208	7709.7375
1594.19801	8080.4375
1597.52172	8559.9375
1600.84321	8780.9375
1604.16251	8555.3375
1607.47959	8175.5375
1610.79447	7765.4375
1614.10715	7350.6375
1617.41763	7020.1375
1620.7259	6843.7375
1624.03199	6691.0375
1627.33587	6706.7375
1630.63757	6850.0375
1633.93707	7123.5375
1637.23439	7507.3375
1640.52951	8071.1375
1643.82246	8848.3375
1647.11321	9656.6375
1650.40179	10151.4375
1653.68819	9737.2375
1656.97241	8668.8375
1660.25446	7608.1375
1663.53433	6873.3375
1666.81203	6451.5375
1670.08756	6195.2375
1673.36092	6013.6375
1676.63211	5915.6375
1679.90115	5858.7375
1683.16801	5789.3375
1686.43272	5727.3375
1689.69527	5685.4375
1692.95567	5658.7375
1696.2139	5623.4375
1699.46999	5568.8375
1702.72392	5534.0375
1705.97571	5500.2375
1709.22535	5457.6375
1712.47284	5415.7375
1715.71819	5407.7375
1718.96139	5381.1375
1722.20246	5352.3375
1725.44139	5305.6375
1728.67818	5282.7375
1731.91284	5244.2375
1735.14537	5208.2375
1738.37576	5187.8375
1741.60403	5161.4375
1744.83017	5147.9375
1748.05418	5120.9375
1751.27607	5097.5375
1754.49584	5090.6375
1757.71349	5099.8375
1760.92903	5082.8375
1764.14244	5077.0375
1767.35375	5064.8375
1770.56294	5045.0375
1773.77002	5043.4375
1776.97499	5015.6375
1780.17785	5030.8375
1783.37861	5017.2375
1786.57727	5007.5375
1789.77382	4990.5375
1792.96828	4988.8375
1796.16064	4978.7375
1799.3509	4965.9375
1802.53907	4956.6375
1805.72514	4946.9375
1808.90913	4947.0375
1812.09102	4935.7375
1815.27083	4920.7375
1818.44856	4908.7375
1821.6242	4892.6375
1824.79776	4881.0375
1827.96924	4886.1375
1831.13864	4879.9375
1834.30597	4878.9375
1837.47122	4868.4375
1840.6344	4859.3375
1843.7955	4838.5375
1846.95454	4840.5375
1850.11151	4855.3375
1853.26642	4842.7375
1856.41926	4848.4375
1859.57004	4834.6375
1862.71876	4832.0375
1865.86542	4828.6375
1869.01003	4832.3375
1872.15258	4840.8375
1875.29308	4812.4375
1878.43152	4813.6375
1881.56792	4817.2375
1884.70227	4815.2375
1887.83457	4798.3375
1890.96482	4807.6375
1894.09304	4794.1375
1897.21921	4790.7375
1900.34335	4800.8375
1903.46544	4788.3375
1906.58551	4774.6375
1909.70353	4785.4375
1912.81953	4774.6375
1915.93349	4769.5375
1919.04543	4766.7375
1922.15534	4772.7375
1925.26322	4752.0375
1928.36908	4751.1375
1931.47292	4740.1375
1934.57473	4732.4375
1937.67453	4708.8375
1940.77232	4694.0375
1943.86808	4686.5375
1946.96184	4679.2375
1950.05358	4676.3375
1953.14331	4643.9375
1956.23103	4660.4375
1959.31675	4636.0375
1962.40046	4620.5375
1965.48217	4612.5375
1968.56188	4599.1375
1971.63959	4586.6375
1974.7153	4564.3375
1977.78901	4578.2375
1980.86073	4550.2375
1983.93046	4542.6375
1986.99819	4506.0375
1990.06394	4508.7375
1993.1277	4487.6375
1996.18947	4484.4375
1999.24925	4461.5375
2002.30706	4445.4375
2005.36288	4429.6375
2008.41672	4448.4375
2011.46859	4420.0375
2014.51848	4411.0375
2017.56639	4401.6375
2020.61233	4375.8375
2023.6563	4381.5375
2026.6983	4370.8375
2029.73833	4370.5375
2032.7764	4340.1375
2035.8125	4340.7375
2038.84664	4330.7375
2041.87881	4342.0375
2044.90903	4331.8375
2047.93729	4319.4375
2050.96359	4332.1375
2053.98794	4303.6375
2057.01034	4309.1375
2060.03078	4310.3375
2063.04927	4299.0375
2066.06582	4309.5375
2069.08042	4291.0375
2072.09307	4297.7375
2075.10378	4285.6375
2078.11255	4288.6375
2081.11938	4284.0375
2084.12426	4290.0375
2087.12722	4292.2375
2090.12824	4272.7375
2093.12732	4264.6375
2096.12447	4269.7375
2099.11969	4279.6375
2102.11299	4299.3375
2105.10435	4279.2375
2108.09379	4286.0375
2111.08131	4309.6375
2114.0669	4293.2375
2117.05057	4295.9375
2120.03233	4314.6375
2123.01216	4307.3375
2125.99008	4312.5375
2128.96609	4313.3375
2131.94018	4304.0375
2134.91236	4312.3375
2137.88263	4326.0375
2140.851	4331.6375
2143.81746	4329.4375
2146.78201	4335.2375
2149.74466	4339.5375
2152.7054	4329.3375
2155.66425	4326.2375
2158.6212	4329.5375
2161.57625	4334.4375
2164.52941	4327.1375
2167.48067	4323.2375
2170.43004	4312.4375
2173.37752	4308.8375
2176.32311	4329.9375
2179.26681	4327.5375
2182.20863	4325.0375
2185.14856	4326.9375
2188.08661	4332.0375
2191.02278	4334.0375
2193.95707	4330.5375
2196.88948	4327.6375
2199.82001	4315.0375
2202.74867	4319.6375
2205.67545	4323.5375
2208.60037	4320.4375
2211.52341	4310.0375
2214.44458	4315.1375
2217.36388	4298.6375
2220.28132	4304.0375
2223.1969	4285.7375
2226.11061	4286.9375
2229.02246	4255.8375
2231.93245	4260.0375
2234.84058	4246.0375
2237.74686	4255.1375
2240.65128	4249.7375
2243.55385	4245.3375
2246.45456	4242.1375
2249.35343	4242.7375
2252.25044	4232.2375
2255.14561	4226.0375
2258.03893	4218.3375
2260.93041	4213.6375
2263.82004	4225.5375
2266.70783	4211.9375
2269.59378	4192.5375
2272.4779	4180.0375
2275.36017	4164.2375
2278.24061	4175.6375
2281.11922	4165.6375
2283.996	4161.7375
2286.87094	4153.1375
2289.74405	4135.3375
2292.61534	4135.8375
2295.4848	4133.0375
2298.35243	4134.7375
2301.21824	4145.6375
2304.08223	4130.4375
2306.94439	4143.8375
2309.80474	4142.0375
2312.66327	4134.8375
2315.51999	4121.6375
2318.37489	4127.5375
2321.22797	4141.4375
2324.07925	4134.1375
2326.92871	4119.9375
2329.77637	4122.4375
2332.62222	4130.0375
2335.46626	4107.6375
2338.3085	4104.6375
2341.14893	4118.2375
2343.98756	4115.2375
2346.8244	4129.3375
2349.65943	4121.0375
2352.49267	4110.7375
2355.32411	4120.5375
2358.15376	4120.0375
2360.98161	4127.1375
2363.80768	4119.0375
2366.63195	4123.4375
2369.45444	4103.6375
2372.27514	4108.5375
2375.09405	4108.3375
2377.91118	4086.7375
2380.72652	4077.1375
2383.54009	4070.3375
2386.35187	4053.0375
2389.16188	4071.2375
2391.97011	4047.4375
2394.77657	4032.8375
2397.58125	4044.1375
2400.38416	4031.1375
2403.18529	4027.9375
2405.98466	4007.5375
2408.78226	4006.0375
2411.57809	3993.0375
2414.37216	4005.1375
2417.16446	3984.4375
2419.955	3974.0375
2422.74378	3968.3375
2425.5308	3959.6375
2428.31606	3963.4375
2431.09956	3971.1375
2433.88131	3964.8375
2436.6613	3966.5375
2439.43954	3962.3375
2442.21603	3967.5375
2444.99077	3941.7375
2447.76377	3961.8375
2450.53501	3958.9375
2453.30451	3956.5375
2456.07226	3955.2375
2458.83827	3942.8375
2461.60254	3945.0375
2464.36507	3947.3375
2467.12586	3926.2375
2469.88492	3939.1375
2472.64224	3945.4375
2475.39782	3938.5375
2478.15167	3939.0375
2480.90379	3953.4375
2483.65417	3955.3375
2486.40283	3961.0375
2489.14976	3951.7375
2491.89497	3960.0375
2494.63845	3970.9375
2497.3802	3959.7375
2500.12024	3963.8375
2502.85855	3960.3375
2505.59514	3940.5375
2508.33002	3939.1375
2511.06318	3931.9375
2513.79462	3914.1375
2516.52435	3909.6375
2519.25237	3909.6375
2521.97867	3888.7375
2524.70327	3905.8375
2527.42616	3879.1375
2530.14734	3884.0375
2532.86681	3885.7375
2535.58458	3901.9375
2538.30065	3877.6375
2541.01501	3896.6375
2543.72768	3871.5375
2546.43864	3876.0375
2549.14791	3876.5375
2551.85548	3870.4375
2554.56136	3861.0375
2557.26554	3854.6375
2559.96803	3867.9375
2562.66883	3835.3375
2565.36794	3854.0375
2568.06536	3837.5375
2570.7611	3843.3375
2573.45514	3844.9375
2576.14751	3821.7375
2578.83819	3817.9375
2581.52719	3826.5375
2584.21451	3812.8375
2586.90015	3827.1375
2589.58411	3811.9375
2592.2664	3814.5375
2594.94701	3818.1375
2597.62594	3814.1375
2600.30321	3803.5375
2602.9788	3789.6375
2605.65273	3778.2375
2608.32498	3792.0375
2610.99557	3794.6375
2613.66449	3809.3375
2616.33175	3792.1375
2618.99734	3803.9375
2621.66128	3793.8375
2624.32355	3801.1375
2626.98416	3799.5375
2629.64311	3798.9375
2632.30041	3783.5375
2634.95605	3783.3375
2637.61004	3775.6375
2640.26238	3765.9375
2642.91306	3780.1375
2645.56209	3775.9375
2648.20948	3773.6375
2650.85521	3760.6375
2653.4993	3765.5375
2656.14175	3757.8375
2658.78255	3760.6375
2661.42171	3758.8375
2664.05923	3771.0375
2666.6951	3761.8375
2669.32934	3763.4375
2671.96194	3774.2375
2674.59291	3774.3375
2677.22224	3779.9375
2679.84993	3777.7375
2682.476	3762.0375
2685.10043	3772.9375
2687.72324	3753.2375
2690.34441	3757.2375
2692.96396	3746.6375
2695.58188	3759.2375
2698.19818	3748.8375
2700.81285	3739.2375
2703.4259	3747.4375
2706.03733	3760.9375
2708.64714	3744.7375
2711.25533	3751.3375
2713.86191	3760.6375
2716.46687	3743.4375
2719.07021	3758.1375
2721.67194	3739.8375
2724.27206	3749.9375
2726.87057	3754.3375
2729.46747	3753.3375
2732.06276	3756.5375
2734.65644	3772.4375
2737.24852	3767.4375
2739.83899	3761.1375
2742.42786	3749.4375
2745.01513	3739.6375
2747.60079	3733.0375
2750.18486	3726.7375
2752.76733	3719.9375
2755.3482	3720.8375
2757.92747	3727.5375
2760.50515	3711.8375
2763.08123	3718.7375
2765.65573	3712.3375
2768.22863	3708.7375
2770.79994	3710.6375
2773.36967	3706.4375
2775.9378	3699.5375
2778.50435	3692.0375
2781.06932	3700.4375
2783.6327	3696.0375
2786.1945	3692.3375
2788.75471	3699.0375
2791.31335	3695.4375
2793.87041	3688.7375
2796.42589	3680.0375
2798.97979	3679.5375
2801.53212	3672.0375
2804.08288	3673.6375
2806.63206	3661.0375
2809.17967	3651.6375
2811.72571	3638.5375
2814.27018	3650.9375
2816.81308	3648.0375
2819.35442	3639.3375
2821.89419	3641.2375
2824.43239	3634.8375
2826.96904	3645.6375
2829.50412	3631.4375
2832.03763	3620.9375
2834.56959	3635.4375
2837.1	3624.2375
2839.62884	3618.4375
2842.15613	3612.2375
2844.68186	3619.6375
2847.20604	3611.7375
2849.72867	3624.1375
2852.24974	3617.7375
2854.76927	3621.6375
2857.28724	3611.6375
2859.80367	3613.3375
2862.31855	3603.0375
2864.83189	3618.2375
2867.34368	3603.3375
2869.85393	3604.1375
2872.36264	3607.4375
2874.8698	3590.3375
2877.37543	3593.4375
2879.87952	3610.6375
2882.38207	3596.1375
2884.88308	3614.7375
2887.38256	3609.0375
2889.88051	3604.7375
2892.37692	3609.5375
2894.8718	3604.5375
2897.36515	3606.3375
2899.85698	3615.1375
2902.34727	3634.7375
2904.83604	3624.8375
2907.32328	3630.8375
2909.809	3634.9375
2912.29319	3622.7375
2914.77587	3627.9375
2917.25702	3627.1375
2919.73665	3632.4375
2922.21476	3621.1375
2924.69136	3617.0375
2927.16644	3610.7375
2929.64	3621.9375
2932.11205	3609.0375
2934.58258	3602.4375
2937.05161	3609.3375
2939.51912	3605.8375
2941.98513	3612.5375
2944.44962	3598.0375
2946.91261	3607.8375
2949.37409	3611.7375
2951.83407	3606.8375
2954.29254	3600.4375
2956.74951	3600.5375
2959.20498	3610.6375
2961.65895	3605.5375
2964.11142	3600.7375
2966.56239	3603.7375
2969.01186	3597.0375
2971.45984	3599.1375
2973.90632	3605.1375
2976.35131	3592.6375
2978.7948	3590.9375
2981.23681	3569.8375
2983.67732	3589.2375
2986.11635	3558.7375
2988.55388	3564.5375
2990.98993	3548.4375
2993.4245	3539.0375
2995.85758	3552.3375
2998.28917	3524.1375
3000.71928	3532.0375
3003.14791	3533.3375
3005.57506	3524.7375
3008.00073	3526.7375
3010.42493	3523.4375
3012.84764	3523.8375
3015.26888	3531.5375
3017.68865	3508.6375
3020.10694	3515.2375
3022.52376	3505.4375
3024.9391	3507.2375
3027.35298	3503.6375
3029.76539	3500.8375
3032.17632	3503.9375
3034.5858	3490.5375
3036.9938	3495.7375
3039.40034	3484.9375
3041.80542	3503.3375
3044.20903	3487.2375
3046.61118	3497.3375
3049.01187	3488.3375
3051.4111	3477.5375
3053.80888	3501.5375
3056.20519	3477.0375
3058.60005	3454.9375
3060.99345	3457.9375
3063.3854	3474.8375
3065.7759	3450.7375
3068.16494	3463.5375
3070.55254	3447.5375
3072.93868	3432.8375
3075.32338	3447.5375
3077.70662	3448.3375
3080.08842	3436.6375
3082.46878	3447.9375
3084.84769	3434.2375
3087.22515	3446.9375
3089.60118	3446.4375
3091.97576	3441.8375
3094.3489	3448.7375
3096.72061	3468.5375
3099.09087	3478.1375
3101.4597	3470.4375
3103.82709	3467.5375
3106.19305	3477.9375
3108.55757	3472.0375
3110.92066	3464.1375
3113.28232	3489.9375
3115.64255	3470.0375
3118.00134	3475.9375
3120.35871	3485.8375
3122.71466	3472.9375
3125.06917	3481.8375
3127.42226	3468.4375
3129.77393	3474.1375
3132.12417	3478.6375
3134.47299	3467.8375
3136.82039	3492.6375
3139.16636	3486.8375
3141.51092	3495.7375
3143.85406	3494.9375
3146.19579	3500.8375
3148.53609	3513.7375
3150.87499	3518.0375
3153.21246	3523.9375
3155.54853	3554.8375
3157.88318	3547.6375
3160.21642	3556.1375
3162.54826	3558.0375
3164.87868	3560.7375
3167.2077	3556.4375
3169.5353	3571.2375
3171.86151	3571.7375
3174.18631	3587.5375
3176.5097	3574.5375
3178.83169	3593.3375
3181.15228	3581.1375
3183.47147	3571.2375
3185.78926	3588.6375
3188.10565	3573.1375
3190.42065	3583.7375
3192.73424	3607.6375
3195.04645	3588.4375
3197.35725	3596.4375
3199.66667	3596.3375
3201.97469	3607.8375
3204.28132	3622.5375
3206.58656	3622.4375
3208.8904	3633.2375
3211.19287	3635.0375
3213.49394	3642.6375
3215.79363	3624.0375
3218.09193	3651.6375
3220.38884	3648.7375
3222.68438	3652.0375
3224.97853	3647.8375
3227.2713	3672.6375
3229.56269	3656.5375
3231.8527	3672.9375
3234.14133	3654.7375
3236.42858	3671.1375
3238.71446	3644.6375
3240.99896	3632.7375
3243.28209	3651.5375
3245.56384	3651.4375
3247.84423	3634.2375
3250.12324	3636.0375
3252.40088	3630.5375
3254.67715	3642.8375
3256.95205	3645.0375
3259.22558	3659.5375
3261.49775	3652.1375
3263.76855	3639.3375
3266.03799	3646.4375
3268.30606	3651.8375
3270.57277	3634.8375
3272.83812	3648.1375
3275.10211	3629.0375
3277.36474	3626.8375
3279.62601	3627.7375
3281.88593	3628.2375
3284.14448	3623.2375
3286.40168	3623.4375
3288.65753	3624.6375
3290.91202	3642.6375
3293.16516	3612.6375
3295.41695	3598.7375
3297.66738	3610.1375
3299.91647	3588.7375
3302.16421	3565.6375
3304.4106	3555.4375
3306.65564	3529.4375
3308.89933	3504.2375
3311.14169	3491.6375
3313.38269	3452.3375
3315.62236	3454.5375
3317.86068	3416.5375
3320.09766	3403.8375
3322.3333	3368.4375
3324.5676	3372.5375
3326.80056	3313.8375
3329.03219	3302.9375
3331.26248	0.2375
3333.49143	0.8375
3335.71905	-0.0625
