Data from AgNPs_UA_200uM_CRN_0uM_R6G_10uM_Q_RamanShift__4__14-04-34-138.txt Node

Date: Tue Jul 26 14:04:34 BST 2022
User: TCL
Spectrometer: QEP01345
Trigger mode: 4
Integration Time (sec): 7.000000E0
Scans to average: 10
Electric dark correction enabled: true
Nonlinearity correction enabled: false
Boxcar width: 0
XAxis mode: Raman Shifts
Number of Pixels in Spectrum: 1044
>>>>>Begin Spectral Data<<<<<
46.04893	-1.1
50.45542	-0.6
54.85868	-0.9
59.25871	1.9
63.6555	46.7
68.04907	49.5
72.43941	56.5
76.82654	54.4
81.21044	61.8
85.59113	63
89.96862	64.2
94.34289	68
98.71396	69.6
103.08183	71.4
107.4465	74.3
111.80798	72.2
116.16626	69.9
120.52136	73.8
124.87327	76.4
129.222	78.1
133.56755	74.8
137.90993	74.3
142.24913	82.5
146.58517	83.2
150.91804	86.9
155.24774	97.5
159.57429	112.6
163.89768	128.3
168.21792	159.7
172.53501	202.5
176.84895	272.5
181.15975	375.4
185.46741	508.3
189.77193	696.9
194.07331	916.8
198.37157	1170.9
202.6667	1447.1
206.9587	1701.5
211.24758	1969.2
215.53334	2234.4
219.81599	2515.9
224.09553	2829.8
228.37195	3141.4
232.64527	3512.3
236.91549	3898.2
241.18261	4290.4
245.44663	4644.9
249.70755	4976.4
253.96539	5280
258.22014	5497.2
262.4718	5684.3
266.72039	5802.4
270.96589	5841
275.20832	5859.5
279.44768	5785.9
283.68397	5718.4
287.91719	5636.1
292.14735	5597.4
296.37445	5572.4
300.59849	5598.9
304.81948	5623.8
309.03742	5655.4
313.25231	5643.8
317.46415	5583.9
321.67296	5498.1
325.87872	5411.5
330.08145	5406.1
334.28114	5407.9
338.47781	5495
342.67145	5537.5
346.86207	5661.7
351.04966	5781.6
355.23424	5893.2
359.4158	6018.3
363.59435	6101.7
367.76989	6174.4
371.94243	6230.1
376.11196	6277.6
380.27849	6337.2
384.44203	6395.5
388.60257	6419.4
392.76012	6469.1
396.91468	6515.4
401.06626	6586.3
405.21485	6648.7
409.36047	6628.4
413.50311	6560.5
417.64277	6488.5
421.77947	6474.5
425.9132	6475.9
430.04396	6523.5
434.17176	6538.9
438.2966	6614.9
442.41849	6678
446.53742	6752.1
450.6534	6836.5
454.76644	6909.5
458.87653	6938.5
462.98368	6943.2
467.08789	6922
471.18916	6936.3
475.2875	6883
479.38291	6875
483.4754	6860.2
487.56496	6880.2
491.6516	6901.7
495.73531	6927
499.81612	6929
503.89401	6974.8
507.96899	6991.4
512.04106	6998.9
516.11023	7035.3
520.1765	7078.5
524.23987	7083.3
528.30034	7121.5
532.35792	7107.2
536.41261	7091.9
540.46441	7079.5
544.51333	7047.3
548.55936	7057.7
552.60252	7091.8
556.64279	7140.3
560.6802	7170.3
564.71473	7179.5
568.7464	7239.6
572.7752	7251.3
576.80114	7237.7
580.82422	7208.9
584.84444	7249.3
588.86181	7307.7
592.87633	7355.9
596.888	7406.5
600.89682	7545.8
604.9028	7834.6
608.90594	8483.4
612.90624	9195.2
616.90371	8892.7
620.89834	7984.5
624.89015	7599.6
628.87913	7632.4
632.86528	7773.8
636.84862	7886.7
640.82913	7872.5
644.80683	7736.2
648.78172	7601.6
652.75379	7520.5
656.72306	7551
660.68952	7579.7
664.65319	7567.6
668.61405	7456.6
672.57211	7414.5
676.52738	7430.7
680.47986	7416.8
684.42955	7413.4
688.37646	7420.9
692.32058	7450.2
696.26192	7459.9
700.20048	7475
704.13626	7532.8
708.06928	7535.4
711.99952	7512.7
715.927	7526.5
719.85171	7548.8
723.77365	7585.7
727.69284	7599.1
731.60928	7619.7
735.52295	7613.1
739.43388	7582.3
743.34206	7577.9
747.24749	7591.6
751.15017	7586.7
755.05012	7610.6
758.94733	7717.5
762.8418	7949
766.73354	8309
770.62254	8705.9
774.50882	8896.2
778.39237	8739.4
782.27321	8330.6
786.15132	7987.5
790.02671	7762.6
793.89938	7672.2
797.76935	7593
801.6366	7607.5
805.50115	7622.5
809.36299	7667.8
813.22213	7677.4
817.07857	7715.7
820.93231	7679.5
824.78336	7625.7
828.63172	7601
832.47738	7591.4
836.32036	7598.3
840.16066	7584.2
843.99827	7582.4
847.8332	7578.6
851.66546	7594.6
855.49504	7599.3
859.32195	7622.5
863.1462	7615.3
866.96777	7636.5
870.78668	7662.5
874.60293	7702.2
878.41652	7729.5
882.22745	7777.5
886.03573	7832.1
889.84136	7846.8
893.64433	7811.2
897.44466	7805.3
901.24235	7759.9
905.0374	7713.5
908.8298	7670
912.61957	7661.6
916.40671	7655.5
920.19121	7622.7
923.97308	7645.8
927.75233	7649.3
931.52895	7663.7
935.30295	7651.9
939.07433	7615.8
942.84309	7574.2
946.60924	7529.2
950.37278	7531.4
954.13371	7515.8
957.89203	7494.8
961.64774	7501.7
965.40086	7494.5
969.15137	7497.8
972.89929	7466.8
976.64461	7440.3
980.38733	7466.6
984.12747	7468
987.86502	7503.1
991.59999	7543.1
995.33237	7584.8
999.06217	7619.6
1002.78939	7701
1006.51404	7733.7
1010.23611	7807.7
1013.95561	7852.6
1017.67255	7859.2
1021.38692	7847.9
1025.09872	7838.7
1028.80796	7791.8
1032.51465	7775.2
1036.21877	7780.3
1039.92035	7756.7
1043.61937	7775
1047.31584	7764.1
1051.00976	7785.2
1054.70114	7780.4
1058.38998	7789.5
1062.07627	7810.3
1065.76003	7841.5
1069.44126	7881.4
1073.11995	7951.1
1076.79611	8004.8
1080.46974	8069.3
1084.14085	8067.2
1087.80943	8112
1091.47549	8104
1095.13903	8056.7
1098.80005	7992.9
1102.45857	7955.8
1106.11456	7935.1
1109.76805	7957.9
1113.41903	8019.7
1117.06751	8084
1120.71348	8210.5
1124.35696	8371.6
1127.99793	8533.3
1131.63641	8580.9
1135.2724	8550.2
1138.90589	8439.4
1142.5369	8354.4
1146.16542	8211.7
1149.79145	8111.4
1153.415	7995.2
1157.03607	7916.6
1160.65467	7937.2
1164.27079	7994.7
1167.88443	8099.8
1171.49561	8280.7
1175.10432	8557.1
1178.71056	8954.1
1182.31434	9304.4
1185.91565	9484.9
1189.51451	9486
1193.11091	9377
1196.70485	9197.5
1200.29634	9057.1
1203.88538	8899.6
1207.47197	8757.1
1211.05612	8572.8
1214.63782	8445.1
1218.21708	8362.1
1221.79391	8291.1
1225.36829	8238.3
1228.94024	8214.9
1232.50976	8215.6
1236.07685	8208.5
1239.6415	8217.1
1243.20374	8272.9
1246.76355	8274.4
1250.32093	8342.4
1253.8759	8345.5
1257.42845	8454.4
1260.97859	8541.9
1264.52631	8663.9
1268.07163	8740.9
1271.61453	8772.5
1275.15503	8844.2
1278.69312	8858.1
1282.22882	8855.7
1285.76211	8892.8
1289.29301	8961.3
1292.82151	9070.1
1296.34761	9205.1
1299.87133	9383.7
1303.39266	9667.8
1306.9116	10087.1
1310.42815	10438.9
1313.94233	10559.5
1317.45412	10427.7
1320.96354	10193.4
1324.47058	9896.5
1327.97525	9601.8
1331.47754	9406.6
1334.97747	9367.7
1338.47502	9408.3
1341.97022	9518.9
1345.46305	9724.6
1348.95352	10000.7
1352.44163	10347.3
1355.92738	10758.2
1359.41078	11364.1
1362.89183	11870.9
1366.37053	11651.6
1369.84688	10749.5
1373.32088	9890.5
1376.79254	9340
1380.26186	9002.9
1383.72883	8774.2
1387.19347	8602.7
1390.65578	8435.5
1394.11575	8289.1
1397.57339	8182.1
1401.0287	8098.1
1404.48168	8095.1
1407.93234	8056.5
1411.38068	8081.7
1414.82669	8081.2
1418.27039	8079
1421.71177	8049.3
1425.15083	8015
1428.58758	7958.3
1432.02203	7961.1
1435.45416	7985.5
1438.88399	7978.6
1442.31151	7977.1
1445.73673	7985.9
1449.15965	7983
1452.58027	7958.4
1455.9986	7962.9
1459.41463	7951.4
1462.82837	8004.1
1466.23982	8093.5
1469.64898	8177.1
1473.05586	8269.8
1476.46045	8337.4
1479.86276	8395.2
1483.26279	8468.4
1486.66054	8545.7
1490.05602	8667.5
1493.44922	8886.6
1496.84016	9215.1
1500.22882	9629.4
1503.61521	10232.6
1506.99934	10795.1
1510.38121	11133.5
1513.76081	11034
1517.13816	10546.3
1520.51324	9903.1
1523.88607	9391.7
1527.25665	9065.7
1530.62498	8925
1533.99105	8839.6
1537.35488	8785.3
1540.71647	8750.1
1544.07581	8715.7
1547.4329	8703
1550.78776	8694.3
1554.14038	8680.7
1557.49077	8683.7
1560.83892	8690
1564.18484	8783.4
1567.52853	8886.3
1570.86999	8988
1574.20922	9046.4
1577.54624	9053.2
1580.88103	8886
1584.2136	8654.7
1587.54395	8558.8
1590.87208	8529.9
1594.19801	8668.6
1597.52172	8813
1600.84321	8918.9
1604.16251	8867.3
1607.47959	8746.2
1610.79447	8577.5
1614.10715	8397.7
1617.41763	8222.1
1620.7259	8075.7
1624.03199	7948.4
1627.33587	7888.8
1630.63757	7910.9
1633.93707	7998.1
1637.23439	8173.2
1640.52951	8454.1
1643.82246	8853
1647.11321	9265.6
1650.40179	9529.4
1653.68819	9386.2
1656.97241	8897.5
1660.25446	8380.7
1663.53433	8029.6
1666.81203	7799.4
1670.08756	7650.9
1673.36092	7541.5
1676.63211	7490.8
1679.90115	7452.1
1683.16801	7407.6
1686.43272	7339
1689.69527	7304.1
1692.95567	7296.9
1696.2139	7276.6
1699.46999	7234.8
1702.72392	7223.5
1705.97571	7175.9
1709.22535	7153.1
1712.47284	7111.7
1715.71819	7093.7
1718.96139	7061.9
1722.20246	7025.7
1725.44139	6999.7
1728.67818	6951.9
1731.91284	6937
1735.14537	6901.8
1738.37576	6878.1
1741.60403	6881.6
1744.83017	6856.9
1748.05418	6824.6
1751.27607	6834.3
1754.49584	6795.1
1757.71349	6822.2
1760.92903	6806.7
1764.14244	6782.6
1767.35375	6795
1770.56294	6761.5
1773.77002	6774.7
1776.97499	6769.1
1780.17785	6767.3
1783.37861	6765.7
1786.57727	6732.1
1789.77382	6738.1
1792.96828	6732.3
1796.16064	6737.6
1799.3509	6709.6
1802.53907	6713.8
1805.72514	6696.3
1808.90913	6685.9
1812.09102	6667.1
1815.27083	6680.5
1818.44856	6641.6
1821.6242	6632.8
1824.79776	6630.5
1827.96924	6606.3
1831.13864	6628.6
1834.30597	6608.1
1837.47122	6604.4
1840.6344	6604.6
1843.7955	6585.3
1846.95454	6600.9
1850.11151	6595.2
1853.26642	6580.9
1856.41926	6566.4
1859.57004	6577.9
1862.71876	6561.9
1865.86542	6559.3
1869.01003	6571.2
1872.15258	6558.1
1875.29308	6548
1878.43152	6546.8
1881.56792	6533.9
1884.70227	6526.8
1887.83457	6513.2
1890.96482	6492.7
1894.09304	6492.7
1897.21921	6493.3
1900.34335	6506.1
1903.46544	6476.9
1906.58551	6478.1
1909.70353	6475.1
1912.81953	6470.9
1915.93349	6453.5
1919.04543	6456.6
1922.15534	6441.1
1925.26322	6437.9
1928.36908	6417.3
1931.47292	6409.7
1934.57473	6423.9
1937.67453	6388.3
1940.77232	6369.2
1943.86808	6350
1946.96184	6363.3
1950.05358	6311.1
1953.14331	6317.3
1956.23103	6286.5
1959.31675	6294.3
1962.40046	6259.7
1965.48217	6262.1
1968.56188	6239.5
1971.63959	6193.5
1974.7153	6181.4
1977.78901	6166.1
1980.86073	6155
1983.93046	6154.6
1986.99819	6133
1990.06394	6095
1993.1277	6108.4
1996.18947	6075
1999.24925	6050.2
2002.30706	6055.8
2005.36288	6040.2
2008.41672	6030.7
2011.46859	6017.5
2014.51848	5984.7
2017.56639	5972
2020.61233	5950.1
2023.6563	5963.9
2026.6983	5909.4
2029.73833	5924.3
2032.7764	5915.3
2035.8125	5878.1
2038.84664	5879.1
2041.87881	5893.9
2044.90903	5860.8
2047.93729	5848.1
2050.96359	5862.3
2053.98794	5832.7
2057.01034	5844.7
2060.03078	5818.5
2063.04927	5841.6
2066.06582	5814.3
2069.08042	5804.3
2072.09307	5823.8
2075.10378	5804.8
2078.11255	5820
2081.11938	5811.8
2084.12426	5825.8
2087.12722	5814.9
2090.12824	5813
2093.12732	5817.5
2096.12447	5812.7
2099.11969	5812.8
2102.11299	5820.2
2105.10435	5809.2
2108.09379	5818.6
2111.08131	5810.2
2114.0669	5831.8
2117.05057	5822.9
2120.03233	5844.1
2123.01216	5849
2125.99008	5858.9
2128.96609	5845.3
2131.94018	5846.9
2134.91236	5845.1
2137.88263	5848.6
2140.851	5870.1
2143.81746	5866.6
2146.78201	5875.9
2149.74466	5878.4
2152.7054	5869.8
2155.66425	5872.6
2158.6212	5861.5
2161.57625	5871.6
2164.52941	5858
2167.48067	5870.1
2170.43004	5872.9
2173.37752	5872.7
2176.32311	5878.8
2179.26681	5848.4
2182.20863	5855.1
2185.14856	5881.3
2188.08661	5871.1
2191.02278	5857
2193.95707	5853.1
2196.88948	5860.1
2199.82001	5861
2202.74867	5837.9
2205.67545	5843.3
2208.60037	5837.7
2211.52341	5807.7
2214.44458	5829.1
2217.36388	5806.1
2220.28132	5771.6
2223.1969	5758.8
2226.11061	5769.1
2229.02246	5756.2
2231.93245	5746
2234.84058	5755.3
2237.74686	5729.4
2240.65128	5737.2
2243.55385	5736
2246.45456	5718
2249.35343	5720.7
2252.25044	5713.7
2255.14561	5712.6
2258.03893	5702.9
2260.93041	5694.5
2263.82004	5669.1
2266.70783	5667.9
2269.59378	5649.2
2272.4779	5651.5
2275.36017	5649.3
2278.24061	5630.8
2281.11922	5632.5
2283.996	5597.8
2286.87094	5612.8
2289.74405	5587.3
2292.61534	5563.7
2295.4848	5569.1
2298.35243	5582.2
2301.21824	5561.4
2304.08223	5580.4
2306.94439	5548.8
2309.80474	5537
2312.66327	5539.4
2315.51999	5538.4
2318.37489	5532.6
2321.22797	5526.9
2324.07925	5523
2326.92871	5510.3
2329.77637	5508.6
2332.62222	5496.6
2335.46626	5487
2338.3085	5476.2
2341.14893	5464.9
2343.98756	5453.1
2346.8244	5481.1
2349.65943	5471.2
2352.49267	5461.9
2355.32411	5474.9
2358.15376	5458.4
2360.98161	5464.7
2363.80768	5450.6
2366.63195	5456.8
2369.45444	5438.2
2372.27514	5439.6
2375.09405	5421.1
2377.91118	5421.3
2380.72652	5415.6
2383.54009	5401.2
2386.35187	5397.8
2389.16188	5388
2391.97011	5369.4
2394.77657	5362.1
2397.58125	5366.4
2400.38416	5354.3
2403.18529	5334.4
2405.98466	5332.2
2408.78226	5327.4
2411.57809	5308.9
2414.37216	5310.8
2417.16446	5327.4
2419.955	5311.2
2422.74378	5287.1
2425.5308	5306.2
2428.31606	5283.4
2431.09956	5282.5
2433.88131	5280.5
2436.6613	5281.6
2439.43954	5268.3
2442.21603	5272.3
2444.99077	5297.9
2447.76377	5278.3
2450.53501	5257.2
2453.30451	5251.3
2456.07226	5234.5
2458.83827	5238.1
2461.60254	5237.6
2464.36507	5236.3
2467.12586	5220.3
2469.88492	5219.1
2472.64224	5229.6
2475.39782	5221.4
2478.15167	5217.5
2480.90379	5207.3
2483.65417	5218.7
2486.40283	5211.3
2489.14976	5221.5
2491.89497	5208.6
2494.63845	5211.9
2497.3802	5207.8
2500.12024	5192.4
2502.85855	5201.6
2505.59514	5192.8
2508.33002	5180.4
2511.06318	5167.4
2513.79462	5153.8
2516.52435	5145.2
2519.25237	5144.5
2521.97867	5136.2
2524.70327	5143.1
2527.42616	5111.7
2530.14734	5136.1
2532.86681	5125.9
2535.58458	5127.1
2538.30065	5106
2541.01501	5104.7
2543.72768	5085.9
2546.43864	5078.6
2549.14791	5070.3
2551.85548	5085
2554.56136	5067.4
2557.26554	5046.4
2559.96803	5054.5
2562.66883	5033.6
2565.36794	5035.8
2568.06536	5019.2
2570.7611	5005.1
2573.45514	4986.6
2576.14751	5002.6
2578.83819	4974.2
2581.52719	4967.9
2584.21451	4975.6
2586.90015	4967.9
2589.58411	4967.6
2592.2664	4958.8
2594.94701	4948.9
2597.62594	4931.7
2600.30321	4932.4
2602.9788	4915.5
2605.65273	4902.2
2608.32498	4934.8
2610.99557	4901.1
2613.66449	4909.9
2616.33175	4897.4
2618.99734	4895.3
2621.66128	4882.2
2624.32355	4880.3
2626.98416	4872.2
2629.64311	4859.7
2632.30041	4848.9
2634.95605	4841.2
2637.61004	4847.9
2640.26238	4824.6
2642.91306	4840
2645.56209	4821.4
2648.20948	4821.9
2650.85521	4822.9
2653.4993	4817.1
2656.14175	4818.3
2658.78255	4833.6
2661.42171	4835.2
2664.05923	4839
2666.6951	4815.5
2669.32934	4831
2671.96194	4830
2674.59291	4823.9
2677.22224	4827.6
2679.84993	4836.3
2682.476	4824.2
2685.10043	4832.8
2687.72324	4828.2
2690.34441	4815.9
2692.96396	4833
2695.58188	4821
2698.19818	4806
2700.81285	4810.1
2703.4259	4797.9
2706.03733	4805.6
2708.64714	4809
2711.25533	4800.4
2713.86191	4818.2
2716.46687	4832.6
2719.07021	4826.8
2721.67194	4800.7
2724.27206	4809.1
2726.87057	4823.1
2729.46747	4840.1
2732.06276	4831.6
2734.65644	4815.7
2737.24852	4828.3
2739.83899	4819.1
2742.42786	4799.4
2745.01513	4794.4
2747.60079	4806.2
2750.18486	4800.4
2752.76733	4770.5
2755.3482	4757.9
2757.92747	4766
2760.50515	4755.4
2763.08123	4768.6
2765.65573	4742.5
2768.22863	4742.6
2770.79994	4737.3
2773.36967	4732.2
2775.9378	4732.9
2778.50435	4716.7
2781.06932	4711.8
2783.6327	4715.9
2786.1945	4720.6
2788.75471	4721
2791.31335	4683.4
2793.87041	4699.8
2796.42589	4688.5
2798.97979	4676.1
2801.53212	4662.1
2804.08288	4653.3
2806.63206	4658.1
2809.17967	4631.6
2811.72571	4618.8
2814.27018	4614
2816.81308	4611
2819.35442	4606
2821.89419	4578.7
2824.43239	4595.2
2826.96904	4583.8
2829.50412	4582.1
2832.03763	4571.5
2834.56959	4568.9
2837.1	4588.5
2839.62884	4551.9
2842.15613	4543.9
2844.68186	4543.5
2847.20604	4548.5
2849.72867	4553.7
2852.24974	4549.8
2854.76927	4538.2
2857.28724	4526.9
2859.80367	4532.8
2862.31855	4533.6
2864.83189	4514.8
2867.34368	4503.9
2869.85393	4511.2
2872.36264	4499
2874.8698	4502.3
2877.37543	4501.3
2879.87952	4510.8
2882.38207	4513.7
2884.88308	4487.9
2887.38256	4510.1
2889.88051	4500.7
2892.37692	4511.6
2894.8718	4494.6
2897.36515	4517.7
2899.85698	4504.6
2902.34727	4534.1
2904.83604	4505.6
2907.32328	4534
2909.809	4529.9
2912.29319	4528.2
2914.77587	4534.6
2917.25702	4530.7
2919.73665	4517
2922.21476	4536.7
2924.69136	4514.7
2927.16644	4525.6
2929.64	4511.5
2932.11205	4508
2934.58258	4493.3
2937.05161	4517.4
2939.51912	4496.7
2941.98513	4505.5
2944.44962	4480.4
2946.91261	4481.9
2949.37409	4492.1
2951.83407	4485.2
2954.29254	4491.6
2956.74951	4481.3
2959.20498	4479.8
2961.65895	4490.1
2964.11142	4496.4
2966.56239	4484.7
2969.01186	4492.6
2971.45984	4473.9
2973.90632	4486
2976.35131	4496.3
2978.7948	4475.7
2981.23681	4468.4
2983.67732	4466.3
2986.11635	4464.6
2988.55388	4472
2990.98993	4435.1
2993.4245	4441.3
2995.85758	4420.1
2998.28917	4426.2
3000.71928	4411.6
3003.14791	4399.7
3005.57506	4410.7
3008.00073	4391
3010.42493	4396.1
3012.84764	4381.8
3015.26888	4382.3
3017.68865	4371.2
3020.10694	4381
3022.52376	4373.2
3024.9391	4382.6
3027.35298	4365.5
3029.76539	4362.5
3032.17632	4368.7
3034.5858	4362.8
3036.9938	4379.7
3039.40034	4356.6
3041.80542	4351.8
3044.20903	4358.7
3046.61118	4356.5
3049.01187	4336.3
3051.4111	4350.8
3053.80888	4348
3056.20519	4333
3058.60005	4323.4
3060.99345	4319.5
3063.3854	4327.4
3065.7759	4309.2
3068.16494	4307
3070.55254	4303.5
3072.93868	4297.7
3075.32338	4290.9
3077.70662	4287.9
3080.08842	4285.9
3082.46878	4293.7
3084.84769	4298.3
3087.22515	4292.4
3089.60118	4290.2
3091.97576	4282.9
3094.3489	4310.8
3096.72061	4301.3
3099.09087	4314.5
3101.4597	4317.5
3103.82709	4316
3106.19305	4308.1
3108.55757	4330.5
3110.92066	4315.7
3113.28232	4325.8
3115.64255	4307.3
3118.00134	4320.6
3120.35871	4312.4
3122.71466	4312.9
3125.06917	4317.2
3127.42226	4296.3
3129.77393	4311.5
3132.12417	4300.1
3134.47299	4292.8
3136.82039	4309.5
3139.16636	4311.9
3141.51092	4318.3
3143.85406	4311.9
3146.19579	4312.4
3148.53609	4338.3
3150.87499	4342.2
3153.21246	4349.2
3155.54853	4362.5
3157.88318	4371.6
3160.21642	4378.5
3162.54826	4375.3
3164.87868	4375.3
3167.2077	4385.7
3169.5353	4393
3171.86151	4408.3
3174.18631	4399.4
3176.5097	4404.6
3178.83169	4395.6
3181.15228	4400.9
3183.47147	4395.1
3185.78926	4393.3
3188.10565	4364
3190.42065	4404.3
3192.73424	4400.1
3195.04645	4403.5
3197.35725	4399.3
3199.66667	4403.4
3201.97469	4409.2
3204.28132	4399.8
3206.58656	4416
3208.8904	4422.1
3211.19287	4428.7
3213.49394	4432.5
3215.79363	4435.9
3218.09193	4439.7
3220.38884	4443.1
3222.68438	4444.6
3224.97853	4446.1
3227.2713	4453.4
3229.56269	4454
3231.8527	4453.8
3234.14133	4431.6
3236.42858	4420.2
3238.71446	4432.5
3240.99896	4413.8
3243.28209	4424.1
3245.56384	4385.2
3247.84423	4406.4
3250.12324	4401.2
3252.40088	4394.4
3254.67715	4401.2
3256.95205	4373.5
3259.22558	4401.3
3261.49775	4403.1
3263.76855	4388.5
3266.03799	4381.9
3268.30606	4399.2
3270.57277	4360.1
3272.83812	4381.6
3275.10211	4370.3
3277.36474	4352
3279.62601	4358.5
3281.88593	4335.7
3284.14448	4342.5
3286.40168	4351.8
3288.65753	4371.3
3290.91202	4347.9
3293.16516	4341.1
3295.41695	4321.5
3297.66738	4301.5
3299.91647	4288.7
3302.16421	4270
3304.4106	4241.1
3306.65564	4219.6
3308.89933	4183.7
3311.14169	4163.3
3313.38269	4131.9
3315.62236	4123.1
3317.86068	4094.2
3320.09766	4059.8
3322.3333	4035.3
3324.5676	4023.1
3326.80056	3960
3329.03219	3950.6
3331.26248	1.5
3333.49143	0.6
3335.71905	-0.9
