Data from AgNPs_UA_2uM_CRN_0uM_R6G_10uM_Q_RamanShift__28__13-33-41-930.txt Node

Date: Wed Jul 13 13:33:41 BST 2022
User: TCL
Spectrometer: QEP01345
Trigger mode: 4
Integration Time (sec): 7.000000E0
Scans to average: 10
Electric dark correction enabled: true
Nonlinearity correction enabled: false
Boxcar width: 0
XAxis mode: Raman Shifts
Number of Pixels in Spectrum: 1044
>>>>>Begin Spectral Data<<<<<
46.04893	-1.975
50.45542	-1.575
54.85868	-0.675
59.25871	-0.875
63.6555	84.025
68.04907	90.025
72.43941	91.825
76.82654	95.925
81.21044	102.925
85.59113	105.025
89.96862	114.925
94.34289	115.425
98.71396	116.925
103.08183	119.825
107.4465	123.725
111.80798	127.125
116.16626	133.225
120.52136	133.025
124.87327	133.725
129.222	140.925
133.56755	151.625
137.90993	161.025
142.24913	170.025
146.58517	180.825
150.91804	212.925
155.24774	251.125
159.57429	303.625
163.89768	381.925
168.21792	491.225
172.53501	666.925
176.84895	916.225
181.15975	1277.225
185.46741	1789.125
189.77193	2439.325
194.07331	3236.425
198.37157	4147.925
202.6667	5099.625
206.9587	6030.125
211.24758	6962.125
215.53334	7928.025
219.81599	8976.525
224.09553	10135.025
228.37195	11421.125
232.64527	12819.925
236.91549	14262.925
241.18261	15669.025
245.44663	16926.925
249.70755	18023.325
253.96539	18973.125
258.22014	19872.925
262.4718	20578.625
266.72039	21057.425
270.96589	21306.425
275.20832	21371.225
279.44768	21285.525
283.68397	21163.825
287.91719	21020.925
292.14735	20973.525
296.37445	21071.325
300.59849	21260.125
304.81948	21504.225
309.03742	21560.725
313.25231	21406.225
317.46415	20821.025
321.67296	20112.325
325.87872	19616.525
330.08145	19430.625
334.28114	19542.325
338.47781	19830.325
342.67145	20174.525
346.86207	20691.125
351.04966	21354.625
355.23424	22048.925
359.4158	22578.125
363.59435	22873.925
367.76989	23082.625
371.94243	23183.025
376.11196	23239.025
380.27849	23349.825
384.44203	23386.025
388.60257	23461.425
392.76012	23567.125
396.91468	23934.125
401.06626	24431.425
405.21485	24807.125
409.36047	24685.325
413.50311	24272.725
417.64277	23957.425
421.77947	23919.225
425.9132	24065.225
430.04396	24299.625
434.17176	24560.025
438.2966	24988.925
442.41849	25747.025
446.53742	26746.925
450.6534	27760.225
454.76644	28382.825
458.87653	28422.825
462.98368	28059.825
467.08789	27408.625
471.18916	26747.725
475.2875	26211.525
479.38291	25820.825
483.4754	25573.225
487.56496	25209.825
491.6516	24780.425
495.73531	24446.925
499.81612	24328.625
503.89401	24470.125
507.96899	24514.525
512.04106	24542.425
516.11023	24508.925
520.1765	24479.425
524.23987	24486.625
528.30034	24334.025
532.35792	24077.425
536.41261	23765.325
540.46441	23506.025
544.51333	23467.625
548.55936	23748.525
552.60252	24300.325
556.64279	24871.625
560.6802	25215.225
564.71473	25585.125
568.7464	26357.825
572.7752	26928.025
576.80114	27019.325
580.82422	27136.825
584.84444	27558.925
588.86181	28256.025
592.87633	29146.525
596.888	29706.925
600.89682	29980.325
604.9028	31418.325
608.90594	35030.225
612.90624	37875.825
616.90371	34384.625
620.89834	28508.725
624.89015	26736.125
628.87913	26674.625
632.86528	26301.225
636.84862	25675.425
640.82913	24924.225
644.80683	24200.325
648.78172	23745.125
652.75379	23861.925
656.72306	24394.025
660.68952	24969.125
664.65319	24786.325
668.61405	24299.825
672.57211	24102.325
676.52738	24035.025
680.47986	23950.325
684.42955	23950.925
688.37646	23993.625
692.32058	24173.325
696.26192	24390.825
700.20048	24679.525
704.13626	24825.925
708.06928	24690.125
711.99952	24542.325
715.927	24465.225
719.85171	24492.425
723.77365	24340.225
727.69284	24105.425
731.60928	24013.025
735.52295	24082.825
739.43388	24285.625
743.34206	24448.525
747.24749	24653.325
751.15017	24971.825
755.05012	25475.225
758.94733	26440.625
762.8418	28169.225
766.73354	30671.325
770.62254	32750.525
774.50882	32928.825
778.39237	31115.525
782.27321	28565.825
786.15132	26467.225
790.02671	25334.925
793.89938	24833.325
797.76935	24713.525
801.6366	24607.425
805.50115	24509.325
809.36299	24397.425
813.22213	24295.225
817.07857	24269.625
820.93231	24274.825
824.78336	24351.125
828.63172	24426.925
832.47738	24535.125
836.32036	24590.725
840.16066	24779.225
843.99827	24840.525
847.8332	24761.525
851.66546	24563.425
855.49504	24531.025
859.32195	24449.825
863.1462	24278.125
866.96777	24132.725
870.78668	24068.425
874.60293	24124.225
878.41652	24237.225
882.22745	24359.425
886.03573	24432.625
889.84136	24367.025
893.64433	24246.625
897.44466	24169.125
901.24235	24155.425
905.0374	24099.125
908.8298	24127.025
912.61957	24203.225
916.40671	24464.425
920.19121	24938.325
923.97308	25329.725
927.75233	25580.125
931.52895	25516.825
935.30295	25177.025
939.07433	24575.425
942.84309	24214.725
946.60924	24087.225
950.37278	23948.925
954.13371	23761.525
957.89203	23577.625
961.64774	23496.925
965.40086	23440.925
969.15137	23397.725
972.89929	23341.025
976.64461	23314.825
980.38733	23392.125
984.12747	23572.525
987.86502	23847.625
991.59999	24256.625
995.33237	25061.625
999.06217	26357.025
1002.78939	27665.925
1006.51404	28233.225
1010.23611	28403.425
1013.95561	28613.725
1017.67255	28677.925
1021.38692	28308.825
1025.09872	28147.925
1028.80796	28930.225
1032.51465	30371.625
1036.21877	31369.125
1039.92035	31099.425
1043.61937	30181.425
1047.31584	28771.725
1051.00976	27480.025
1054.70114	26873.425
1058.38998	26823.425
1062.07627	26767.825
1065.76003	26736.125
1069.44126	26790.225
1073.11995	26988.125
1076.79611	27210.525
1080.46974	27438.525
1084.14085	27719.625
1087.80943	28037.025
1091.47549	28063.325
1095.13903	27716.525
1098.80005	27166.125
1102.45857	26727.325
1106.11456	26565.825
1109.76805	26688.325
1113.41903	26926.425
1117.06751	27296.625
1120.71348	27708.225
1124.35696	28114.925
1127.99793	28416.425
1131.63641	28358.025
1135.2724	27992.925
1138.90589	27678.725
1142.5369	27454.425
1146.16542	27406.325
1149.79145	27519.525
1153.415	27820.925
1157.03607	28140.525
1160.65467	28699.125
1164.27079	29662.225
1167.88443	31203.525
1171.49561	33490.125
1175.10432	36764.725
1178.71056	40703.925
1182.31434	43991.925
1185.91565	45399.925
1189.51451	44810.625
1193.11091	42605.325
1196.70485	40072.625
1200.29634	37922.625
1203.88538	36301.825
1207.47197	34976.925
1211.05612	34082.825
1214.63782	33833.725
1218.21708	34197.225
1221.79391	34723.825
1225.36829	35045.325
1228.94024	34605.625
1232.50976	33728.825
1236.07685	32968.225
1239.6415	32748.525
1243.20374	32682.025
1246.76355	32875.925
1250.32093	33426.725
1253.8759	34359.725
1257.42845	35478.925
1260.97859	36451.525
1264.52631	37176.125
1268.07163	37996.625
1271.61453	39008.625
1275.15503	40348.025
1278.69312	41864.725
1282.22882	43187.525
1285.76211	44143.225
1289.29301	45016.025
1292.82151	46231.325
1296.34761	47992.025
1299.87133	50586.325
1303.39266	54177.525
1306.9116	58782.525
1310.42815	63771.225
1313.94233	66946.225
1317.45412	66431.625
1320.96354	63748.225
1324.47058	60669.525
1327.97525	58233.325
1331.47754	56665.025
1334.97747	56098.625
1338.47502	56439.025
1341.97022	56801.925
1345.46305	56794.025
1348.95352	56340.425
1352.44163	56257.125
1355.92738	57795.725
1359.41078	61140.725
1362.89183	63987.325
1366.37053	61956.525
1369.84688	55891.525
1373.32088	49576.525
1376.79254	45499.425
1380.26186	43788.525
1383.72883	43251.725
1387.19347	42970.025
1390.65578	42773.725
1394.11575	43012.725
1397.57339	43962.625
1401.0287	45316.525
1404.48168	46589.325
1407.93234	47352.625
1411.38068	47469.425
1414.82669	46594.825
1418.27039	44803.625
1421.71177	42551.325
1425.15083	40895.425
1428.58758	40137.625
1432.02203	40261.425
1435.45416	40870.325
1438.88399	41505.025
1442.31151	42009.625
1445.73673	42500.325
1449.15965	42961.325
1452.58027	43074.525
1455.9986	42933.525
1459.41463	42963.925
1462.82837	43429.625
1466.23982	44190.225
1469.64898	44959.825
1473.05586	45294.125
1476.46045	45563.425
1479.86276	45677.425
1483.26279	45799.625
1486.66054	45963.725
1490.05602	46373.625
1493.44922	46835.425
1496.84016	47247.025
1500.22882	47832.225
1503.61521	48920.825
1506.99934	50478.525
1510.38121	52218.325
1513.76081	52900.725
1517.13816	51787.225
1520.51324	49535.825
1523.88607	47321.825
1527.25665	45922.825
1530.62498	45150.025
1533.99105	44801.425
1537.35488	44603.625
1540.71647	44435.325
1544.07581	44055.125
1547.4329	43447.825
1550.78776	42567.125
1554.14038	41826.925
1557.49077	41360.625
1560.83892	41153.925
1564.18484	41027.325
1567.52853	40924.425
1570.86999	40884.525
1574.20922	40988.825
1577.54624	41132.825
1580.88103	40784.625
1584.2136	40762.825
1587.54395	42053.225
1590.87208	44837.225
1594.19801	48970.025
1597.52172	53307.325
1600.84321	55260.725
1604.16251	53147.625
1607.47959	48497.325
1610.79447	43342.025
1614.10715	38895.425
1617.41763	35823.625
1620.7259	33907.925
1624.03199	33119.125
1627.33587	33317.425
1630.63757	34475.825
1633.93707	36702.725
1637.23439	39838.525
1640.52951	43630.825
1643.82246	47638.925
1647.11321	50431.925
1650.40179	50474.525
1653.68819	46988.525
1656.97241	41347.125
1660.25446	35972.925
1663.53433	32019.225
1666.81203	29556.125
1670.08756	27985.825
1673.36092	27030.325
1676.63211	26342.825
1679.90115	25903.125
1683.16801	25488.125
1686.43272	25248.625
1689.69527	25116.725
1692.95567	24979.625
1696.2139	24926.125
1699.46999	24885.825
1702.72392	24795.525
1705.97571	24790.125
1709.22535	24729.725
1712.47284	24751.325
1715.71819	24752.925
1718.96139	24745.125
1722.20246	24685.025
1725.44139	24558.925
1728.67818	24490.825
1731.91284	24349.125
1735.14537	24257.125
1738.37576	24165.325
1741.60403	24108.925
1744.83017	24038.425
1748.05418	23986.525
1751.27607	23942.725
1754.49584	23935.725
1757.71349	23938.525
1760.92903	23935.625
1764.14244	23846.525
1767.35375	23918.325
1770.56294	23861.625
1773.77002	23851.425
1776.97499	23841.325
1780.17785	23835.225
1783.37861	23776.825
1786.57727	23811.625
1789.77382	23753.325
1792.96828	23770.625
1796.16064	23796.125
1799.3509	23731.725
1802.53907	23722.425
1805.72514	23710.025
1808.90913	23666.425
1812.09102	23590.325
1815.27083	23562.025
1818.44856	23509.425
1821.6242	23482.125
1824.79776	23434.925
1827.96924	23427.425
1831.13864	23403.825
1834.30597	23427.925
1837.47122	23432.825
1840.6344	23398.725
1843.7955	23417.625
1846.95454	23371.125
1850.11151	23395.425
1853.26642	23413.525
1856.41926	23385.725
1859.57004	23448.925
1862.71876	23449.525
1865.86542	23453.125
1869.01003	23488.625
1872.15258	23429.325
1875.29308	23483.625
1878.43152	23511.725
1881.56792	23495.825
1884.70227	23529.325
1887.83457	23498.925
1890.96482	23483.825
1894.09304	23470.925
1897.21921	23498.725
1900.34335	23479.325
1903.46544	23506.025
1906.58551	23494.225
1909.70353	23515.325
1912.81953	23514.925
1915.93349	23524.025
1919.04543	23459.525
1922.15534	23465.825
1925.26322	23408.925
1928.36908	23364.625
1931.47292	23391.825
1934.57473	23320.225
1937.67453	23256.325
1940.77232	23201.525
1943.86808	23096.725
1946.96184	23038.425
1950.05358	22941.725
1953.14331	22897.925
1956.23103	22843.725
1959.31675	22778.225
1962.40046	22730.125
1965.48217	22661.525
1968.56188	22576.425
1971.63959	22508.825
1974.7153	22461.125
1977.78901	22367.425
1980.86073	22328.525
1983.93046	22258.125
1986.99819	22186.625
1990.06394	22126.625
1993.1277	22114.325
1996.18947	22043.025
1999.24925	22003.925
2002.30706	21937.925
2005.36288	21887.625
2008.41672	21840.525
2011.46859	21744.925
2014.51848	21710.025
2017.56639	21675.625
2020.61233	21625.025
2023.6563	21587.225
2026.6983	21563.125
2029.73833	21526.925
2032.7764	21514.325
2035.8125	21491.525
2038.84664	21435.525
2041.87881	21465.525
2044.90903	21421.525
2047.93729	21361.825
2050.96359	21374.925
2053.98794	21345.325
2057.01034	21347.125
2060.03078	21340.825
2063.04927	21281.425
2066.06582	21264.425
2069.08042	21270.425
2072.09307	21218.625
2075.10378	21236.525
2078.11255	21174.625
2081.11938	21180.825
2084.12426	21117.125
2087.12722	21130.925
2090.12824	21107.925
2093.12732	21059.125
2096.12447	21106.625
2099.11969	21109.125
2102.11299	21117.025
2105.10435	21085.025
2108.09379	21097.425
2111.08131	21131.525
2114.0669	21200.225
2117.05057	21157.225
2120.03233	21195.725
2123.01216	21215.725
2125.99008	21181.525
2128.96609	21201.225
2131.94018	21257.525
2134.91236	21248.325
2137.88263	21305.025
2140.851	21302.725
2143.81746	21342.625
2146.78201	21358.325
2149.74466	21307.125
2152.7054	21361.325
2155.66425	21363.725
2158.6212	21332.925
2161.57625	21305.825
2164.52941	21331.525
2167.48067	21324.225
2170.43004	21306.025
2173.37752	21298.825
2176.32311	21322.825
2179.26681	21323.325
2182.20863	21322.225
2185.14856	21366.525
2188.08661	21407.125
2191.02278	21412.925
2193.95707	21407.625
2196.88948	21389.625
2199.82001	21425.125
2202.74867	21400.725
2205.67545	21386.325
2208.60037	21370.625
2211.52341	21396.625
2214.44458	21421.625
2217.36388	21365.225
2220.28132	21349.625
2223.1969	21302.325
2226.11061	21315.425
2229.02246	21246.125
2231.93245	21207.625
2234.84058	21190.325
2237.74686	21130.825
2240.65128	21094.225
2243.55385	21096.825
2246.45456	21078.425
2249.35343	21081.425
2252.25044	21036.225
2255.14561	20988.125
2258.03893	21009.625
2260.93041	20938.725
2263.82004	20920.225
2266.70783	20860.525
2269.59378	20786.225
2272.4779	20740.025
2275.36017	20684.725
2278.24061	20639.125
2281.11922	20650.525
2283.996	20573.625
2286.87094	20607.725
2289.74405	20520.025
2292.61534	20540.925
2295.4848	20560.725
2298.35243	20568.425
2301.21824	20575.425
2304.08223	20589.525
2306.94439	20601.125
2309.80474	20658.925
2312.66327	20723.725
2315.51999	20691.525
2318.37489	20730.625
2321.22797	20716.325
2324.07925	20690.825
2326.92871	20711.125
2329.77637	20667.525
2332.62222	20658.025
2335.46626	20641.125
2338.3085	20678.625
2341.14893	20678.625
2343.98756	20720.225
2346.8244	20740.525
2349.65943	20786.325
2352.49267	20787.625
2355.32411	20808.525
2358.15376	20798.925
2360.98161	20768.225
2363.80768	20687.025
2366.63195	20678.225
2369.45444	20613.425
2372.27514	20595.425
2375.09405	20524.525
2377.91118	20470.825
2380.72652	20445.525
2383.54009	20364.625
2386.35187	20327.325
2389.16188	20304.325
2391.97011	20305.025
2394.77657	20229.225
2397.58125	20205.825
2400.38416	20211.225
2403.18529	20116.625
2405.98466	20084.025
2408.78226	20052.525
2411.57809	20016.425
2414.37216	19960.425
2417.16446	19957.025
2419.955	19864.725
2422.74378	19898.625
2425.5308	19850.725
2428.31606	19864.525
2431.09956	19836.125
2433.88131	19824.925
2436.6613	19835.225
2439.43954	19825.625
2442.21603	19806.025
2444.99077	19811.225
2447.76377	19815.025
2450.53501	19797.925
2453.30451	19826.125
2456.07226	19807.125
2458.83827	19781.125
2461.60254	19783.525
2464.36507	19769.425
2467.12586	19723.525
2469.88492	19751.625
2472.64224	19763.825
2475.39782	19794.525
2478.15167	19846.725
2480.90379	19880.725
2483.65417	19907.625
2486.40283	19951.125
2489.14976	19960.925
2491.89497	19954.925
2494.63845	19997.225
2497.3802	20004.025
2500.12024	20017.825
2502.85855	19967.525
2505.59514	19976.825
2508.33002	19945.725
2511.06318	19926.125
2513.79462	19872.625
2516.52435	19827.525
2519.25237	19791.425
2521.97867	19812.525
2524.70327	19801.625
2527.42616	19763.425
2530.14734	19803.425
2532.86681	19788.725
2535.58458	19785.025
2538.30065	19758.225
2541.01501	19795.925
2543.72768	19778.125
2546.43864	19781.625
2549.14791	19752.025
2551.85548	19704.325
2554.56136	19708.825
2557.26554	19700.225
2559.96803	19654.625
2562.66883	19664.725
2565.36794	19648.025
2568.06536	19627.825
2570.7611	19617.825
2573.45514	19634.125
2576.14751	19621.225
2578.83819	19576.125
2581.52719	19633.125
2584.21451	19608.225
2586.90015	19611.525
2589.58411	19632.125
2592.2664	19649.825
2594.94701	19599.725
2597.62594	19653.525
2600.30321	19656.325
2602.9788	19641.925
2605.65273	19585.925
2608.32498	19647.925
2610.99557	19609.625
2613.66449	19650.725
2616.33175	19655.125
2618.99734	19721.525
2621.66128	19749.725
2624.32355	19725.825
2626.98416	19758.625
2629.64311	19756.025
2632.30041	19773.325
2634.95605	19733.125
2637.61004	19758.625
2640.26238	19697.325
2642.91306	19613.925
2645.56209	19609.825
2648.20948	19601.925
2650.85521	19552.925
2653.4993	19533.825
2656.14175	19554.325
2658.78255	19550.925
2661.42171	19526.625
2664.05923	19569.925
2666.6951	19585.025
2669.32934	19622.525
2671.96194	19604.125
2674.59291	19657.725
2677.22224	19651.525
2679.84993	19657.725
2682.476	19608.325
2685.10043	19565.225
2687.72324	19568.625
2690.34441	19564.725
2692.96396	19573.625
2695.58188	19541.025
2698.19818	19541.525
2700.81285	19543.325
2703.4259	19517.025
2706.03733	19541.925
2708.64714	19561.725
2711.25533	19580.725
2713.86191	19543.825
2716.46687	19562.225
2719.07021	19555.525
2721.67194	19585.225
2724.27206	19559.525
2726.87057	19589.625
2729.46747	19625.225
2732.06276	19672.825
2734.65644	19639.925
2737.24852	19652.725
2739.83899	19616.425
2742.42786	19614.425
2745.01513	19588.725
2747.60079	19556.425
2750.18486	19556.825
2752.76733	19534.925
2755.3482	19548.825
2757.92747	19570.525
2760.50515	19526.225
2763.08123	19548.825
2765.65573	19546.525
2768.22863	19566.125
2770.79994	19541.625
2773.36967	19574.125
2775.9378	19567.925
2778.50435	19584.825
2781.06932	19528.025
2783.6327	19535.925
2786.1945	19527.925
2788.75471	19540.025
2791.31335	19513.125
2793.87041	19475.325
2796.42589	19441.425
2798.97979	19459.325
2801.53212	19383.125
2804.08288	19388.925
2806.63206	19312.325
2809.17967	19316.125
2811.72571	19274.125
2814.27018	19268.625
2816.81308	19231.425
2819.35442	19201.825
2821.89419	19201.125
2824.43239	19190.525
2826.96904	19157.725
2829.50412	19200.725
2832.03763	19160.525
2834.56959	19155.125
2837.1	19115.425
2839.62884	19126.325
2842.15613	19137.625
2844.68186	19157.825
2847.20604	19142.325
2849.72867	19136.725
2852.24974	19109.425
2854.76927	19116.425
2857.28724	19048.325
2859.80367	19063.325
2862.31855	19018.925
2864.83189	19014.525
2867.34368	19007.925
2869.85393	18979.525
2872.36264	18972.325
2874.8698	18956.225
2877.37543	18936.425
2879.87952	18971.825
2882.38207	18916.225
2884.88308	18956.725
2887.38256	18976.925
2889.88051	18939.625
2892.37692	18986.525
2894.8718	19000.425
2897.36515	19019.025
2899.85698	19037.025
2902.34727	19081.025
2904.83604	19064.925
2907.32328	19168.825
2909.809	19153.925
2912.29319	19162.625
2914.77587	19135.125
2917.25702	19165.525
2919.73665	19142.025
2922.21476	19140.425
2924.69136	19069.925
2927.16644	19053.625
2929.64	19053.925
2932.11205	19049.725
2934.58258	18969.225
2937.05161	19014.825
2939.51912	18968.825
2941.98513	18933.825
2944.44962	18933.125
2946.91261	18867.425
2949.37409	18947.325
2951.83407	18919.625
2954.29254	18918.425
2956.74951	18900.825
2959.20498	18923.625
2961.65895	18846.625
2964.11142	18891.925
2966.56239	18866.925
2969.01186	18847.425
2971.45984	18797.525
2973.90632	18774.825
2976.35131	18702.925
2978.7948	18708.225
2981.23681	18649.425
2983.67732	18604.125
2986.11635	18546.825
2988.55388	18530.325
2990.98993	18534.725
2993.4245	18471.425
2995.85758	18427.125
2998.28917	18357.825
3000.71928	18356.025
3003.14791	18350.425
3005.57506	18316.425
3008.00073	18246.925
3010.42493	18227.425
3012.84764	18178.525
3015.26888	18197.525
3017.68865	18116.825
3020.10694	18102.425
3022.52376	18050.425
3024.9391	18058.625
3027.35298	18010.825
3029.76539	18044.425
3032.17632	18025.225
3034.5858	17994.825
3036.9938	17997.825
3039.40034	17987.225
3041.80542	17936.825
3044.20903	17930.125
3046.61118	17903.725
3049.01187	17904.525
3051.4111	17888.225
3053.80888	17849.925
3056.20519	17798.925
3058.60005	17753.825
3060.99345	17748.525
3063.3854	17685.225
3065.7759	17617.725
3068.16494	17560.925
3070.55254	17495.825
3072.93868	17465.525
3075.32338	17418.525
3077.70662	17391.625
3080.08842	17326.325
3082.46878	17286.025
3084.84769	17281.325
3087.22515	17295.125
3089.60118	17279.625
3091.97576	17277.625
3094.3489	17267.225
3096.72061	17265.425
3099.09087	17279.825
3101.4597	17220.925
3103.82709	17257.625
3106.19305	17210.225
3108.55757	17205.325
3110.92066	17185.025
3113.28232	17198.425
3115.64255	17114.025
3118.00134	17120.725
3120.35871	17112.325
3122.71466	17069.725
3125.06917	17039.525
3127.42226	17007.425
3129.77393	17015.425
3132.12417	16954.725
3134.47299	16962.225
3136.82039	16900.325
3139.16636	16925.425
3141.51092	16919.525
3143.85406	16942.325
3146.19579	16924.325
3148.53609	16914.925
3150.87499	16967.425
3153.21246	16917.225
3155.54853	16949.225
3157.88318	16933.925
3160.21642	16974.025
3162.54826	16942.525
3164.87868	16934.125
3167.2077	16927.025
3169.5353	16920.025
3171.86151	16923.325
3174.18631	16914.525
3176.5097	16892.525
3178.83169	16857.025
3181.15228	16872.125
3183.47147	16823.225
3185.78926	16884.925
3188.10565	16824.225
3190.42065	16823.225
3192.73424	16818.625
3195.04645	16804.425
3197.35725	16799.325
3199.66667	16793.025
3201.97469	16819.825
3204.28132	16817.525
3206.58656	16805.425
3208.8904	16785.525
3211.19287	16817.625
3213.49394	16772.325
3215.79363	16793.325
3218.09193	16820.125
3220.38884	16773.025
3222.68438	16842.525
3224.97853	16815.725
3227.2713	16852.325
3229.56269	16851.725
3231.8527	16833.725
3234.14133	16845.325
3236.42858	16783.125
3238.71446	16763.325
3240.99896	16718.425
3243.28209	16718.825
3245.56384	16704.725
3247.84423	16708.525
3250.12324	16711.225
3252.40088	16679.725
3254.67715	16646.525
3256.95205	16611.425
3259.22558	16621.125
3261.49775	16645.025
3263.76855	16634.825
3266.03799	16608.225
3268.30606	16589.325
3270.57277	16588.425
3272.83812	16567.025
3275.10211	16518.125
3277.36474	16519.125
3279.62601	16496.625
3281.88593	16442.025
3284.14448	16481.225
3286.40168	16525.325
3288.65753	16490.325
3290.91202	16481.525
3293.16516	16457.725
3295.41695	16421.225
3297.66738	16371.825
3299.91647	16300.025
3302.16421	16188.725
3304.4106	16107.725
3306.65564	16009.125
3308.89933	15914.725
3311.14169	15822.225
3313.38269	15690.925
3315.62236	15594.925
3317.86068	15507.525
3320.09766	15406.925
3322.3333	15333.025
3324.5676	15238.125
3326.80056	15069.125
3329.03219	14978.125
3331.26248	2.925
3333.49143	1.025
3335.71905	1.225
