Data from AgNPs_UA_10uM_CRN_0uM_R6G_10uM_Q_RamanShift__7__11-56-52-631.txt Node

Date: Mon Jul 18 11:56:52 BST 2022
User: TCL
Spectrometer: QEP01345
Trigger mode: 4
Integration Time (sec): 7.000000E0
Scans to average: 10
Electric dark correction enabled: true
Nonlinearity correction enabled: false
Boxcar width: 0
XAxis mode: Raman Shifts
Number of Pixels in Spectrum: 1044
>>>>>Begin Spectral Data<<<<<
46.04893	-1.675
50.45542	-0.775
54.85868	-3.075
59.25871	-0.575
63.6555	121.825
68.04907	126.925
72.43941	135.325
76.82654	139.725
81.21044	144.825
85.59113	148.125
89.96862	154.525
94.34289	161.225
98.71396	163.725
103.08183	169.725
107.4465	176.425
111.80798	175.125
116.16626	182.125
120.52136	191.925
124.87327	207.825
129.222	211.225
133.56755	229.425
137.90993	249.925
142.24913	270.425
146.58517	307.625
150.91804	360.425
155.24774	433.025
159.57429	539.225
163.89768	699.625
168.21792	930.825
172.53501	1268.325
176.84895	1777.225
181.15975	2508.125
185.46741	3526.725
189.77193	4889.325
194.07331	6528.225
198.37157	8386.325
202.6667	10372.425
206.9587	12314.625
211.24758	14232.025
215.53334	16159.725
219.81599	18246.125
224.09553	20588.325
228.37195	23130.525
232.64527	25892.225
236.91549	28679.325
241.18261	31386.925
245.44663	33832.825
249.70755	35984.925
253.96539	37862.525
258.22014	39499.625
262.4718	40791.825
266.72039	41673.525
270.96589	42123.025
275.20832	42162.925
279.44768	41926.425
283.68397	41445.325
287.91719	41158.225
292.14735	41110.325
296.37445	41297.225
300.59849	41804.625
304.81948	42399.725
309.03742	42869.525
313.25231	42850.425
317.46415	42099.425
321.67296	40908.125
325.87872	39846.725
330.08145	39302.525
334.28114	39286.325
338.47781	39748.125
342.67145	40268.825
346.86207	41056.225
351.04966	42107.825
355.23424	43122.125
359.4158	43902.225
363.59435	44349.525
367.76989	44511.425
371.94243	44502.825
376.11196	44452.025
380.27849	44541.725
384.44203	44578.925
388.60257	44670.325
392.76012	45097.525
396.91468	45738.225
401.06626	46464.725
405.21485	46840.225
409.36047	46449.925
413.50311	45509.425
417.64277	44849.725
421.77947	44623.825
425.9132	44728.725
430.04396	44884.625
434.17176	44986.425
438.2966	45299.325
442.41849	45873.725
446.53742	46790.425
450.6534	47702.425
454.76644	48397.525
458.87653	48550.825
462.98368	48417.725
467.08789	48167.225
471.18916	47739.825
475.2875	47132.525
479.38291	46680.125
483.4754	46298.525
487.56496	45969.225
491.6516	45647.425
495.73531	45474.025
499.81612	45461.425
503.89401	45760.825
507.96899	45912.125
512.04106	45979.225
516.11023	46001.825
520.1765	45945.525
524.23987	45751.325
528.30034	45513.325
532.35792	45224.025
536.41261	44927.125
540.46441	44497.725
544.51333	44559.625
548.55936	44928.425
552.60252	45764.025
556.64279	46677.225
560.6802	47228.325
564.71473	47703.225
568.7464	48556.725
572.7752	49571.325
576.80114	50271.025
580.82422	51132.625
584.84444	52266.525
588.86181	53356.625
592.87633	54162.325
596.888	54194.025
600.89682	53692.225
604.9028	55229.025
608.90594	60721.325
612.90624	65954.525
616.90371	60890.325
620.89834	50863.625
624.89015	46953.925
628.87913	46641.625
632.86528	47245.425
636.84862	47480.625
640.82913	46792.225
644.80683	45618.325
648.78172	44918.625
652.75379	45031.425
656.72306	45869.925
660.68952	46672.425
664.65319	46343.625
668.61405	45570.525
672.57211	45588.625
676.52738	45711.125
680.47986	45535.925
684.42955	45138.425
688.37646	44956.925
692.32058	45319.025
696.26192	45879.225
700.20048	46440.125
704.13626	46757.925
708.06928	46703.325
711.99952	46490.425
715.927	46424.725
719.85171	46502.525
723.77365	46327.125
727.69284	45799.425
731.60928	45363.825
735.52295	45335.225
739.43388	45326.525
743.34206	45561.225
747.24749	45703.825
751.15017	46046.425
755.05012	46770.325
758.94733	48219.225
762.8418	51232.225
766.73354	55570.125
770.62254	58982.025
774.50882	59066.925
778.39237	56468.425
782.27321	52923.025
786.15132	49570.025
790.02671	47383.725
793.89938	46274.025
797.76935	45660.625
801.6366	45440.425
805.50115	45319.825
809.36299	45095.725
813.22213	44895.925
817.07857	44880.725
820.93231	44861.525
824.78336	44800.925
828.63172	44813.225
832.47738	44753.425
836.32036	44688.225
840.16066	44734.625
843.99827	44705.425
847.8332	44750.025
851.66546	44737.225
855.49504	44782.425
859.32195	44832.425
863.1462	44796.025
866.96777	44809.925
870.78668	44787.225
874.60293	44823.825
878.41652	44981.325
882.22745	45154.025
886.03573	45274.125
889.84136	45178.425
893.64433	45125.725
897.44466	44962.625
901.24235	44922.025
905.0374	44825.525
908.8298	44638.125
912.61957	44677.925
916.40671	44932.325
920.19121	45289.025
923.97308	45724.725
927.75233	45888.425
931.52895	45821.425
935.30295	45358.925
939.07433	44539.825
942.84309	43922.025
946.60924	43646.825
950.37278	43575.625
954.13371	43562.625
957.89203	43542.225
961.64774	43600.425
965.40086	43586.425
969.15137	43600.425
972.89929	43510.625
976.64461	43532.525
980.38733	43487.725
984.12747	43560.525
987.86502	43735.425
991.59999	43856.125
995.33237	44021.525
999.06217	44459.525
1002.78939	45048.025
1006.51404	45700.225
1010.23611	46318.125
1013.95561	46654.525
1017.67255	46664.825
1021.38692	46308.525
1025.09872	45717.525
1028.80796	45200.225
1032.51465	45117.825
1036.21877	45256.425
1039.92035	45416.325
1043.61937	45605.025
1047.31584	45612.025
1051.00976	45735.825
1054.70114	45959.125
1058.38998	46182.925
1062.07627	46518.725
1065.76003	47009.425
1069.44126	47643.925
1073.11995	48508.025
1076.79611	49231.025
1080.46974	49627.425
1084.14085	50031.325
1087.80943	50561.825
1091.47549	50829.125
1095.13903	50652.925
1098.80005	49941.825
1102.45857	49075.825
1106.11456	48305.725
1109.76805	47876.525
1113.41903	47912.725
1117.06751	48331.725
1120.71348	49023.925
1124.35696	49812.425
1127.99793	50523.125
1131.63641	50436.125
1135.2724	49674.425
1138.90589	49050.025
1142.5369	48801.025
1146.16542	48725.025
1149.79145	48879.325
1153.415	48987.225
1157.03607	49403.025
1160.65467	50202.825
1164.27079	51614.425
1167.88443	53505.825
1171.49561	56003.525
1175.10432	59458.625
1178.71056	63794.525
1182.31434	67422.925
1185.91565	68860.125
1189.51451	68443.425
1193.11091	66880.225
1196.70485	64655.625
1200.29634	62425.625
1203.88538	60487.325
1207.47197	58818.125
1211.05612	57475.525
1214.63782	56396.125
1218.21708	55236.525
1221.79391	54187.125
1225.36829	53571.125
1228.94024	53323.425
1232.50976	53073.625
1236.07685	52846.825
1239.6415	52657.425
1243.20374	52579.125
1246.76355	52869.925
1250.32093	53379.025
1253.8759	54166.225
1257.42845	55363.825
1260.97859	56790.325
1264.52631	58201.025
1268.07163	59522.725
1271.61453	60689.625
1275.15503	61754.625
1278.69312	62819.525
1282.22882	63678.125
1285.76211	65208.625
1289.29301	67114.625
1292.82151	69210.825
1296.34761	71424.025
1299.87133	74303.025
1303.39266	77938.025
1306.9116	82292.125
1310.42815	86550.225
1313.94233	88234.525
1317.45412	86913.525
1320.96354	84196.825
1324.47058	81843.225
1327.97525	80018.825
1331.47754	78704.025
1334.97747	78103.325
1338.47502	77827.925
1341.97022	78251.925
1345.46305	79347.325
1348.95352	80637.425
1352.44163	82236.625
1355.92738	84395.125
1359.41078	88079.025
1362.89183	91918.225
1366.37053	90066.825
1369.84688	81961.525
1373.32088	73169.825
1376.79254	67435.725
1380.26186	64768.525
1383.72883	63663.225
1387.19347	62865.725
1390.65578	61764.725
1394.11575	60975.325
1397.57339	60586.425
1401.0287	60429.425
1404.48168	60185.325
1407.93234	59709.925
1411.38068	59169.725
1414.82669	58373.925
1418.27039	57204.825
1421.71177	56111.425
1425.15083	55119.925
1428.58758	54800.125
1432.02203	55353.725
1435.45416	56266.525
1438.88399	57088.825
1442.31151	57468.525
1445.73673	57710.425
1449.15965	57957.025
1452.58027	58101.425
1455.9986	58254.925
1459.41463	58443.725
1462.82837	59072.725
1466.23982	59963.825
1469.64898	60760.025
1473.05586	61411.225
1476.46045	61702.325
1479.86276	61849.425
1483.26279	62183.225
1486.66054	62769.425
1490.05602	63945.825
1493.44922	65882.225
1496.84016	68503.425
1500.22882	72338.725
1503.61521	77319.725
1506.99934	82490.325
1510.38121	86050.625
1513.76081	86066.725
1517.13816	82093.925
1520.51324	76507.525
1523.88607	71948.825
1527.25665	69200.925
1530.62498	67651.125
1533.99105	66550.325
1537.35488	65329.425
1540.71647	63866.825
1544.07581	62555.125
1547.4329	61332.825
1550.78776	60416.025
1554.14038	59903.425
1557.49077	59771.225
1560.83892	60051.925
1564.18484	60779.925
1567.52853	61702.425
1570.86999	62508.025
1574.20922	63220.625
1577.54624	63372.125
1580.88103	62246.825
1584.2136	60933.025
1587.54395	60714.625
1590.87208	61978.725
1594.19801	64218.125
1597.52172	66443.825
1600.84321	66769.525
1604.16251	64828.025
1607.47959	62048.725
1610.79447	58881.425
1614.10715	55580.525
1617.41763	52716.425
1620.7259	50765.825
1624.03199	49743.425
1627.33587	49647.025
1630.63757	50691.225
1633.93707	52838.225
1637.23439	56724.625
1640.52951	62483.325
1643.82246	69501.725
1647.11321	75818.225
1650.40179	78049.525
1653.68819	74244.725
1656.97241	66165.025
1660.25446	57910.225
1663.53433	51769.925
1666.81203	47802.525
1670.08756	45418.025
1673.36092	43954.125
1676.63211	43033.725
1679.90115	42361.625
1683.16801	41809.425
1686.43272	41447.025
1689.69527	41106.525
1692.95567	40844.325
1696.2139	40666.825
1699.46999	40479.625
1702.72392	40422.625
1705.97571	40335.925
1709.22535	40332.225
1712.47284	40320.325
1715.71819	40312.125
1718.96139	40214.125
1722.20246	40072.625
1725.44139	39883.525
1728.67818	39731.525
1731.91284	39460.625
1735.14537	39293.425
1738.37576	39261.725
1741.60403	39111.225
1744.83017	39040.325
1748.05418	38959.625
1751.27607	38822.225
1754.49584	38793.125
1757.71349	38746.425
1760.92903	38735.725
1764.14244	38619.125
1767.35375	38664.025
1770.56294	38528.925
1773.77002	38480.825
1776.97499	38418.725
1780.17785	38419.125
1783.37861	38260.525
1786.57727	38247.025
1789.77382	38141.125
1792.96828	38074.725
1796.16064	38020.625
1799.3509	37981.325
1802.53907	37859.925
1805.72514	37752.825
1808.90913	37622.125
1812.09102	37564.825
1815.27083	37528.825
1818.44856	37470.925
1821.6242	37450.625
1824.79776	37355.325
1827.96924	37332.425
1831.13864	37289.825
1834.30597	37271.625
1837.47122	37197.025
1840.6344	37207.025
1843.7955	37251.625
1846.95454	37135.225
1850.11151	37095.825
1853.26642	37095.925
1856.41926	37059.725
1859.57004	37070.825
1862.71876	37053.825
1865.86542	36936.525
1869.01003	36977.625
1872.15258	36949.125
1875.29308	36879.025
1878.43152	36714.325
1881.56792	36709.925
1884.70227	36670.425
1887.83457	36606.225
1890.96482	36566.725
1894.09304	36525.125
1897.21921	36475.225
1900.34335	36494.725
1903.46544	36386.925
1906.58551	36314.725
1909.70353	36314.725
1912.81953	36246.825
1915.93349	36236.225
1919.04543	36148.325
1922.15534	36079.425
1925.26322	35998.725
1928.36908	35912.825
1931.47292	35839.025
1934.57473	35739.825
1937.67453	35608.025
1940.77232	35583.725
1943.86808	35435.525
1946.96184	35367.925
1950.05358	35308.225
1953.14331	35111.025
1956.23103	35024.025
1959.31675	34956.825
1962.40046	34855.425
1965.48217	34823.425
1968.56188	34712.525
1971.63959	34610.825
1974.7153	34535.725
1977.78901	34442.525
1980.86073	34244.725
1983.93046	34163.825
1986.99819	34098.225
1990.06394	33945.525
1993.1277	33877.225
1996.18947	33784.325
1999.24925	33724.825
2002.30706	33590.325
2005.36288	33557.225
2008.41672	33461.725
2011.46859	33379.125
2014.51848	33254.625
2017.56639	33190.725
2020.61233	33081.025
2023.6563	33005.025
2026.6983	32864.325
2029.73833	32761.925
2032.7764	32674.925
2035.8125	32644.225
2038.84664	32556.725
2041.87881	32509.225
2044.90903	32412.525
2047.93729	32326.525
2050.96359	32315.325
2053.98794	32198.225
2057.01034	32217.325
2060.03078	32188.425
2063.04927	32158.125
2066.06582	32118.425
2069.08042	32116.525
2072.09307	32093.825
2075.10378	32043.825
2078.11255	32068.425
2081.11938	32038.625
2084.12426	32045.625
2087.12722	32021.325
2090.12824	32044.425
2093.12732	31944.125
2096.12447	32015.725
2099.11969	31994.625
2102.11299	32111.325
2105.10435	32085.325
2108.09379	32051.725
2111.08131	32067.725
2114.0669	32049.825
2117.05057	32081.825
2120.03233	32082.125
2123.01216	32141.025
2125.99008	32197.225
2128.96609	32206.725
2131.94018	32307.525
2134.91236	32323.525
2137.88263	32297.625
2140.851	32274.025
2143.81746	32294.325
2146.78201	32271.925
2149.74466	32338.025
2152.7054	32320.625
2155.66425	32262.925
2158.6212	32296.325
2161.57625	32255.225
2164.52941	32200.225
2167.48067	32143.125
2170.43004	32184.525
2173.37752	32173.525
2176.32311	32138.725
2179.26681	32133.325
2182.20863	32227.825
2185.14856	32172.625
2188.08661	32137.725
2191.02278	32105.625
2193.95707	32082.225
2196.88948	32135.525
2199.82001	32033.325
2202.74867	31965.325
2205.67545	31942.425
2208.60037	31860.225
2211.52341	31812.125
2214.44458	31785.425
2217.36388	31743.625
2220.28132	31669.625
2223.1969	31604.425
2226.11061	31492.725
2229.02246	31417.425
2231.93245	31427.725
2234.84058	31377.625
2237.74686	31293.125
2240.65128	31298.625
2243.55385	31260.525
2246.45456	31220.425
2249.35343	31202.725
2252.25044	31154.825
2255.14561	31087.725
2258.03893	31007.825
2260.93041	30976.725
2263.82004	31000.525
2266.70783	30874.325
2269.59378	30839.725
2272.4779	30740.625
2275.36017	30641.925
2278.24061	30617.425
2281.11922	30589.725
2283.996	30539.825
2286.87094	30440.725
2289.74405	30398.125
2292.61534	30365.525
2295.4848	30326.925
2298.35243	30348.225
2301.21824	30271.925
2304.08223	30245.025
2306.94439	30238.225
2309.80474	30217.425
2312.66327	30166.725
2315.51999	30133.525
2318.37489	30136.625
2321.22797	30091.625
2324.07925	30044.925
2326.92871	29932.325
2329.77637	29923.325
2332.62222	29905.225
2335.46626	29881.225
2338.3085	29899.925
2341.14893	29803.225
2343.98756	29797.225
2346.8244	29785.725
2349.65943	29834.825
2352.49267	29786.225
2355.32411	29815.425
2358.15376	29760.625
2360.98161	29742.825
2363.80768	29777.125
2366.63195	29797.325
2369.45444	29722.625
2372.27514	29700.725
2375.09405	29699.825
2377.91118	29574.625
2380.72652	29504.425
2383.54009	29377.325
2386.35187	29404.625
2389.16188	29349.125
2391.97011	29296.625
2394.77657	29178.825
2397.58125	29111.525
2400.38416	29104.425
2403.18529	29074.725
2405.98466	29077.525
2408.78226	29007.425
2411.57809	29019.925
2414.37216	28932.225
2417.16446	28934.525
2419.955	28896.925
2422.74378	28919.725
2425.5308	28815.125
2428.31606	28788.725
2431.09956	28783.425
2433.88131	28739.625
2436.6613	28780.825
2439.43954	28708.525
2442.21603	28716.825
2444.99077	28663.525
2447.76377	28671.325
2450.53501	28586.525
2453.30451	28572.225
2456.07226	28563.725
2458.83827	28516.125
2461.60254	28503.825
2464.36507	28489.325
2467.12586	28430.625
2469.88492	28420.925
2472.64224	28396.525
2475.39782	28390.425
2478.15167	28427.625
2480.90379	28396.725
2483.65417	28482.325
2486.40283	28477.225
2489.14976	28530.825
2491.89497	28483.225
2494.63845	28481.325
2497.3802	28431.425
2500.12024	28439.625
2502.85855	28342.725
2505.59514	28302.025
2508.33002	28235.425
2511.06318	28192.225
2513.79462	28129.225
2516.52435	28100.725
2519.25237	28062.725
2521.97867	28033.925
2524.70327	28010.825
2527.42616	27933.325
2530.14734	27943.625
2532.86681	27920.125
2535.58458	27892.625
2538.30065	27839.525
2541.01501	27865.825
2543.72768	27823.325
2546.43864	27777.225
2549.14791	27723.025
2551.85548	27688.525
2554.56136	27580.925
2557.26554	27559.725
2559.96803	27558.225
2562.66883	27521.025
2565.36794	27447.225
2568.06536	27483.125
2570.7611	27456.325
2573.45514	27397.825
2576.14751	27371.625
2578.83819	27293.525
2581.52719	27218.225
2584.21451	27207.925
2586.90015	27154.125
2589.58411	27140.325
2592.2664	27172.025
2594.94701	27079.025
2597.62594	27124.925
2600.30321	27029.925
2602.9788	26959.925
2605.65273	26908.425
2608.32498	26872.025
2610.99557	26884.525
2613.66449	26882.925
2616.33175	26828.025
2618.99734	26762.625
2621.66128	26704.225
2624.32355	26714.625
2626.98416	26697.925
2629.64311	26568.425
2632.30041	26547.725
2634.95605	26531.125
2637.61004	26491.225
2640.26238	26532.125
2642.91306	26554.225
2645.56209	26488.525
2648.20948	26477.225
2650.85521	26436.425
2653.4993	26392.325
2656.14175	26414.625
2658.78255	26452.525
2661.42171	26494.325
2664.05923	26537.525
2666.6951	26489.125
2669.32934	26497.425
2671.96194	26528.825
2674.59291	26476.625
2677.22224	26471.625
2679.84993	26487.225
2682.476	26440.125
2685.10043	26440.725
2687.72324	26386.525
2690.34441	26420.225
2692.96396	26354.725
2695.58188	26390.425
2698.19818	26336.525
2700.81285	26374.925
2703.4259	26360.025
2706.03733	26410.625
2708.64714	26431.625
2711.25533	26445.825
2713.86191	26376.625
2716.46687	26432.125
2719.07021	26397.725
2721.67194	26428.225
2724.27206	26407.825
2726.87057	26402.425
2729.46747	26426.725
2732.06276	26441.225
2734.65644	26423.525
2737.24852	26398.725
2739.83899	26336.325
2742.42786	26323.925
2745.01513	26237.725
2747.60079	26258.125
2750.18486	26219.425
2752.76733	26225.825
2755.3482	26200.025
2757.92747	26166.125
2760.50515	26125.525
2763.08123	26097.425
2765.65573	26023.525
2768.22863	26040.725
2770.79994	25964.625
2773.36967	25992.025
2775.9378	25940.325
2778.50435	25876.825
2781.06932	25866.825
2783.6327	25829.725
2786.1945	25850.725
2788.75471	25806.025
2791.31335	25719.825
2793.87041	25646.325
2796.42589	25602.825
2798.97979	25586.225
2801.53212	25589.525
2804.08288	25597.825
2806.63206	25462.825
2809.17967	25453.525
2811.72571	25384.625
2814.27018	25343.325
2816.81308	25231.125
2819.35442	25220.725
2821.89419	25216.225
2824.43239	25160.125
2826.96904	25107.125
2829.50412	25148.425
2832.03763	25038.525
2834.56959	25051.225
2837.1	24970.525
2839.62884	24992.925
2842.15613	24949.925
2844.68186	24925.425
2847.20604	24869.225
2849.72867	24860.525
2852.24974	24807.725
2854.76927	24792.025
2857.28724	24771.825
2859.80367	24770.725
2862.31855	24750.525
2864.83189	24736.225
2867.34368	24721.925
2869.85393	24671.725
2872.36264	24596.825
2874.8698	24552.225
2877.37543	24565.425
2879.87952	24584.025
2882.38207	24521.325
2884.88308	24523.025
2887.38256	24526.525
2889.88051	24506.025
2892.37692	24524.425
2894.8718	24518.225
2897.36515	24534.425
2899.85698	24426.825
2902.34727	24493.325
2904.83604	24504.225
2907.32328	24585.225
2909.809	24544.425
2912.29319	24581.725
2914.77587	24542.625
2917.25702	24575.925
2919.73665	24539.625
2922.21476	24544.125
2924.69136	24535.925
2927.16644	24504.125
2929.64	24473.525
2932.11205	24423.025
2934.58258	24335.425
2937.05161	24386.825
2939.51912	24356.125
2941.98513	24338.825
2944.44962	24267.925
2946.91261	24192.725
2949.37409	24230.025
2951.83407	24263.725
2954.29254	24222.025
2956.74951	24248.425
2959.20498	24221.825
2961.65895	24232.525
2964.11142	24273.225
2966.56239	24197.325
2969.01186	24177.025
2971.45984	24144.125
2973.90632	24101.425
2976.35131	24036.225
2978.7948	24059.225
2981.23681	23951.125
2983.67732	23996.525
2986.11635	23949.425
2988.55388	23917.525
2990.98993	23850.325
2993.4245	23810.125
2995.85758	23756.425
2998.28917	23691.925
3000.71928	23656.325
3003.14791	23554.225
3005.57506	23549.225
3008.00073	23449.725
3010.42493	23471.025
3012.84764	23394.225
3015.26888	23390.825
3017.68865	23330.125
3020.10694	23308.025
3022.52376	23256.125
3024.9391	23202.425
3027.35298	23179.625
3029.76539	23171.325
3032.17632	23176.525
3034.5858	23129.525
3036.9938	23137.825
3039.40034	23087.525
3041.80542	23034.325
3044.20903	22987.625
3046.61118	23015.325
3049.01187	22905.325
3051.4111	22867.125
3053.80888	22827.725
3056.20519	22795.025
3058.60005	22730.025
3060.99345	22711.525
3063.3854	22649.025
3065.7759	22562.525
3068.16494	22504.625
3070.55254	22462.425
3072.93868	22394.425
3075.32338	22344.925
3077.70662	22293.125
3080.08842	22226.325
3082.46878	22191.825
3084.84769	22161.925
3087.22515	22177.825
3089.60118	22199.725
3091.97576	22177.825
3094.3489	22166.325
3096.72061	22132.225
3099.09087	22110.625
3101.4597	22132.225
3103.82709	22105.125
3106.19305	22123.125
3108.55757	22075.425
3110.92066	21992.925
3113.28232	21988.125
3115.64255	21933.625
3118.00134	21924.325
3120.35871	21875.325
3122.71466	21811.125
3125.06917	21746.925
3127.42226	21688.925
3129.77393	21712.925
3132.12417	21679.725
3134.47299	21657.725
3136.82039	21653.025
3139.16636	21595.525
3141.51092	21596.925
3143.85406	21560.225
3146.19579	21561.725
3148.53609	21587.825
3150.87499	21575.925
3153.21246	21578.625
3155.54853	21565.925
3157.88318	21529.925
3160.21642	21562.925
3162.54826	21602.925
3164.87868	21609.025
3167.2077	21594.225
3169.5353	21562.425
3171.86151	21483.225
3174.18631	21460.225
3176.5097	21496.425
3178.83169	21441.625
3181.15228	21466.425
3183.47147	21424.025
3185.78926	21378.825
3188.10565	21341.725
3190.42065	21277.325
3192.73424	21252.125
3195.04645	21238.825
3197.35725	21209.525
3199.66667	21197.025
3201.97469	21211.225
3204.28132	21135.825
3206.58656	21171.825
3208.8904	21149.325
3211.19287	21164.525
3213.49394	21175.825
3215.79363	21155.725
3218.09193	21187.025
3220.38884	21185.525
3222.68438	21181.825
3224.97853	21169.425
3227.2713	21184.325
3229.56269	21154.225
3231.8527	21147.325
3234.14133	21103.825
3236.42858	21059.225
3238.71446	21056.525
3240.99896	21003.425
3243.28209	20982.825
3245.56384	20896.125
3247.84423	20882.625
3250.12324	20869.925
3252.40088	20840.925
3254.67715	20806.325
3256.95205	20765.425
3259.22558	20718.725
3261.49775	20755.725
3263.76855	20788.225
3266.03799	20708.225
3268.30606	20723.525
3270.57277	20673.125
3272.83812	20589.525
3275.10211	20548.225
3277.36474	20507.025
3279.62601	20484.825
3281.88593	20474.725
3284.14448	20512.525
3286.40168	20511.325
3288.65753	20481.525
3290.91202	20471.525
3293.16516	20377.625
3295.41695	20401.725
3297.66738	20280.525
3299.91647	20155.825
3302.16421	20043.625
3304.4106	20022.725
3306.65564	19897.025
3308.89933	19749.125
3311.14169	19609.025
3313.38269	19432.425
3315.62236	19341.725
3317.86068	19189.025
3320.09766	19026.925
3322.3333	18942.425
3324.5676	18882.225
3326.80056	18644.625
3329.03219	18534.425
3331.26248	5.825
3333.49143	0.225
3335.71905	0.625
