Data from AgNPs_UA_200uM_CRN_0uM_R6G_10uM_Q_RamanShift__0__13-59-54-144.txt Node

Date: Tue Jul 26 13:59:54 BST 2022
User: TCL
Spectrometer: QEP01345
Trigger mode: 4
Integration Time (sec): 7.000000E0
Scans to average: 10
Electric dark correction enabled: true
Nonlinearity correction enabled: false
Boxcar width: 0
XAxis mode: Raman Shifts
Number of Pixels in Spectrum: 1044
>>>>>Begin Spectral Data<<<<<
46.04893	-0.7
50.45542	-0.5
54.85868	0.4
59.25871	-0.2
63.6555	52.7
68.04907	53.8
72.43941	58.3
76.82654	53.8
81.21044	66
85.59113	65.9
89.96862	69.6
94.34289	66.8
98.71396	70.6
103.08183	73.7
107.4465	76
111.80798	75.5
116.16626	78.2
120.52136	76.8
124.87327	79
129.222	82.5
133.56755	83
137.90993	87.4
142.24913	92.6
146.58517	96.9
150.91804	101
155.24774	120
159.57429	137.5
163.89768	165.3
168.21792	206.6
172.53501	274.7
176.84895	370.6
181.15975	506.2
185.46741	701.5
189.77193	971.9
194.07331	1281.7
198.37157	1648.3
202.6667	2027.7
206.9587	2401.9
211.24758	2778.5
215.53334	3159
219.81599	3535.9
224.09553	3985.4
228.37195	4472.3
232.64527	4999.1
236.91549	5552
241.18261	6131
245.44663	6638.7
249.70755	7106.6
253.96539	7494.8
258.22014	7850.7
262.4718	8124.6
266.72039	8304.6
270.96589	8394.7
275.20832	8375.3
279.44768	8320.8
283.68397	8193.2
287.91719	8081.4
292.14735	8030.1
296.37445	8033.9
300.59849	8076.1
304.81948	8153.4
309.03742	8188.7
313.25231	8188
317.46415	8086.8
321.67296	7958.5
325.87872	7859.3
330.08145	7828.7
334.28114	7873.4
338.47781	7960.6
342.67145	8084
346.86207	8244.8
351.04966	8440.2
355.23424	8621.2
359.4158	8812.5
363.59435	8945.1
367.76989	9032.9
371.94243	9127.8
376.11196	9202.3
380.27849	9249.9
384.44203	9320
388.60257	9371.7
392.76012	9442.3
396.91468	9502
401.06626	9620.5
405.21485	9704.8
409.36047	9704.4
413.50311	9568.9
417.64277	9491.9
421.77947	9432.9
425.9132	9433.1
430.04396	9481.6
434.17176	9552.3
438.2966	9659.2
442.41849	9791
446.53742	9916.6
450.6534	10044.1
454.76644	10128.8
458.87653	10228.2
462.98368	10243.9
467.08789	10225.7
471.18916	10179.4
475.2875	10120.2
479.38291	10093.1
483.4754	10049.3
487.56496	10059.1
491.6516	10057.5
495.73531	10128.5
499.81612	10104.3
503.89401	10167.5
507.96899	10209.8
512.04106	10260.7
516.11023	10309.3
520.1765	10366.3
524.23987	10405.9
528.30034	10428.4
532.35792	10444.1
536.41261	10434.5
540.46441	10381.4
544.51333	10370
548.55936	10399.7
552.60252	10445.4
556.64279	10541.4
560.6802	10583.6
564.71473	10620.9
568.7464	10685.5
572.7752	10673
576.80114	10657.3
580.82422	10633.1
584.84444	10686
588.86181	10800.4
592.87633	10911.9
596.888	11063.6
600.89682	11271.8
604.9028	11691.9
608.90594	12698.9
612.90624	13761.7
616.90371	13259
620.89834	11825.7
624.89015	11167.1
628.87913	11171
632.86528	11298.2
636.84862	11454.8
640.82913	11401.7
644.80683	11251.3
648.78172	11115.5
652.75379	11077.5
656.72306	11156.6
660.68952	11265.6
664.65319	11204.8
668.61405	11093.9
672.57211	11036.3
676.52738	11063.1
680.47986	11061.7
684.42955	11011.4
688.37646	11035.5
692.32058	11081.2
696.26192	11141.1
700.20048	11233.3
704.13626	11271
708.06928	11246.8
711.99952	11241.5
715.927	11239.2
719.85171	11295
723.77365	11316.7
727.69284	11308
731.60928	11337.8
735.52295	11339.6
739.43388	11357.9
743.34206	11362.7
747.24749	11318.4
751.15017	11355.1
755.05012	11412.7
758.94733	11555.8
762.8418	11939.7
766.73354	12529.6
770.62254	13085.6
774.50882	13363
778.39237	13164.9
782.27321	12563.5
786.15132	12035.9
790.02671	11711.1
793.89938	11542.6
797.76935	11455.9
801.6366	11450.3
805.50115	11472.9
809.36299	11501.6
813.22213	11522.6
817.07857	11533.3
820.93231	11502.2
824.78336	11499.2
828.63172	11507.7
832.47738	11477.3
836.32036	11478.4
840.16066	11480.9
843.99827	11477.7
847.8332	11504.4
851.66546	11500.5
855.49504	11552
859.32195	11552.9
863.1462	11539.5
866.96777	11564.2
870.78668	11597.2
874.60293	11644.8
878.41652	11713.8
882.22745	11774
886.03573	11801.7
889.84136	11821.2
893.64433	11799.1
897.44466	11780.1
901.24235	11745.4
905.0374	11713.3
908.8298	11648.4
912.61957	11622.7
916.40671	11639
920.19121	11651.6
923.97308	11667.7
927.75233	11714
931.52895	11726.8
935.30295	11689.2
939.07433	11603
942.84309	11582.8
946.60924	11581.4
950.37278	11529.9
954.13371	11515.8
957.89203	11469.1
961.64774	11512.5
965.40086	11494.5
969.15137	11476.5
972.89929	11447.3
976.64461	11464.4
980.38733	11501
984.12747	11524.6
987.86502	11583.8
991.59999	11655.2
995.33237	11669.2
999.06217	11795.2
1002.78939	11881.5
1006.51404	11966.9
1010.23611	12078.1
1013.95561	12119.4
1017.67255	12133.9
1021.38692	12136.7
1025.09872	12065.9
1028.80796	12031.1
1032.51465	12013.6
1036.21877	12056.5
1039.92035	12074.4
1043.61937	12067.6
1047.31584	12037.1
1051.00976	12023.8
1054.70114	11995.2
1058.38998	12013.2
1062.07627	12074.6
1065.76003	12104.4
1069.44126	12183.3
1073.11995	12277.6
1076.79611	12415.1
1080.46974	12502.5
1084.14085	12536.5
1087.80943	12591.5
1091.47549	12602.7
1095.13903	12582.5
1098.80005	12471
1102.45857	12415.4
1106.11456	12368
1109.76805	12344.6
1113.41903	12445.3
1117.06751	12514
1120.71348	12697.1
1124.35696	12860.9
1127.99793	13016.9
1131.63641	13060.9
1135.2724	12959.5
1138.90589	12804.8
1142.5369	12701.1
1146.16542	12573.6
1149.79145	12489.1
1153.415	12345.1
1157.03607	12268.5
1160.65467	12295
1164.27079	12383.6
1167.88443	12578.8
1171.49561	12858.6
1175.10432	13314.2
1178.71056	13910.9
1182.31434	14448.1
1185.91565	14727.8
1189.51451	14679.3
1193.11091	14444.1
1196.70485	14180
1200.29634	13919.4
1203.88538	13726.5
1207.47197	13482
1211.05612	13280.5
1214.63782	13110.1
1218.21708	12992.3
1221.79391	12921.6
1225.36829	12866.8
1228.94024	12848.4
1232.50976	12786.9
1236.07685	12774
1239.6415	12775.9
1243.20374	12824.2
1246.76355	12887.2
1250.32093	12926
1253.8759	13023.5
1257.42845	13185.7
1260.97859	13399.4
1264.52631	13528.5
1268.07163	13653.9
1271.61453	13801.1
1275.15503	13872.4
1278.69312	13903.3
1282.22882	13910.2
1285.76211	13987.6
1289.29301	14120.1
1292.82151	14273.9
1296.34761	14475.2
1299.87133	14823.4
1303.39266	15298
1306.9116	15938.5
1310.42815	16559.9
1313.94233	16719.9
1317.45412	16493.9
1320.96354	15990.1
1324.47058	15486.7
1327.97525	15014.9
1331.47754	14704.2
1334.97747	14566.6
1338.47502	14584.4
1341.97022	14793.7
1345.46305	15146.6
1348.95352	15554.5
1352.44163	16104.8
1355.92738	16764.8
1359.41078	17655.1
1362.89183	18376.4
1366.37053	18027.3
1369.84688	16658.3
1373.32088	15295.6
1376.79254	14411.5
1380.26186	13937.6
1383.72883	13691.9
1387.19347	13423.7
1390.65578	13205.8
1394.11575	13005.9
1397.57339	12834.9
1401.0287	12739.8
1404.48168	12716.9
1407.93234	12700.9
1411.38068	12697.1
1414.82669	12726.2
1418.27039	12740.7
1421.71177	12671.5
1425.15083	12608.4
1428.58758	12569.8
1432.02203	12598.7
1435.45416	12659.5
1438.88399	12691.8
1442.31151	12694.5
1445.73673	12719.6
1449.15965	12731.6
1452.58027	12677.8
1455.9986	12593.6
1459.41463	12631.6
1462.82837	12741.4
1466.23982	12833.8
1469.64898	12992.9
1473.05586	13139.5
1476.46045	13227.2
1479.86276	13318.1
1483.26279	13431.8
1486.66054	13540.7
1490.05602	13733.5
1493.44922	14009.5
1496.84016	14462.8
1500.22882	15131.2
1503.61521	15951.7
1506.99934	16778.7
1510.38121	17189.1
1513.76081	17081.2
1517.13816	16288.1
1520.51324	15344.1
1523.88607	14597.6
1527.25665	14106.5
1530.62498	13866.2
1533.99105	13751.3
1537.35488	13691.5
1540.71647	13642.2
1544.07581	13601.7
1547.4329	13581.2
1550.78776	13563
1554.14038	13531.1
1557.49077	13523.4
1560.83892	13582.4
1564.18484	13651.6
1567.52853	13803.5
1570.86999	13982.8
1574.20922	14094.5
1577.54624	14029.1
1580.88103	13791.7
1584.2136	13510.1
1587.54395	13353.1
1590.87208	13415.4
1594.19801	13670.8
1597.52172	14004.5
1600.84321	14129.1
1604.16251	14026.9
1607.47959	13751.9
1610.79447	13462.9
1614.10715	13104.4
1617.41763	12784.2
1620.7259	12567.9
1624.03199	12406.8
1627.33587	12332.4
1630.63757	12373.5
1633.93707	12558.1
1637.23439	12888.4
1640.52951	13351.3
1643.82246	14031.1
1647.11321	14696.4
1650.40179	15023.8
1653.68819	14710.5
1656.97241	13894.9
1660.25446	13062.3
1663.53433	12500.1
1666.81203	12136.6
1670.08756	11947.3
1673.36092	11838
1676.63211	11753.4
1679.90115	11692.5
1683.16801	11621.5
1686.43272	11524.4
1689.69527	11488.3
1692.95567	11431.7
1696.2139	11406.5
1699.46999	11347.4
1702.72392	11324.2
1705.97571	11288.7
1709.22535	11258
1712.47284	11248.7
1715.71819	11218.9
1718.96139	11189.7
1722.20246	11174.5
1725.44139	11124.9
1728.67818	11055.4
1731.91284	11047.3
1735.14537	10997.2
1738.37576	10989.7
1741.60403	10955.1
1744.83017	10944.3
1748.05418	10910.3
1751.27607	10891.2
1754.49584	10877
1757.71349	10893.8
1760.92903	10890.7
1764.14244	10872.1
1767.35375	10851.3
1770.56294	10860.5
1773.77002	10847.3
1776.97499	10829
1780.17785	10827.6
1783.37861	10830.1
1786.57727	10802.5
1789.77382	10784.4
1792.96828	10776.4
1796.16064	10791.8
1799.3509	10733.7
1802.53907	10746.5
1805.72514	10712
1808.90913	10702.5
1812.09102	10659.4
1815.27083	10664.2
1818.44856	10661.1
1821.6242	10641
1824.79776	10639.5
1827.96924	10613.3
1831.13864	10607.1
1834.30597	10605.8
1837.47122	10610.5
1840.6344	10583
1843.7955	10553.9
1846.95454	10543.5
1850.11151	10572.7
1853.26642	10563.3
1856.41926	10554.8
1859.57004	10539.4
1862.71876	10542.9
1865.86542	10528.2
1869.01003	10518.3
1872.15258	10524
1875.29308	10508.9
1878.43152	10500.4
1881.56792	10489
1884.70227	10472
1887.83457	10451.3
1890.96482	10421.6
1894.09304	10427.1
1897.21921	10437.1
1900.34335	10439.9
1903.46544	10407
1906.58551	10421.5
1909.70353	10398.2
1912.81953	10409.2
1915.93349	10375.9
1919.04543	10352.2
1922.15534	10368
1925.26322	10335.9
1928.36908	10346.7
1931.47292	10328.3
1934.57473	10278.6
1937.67453	10265.4
1940.77232	10237.9
1943.86808	10205.2
1946.96184	10199.2
1950.05358	10174.4
1953.14331	10138.8
1956.23103	10138.4
1959.31675	10117.7
1962.40046	10100.4
1965.48217	10078.9
1968.56188	10024.2
1971.63959	9990.6
1974.7153	9973.1
1977.78901	9927
1980.86073	9900.5
1983.93046	9843.9
1986.99819	9842.7
1990.06394	9793.1
1993.1277	9793.4
1996.18947	9772.8
1999.24925	9794.8
2002.30706	9725.3
2005.36288	9689
2008.41672	9707.2
2011.46859	9669.3
2014.51848	9626.2
2017.56639	9608.2
2020.61233	9575.1
2023.6563	9551.6
2026.6983	9532
2029.73833	9507.5
2032.7764	9497.9
2035.8125	9496.1
2038.84664	9463.3
2041.87881	9465.1
2044.90903	9434.9
2047.93729	9427.9
2050.96359	9428.9
2053.98794	9413
2057.01034	9389
2060.03078	9386.6
2063.04927	9362.8
2066.06582	9377
2069.08042	9369.6
2072.09307	9364.2
2075.10378	9337.9
2078.11255	9327.5
2081.11938	9337.8
2084.12426	9364.8
2087.12722	9382.9
2090.12824	9349.4
2093.12732	9345.4
2096.12447	9349.2
2099.11969	9349.1
2102.11299	9381.3
2105.10435	9356.4
2108.09379	9357.2
2111.08131	9365.9
2114.0669	9369.1
2117.05057	9388.2
2120.03233	9397
2123.01216	9406.6
2125.99008	9414.6
2128.96609	9416.4
2131.94018	9414.4
2134.91236	9442.2
2137.88263	9431
2140.851	9445.9
2143.81746	9463.9
2146.78201	9461.8
2149.74466	9456.2
2152.7054	9475.3
2155.66425	9463.3
2158.6212	9462.7
2161.57625	9453.9
2164.52941	9455.9
2167.48067	9463.2
2170.43004	9428.6
2173.37752	9448.7
2176.32311	9462.7
2179.26681	9451
2182.20863	9464.9
2185.14856	9475.5
2188.08661	9477.2
2191.02278	9451.8
2193.95707	9451.8
2196.88948	9431.8
2199.82001	9455.5
2202.74867	9453.9
2205.67545	9419.8
2208.60037	9407.9
2211.52341	9363.4
2214.44458	9382.4
2217.36388	9375.6
2220.28132	9330.3
2223.1969	9308.9
2226.11061	9300.5
2229.02246	9309
2231.93245	9275.6
2234.84058	9286.4
2237.74686	9275.3
2240.65128	9244.9
2243.55385	9241.9
2246.45456	9254.6
2249.35343	9230
2252.25044	9224.7
2255.14561	9217.1
2258.03893	9185.9
2260.93041	9192.6
2263.82004	9166.5
2266.70783	9143.3
2269.59378	9105.8
2272.4779	9121.6
2275.36017	9079.7
2278.24061	9050.7
2281.11922	9066
2283.996	9043.5
2286.87094	9046.7
2289.74405	9016.1
2292.61534	8989.9
2295.4848	8975
2298.35243	8989.5
2301.21824	8993.4
2304.08223	9010.4
2306.94439	8975.6
2309.80474	8961.7
2312.66327	8972.9
2315.51999	8939
2318.37489	8944.4
2321.22797	8938.2
2324.07925	8902.6
2326.92871	8875.9
2329.77637	8890.2
2332.62222	8880.6
2335.46626	8857.2
2338.3085	8835.5
2341.14893	8828.7
2343.98756	8824.6
2346.8244	8812
2349.65943	8831.4
2352.49267	8808.2
2355.32411	8817.3
2358.15376	8810.4
2360.98161	8796
2363.80768	8810.9
2366.63195	8785.5
2369.45444	8785.4
2372.27514	8782.4
2375.09405	8784
2377.91118	8764.1
2380.72652	8748.6
2383.54009	8729.3
2386.35187	8721.8
2389.16188	8692.8
2391.97011	8675.6
2394.77657	8648
2397.58125	8654.4
2400.38416	8639.3
2403.18529	8640
2405.98466	8591.7
2408.78226	8582.6
2411.57809	8602.6
2414.37216	8595.7
2417.16446	8586
2419.955	8574.8
2422.74378	8567.8
2425.5308	8540.5
2428.31606	8540.9
2431.09956	8551.3
2433.88131	8536.5
2436.6613	8523.9
2439.43954	8505.8
2442.21603	8524.2
2444.99077	8498.6
2447.76377	8499.2
2450.53501	8472.5
2453.30451	8470.8
2456.07226	8465.2
2458.83827	8427.8
2461.60254	8457
2464.36507	8443.6
2467.12586	8439.3
2469.88492	8420.4
2472.64224	8422.6
2475.39782	8432.1
2478.15167	8414.9
2480.90379	8414.3
2483.65417	8415.5
2486.40283	8410.9
2489.14976	8425.3
2491.89497	8408.5
2494.63845	8397.9
2497.3802	8401.1
2500.12024	8387.6
2502.85855	8363.8
2505.59514	8381.6
2508.33002	8375.4
2511.06318	8371.9
2513.79462	8331.3
2516.52435	8326.5
2519.25237	8312.7
2521.97867	8285.2
2524.70327	8284.4
2527.42616	8265.4
2530.14734	8282.8
2532.86681	8263.8
2535.58458	8255.3
2538.30065	8222.5
2541.01501	8260.6
2543.72768	8218.7
2546.43864	8222
2549.14791	8195.8
2551.85548	8177.9
2554.56136	8168.7
2557.26554	8152.3
2559.96803	8147.4
2562.66883	8142.3
2565.36794	8101.5
2568.06536	8126.6
2570.7611	8106.3
2573.45514	8074.9
2576.14751	8079
2578.83819	8036.6
2581.52719	8048.2
2584.21451	8022.9
2586.90015	8006.5
2589.58411	8014
2592.2664	7980.8
2594.94701	7973.8
2597.62594	7966.7
2600.30321	7950.1
2602.9788	7944.3
2605.65273	7909.2
2608.32498	7920.4
2610.99557	7917.4
2613.66449	7909.8
2616.33175	7886.5
2618.99734	7885.5
2621.66128	7863.9
2624.32355	7878.8
2626.98416	7850.7
2629.64311	7834.8
2632.30041	7826.7
2634.95605	7811.7
2637.61004	7816.6
2640.26238	7791.6
2642.91306	7799.7
2645.56209	7776.5
2648.20948	7766.5
2650.85521	7806.8
2653.4993	7779.9
2656.14175	7768.5
2658.78255	7795.9
2661.42171	7775.8
2664.05923	7776.5
2666.6951	7783.8
2669.32934	7775.6
2671.96194	7778.8
2674.59291	7779.1
2677.22224	7778.7
2679.84993	7794.3
2682.476	7780
2685.10043	7777.5
2687.72324	7744.2
2690.34441	7747.9
2692.96396	7737.9
2695.58188	7767.3
2698.19818	7760.4
2700.81285	7747.5
2703.4259	7741.8
2706.03733	7742.3
2708.64714	7747.3
2711.25533	7742.2
2713.86191	7727.1
2716.46687	7753.6
2719.07021	7744.4
2721.67194	7744.3
2724.27206	7727.5
2726.87057	7744.8
2729.46747	7741.5
2732.06276	7746.5
2734.65644	7756.8
2737.24852	7753.2
2739.83899	7726.8
2742.42786	7743.1
2745.01513	7715.2
2747.60079	7716.8
2750.18486	7682.7
2752.76733	7698.9
2755.3482	7656.9
2757.92747	7642.1
2760.50515	7628.9
2763.08123	7621.8
2765.65573	7613.5
2768.22863	7623
2770.79994	7608.4
2773.36967	7610
2775.9378	7588.4
2778.50435	7574
2781.06932	7568.3
2783.6327	7564.6
2786.1945	7563.9
2788.75471	7562.6
2791.31335	7543.5
2793.87041	7514
2796.42589	7524.2
2798.97979	7510.5
2801.53212	7459.9
2804.08288	7487.7
2806.63206	7461.1
2809.17967	7431.7
2811.72571	7392.9
2814.27018	7424.4
2816.81308	7389.7
2819.35442	7385.5
2821.89419	7369.8
2824.43239	7353.4
2826.96904	7339.5
2829.50412	7332.7
2832.03763	7309.1
2834.56959	7313.4
2837.1	7303.6
2839.62884	7288.8
2842.15613	7273.1
2844.68186	7294.9
2847.20604	7277.4
2849.72867	7292.3
2852.24974	7252.7
2854.76927	7242.1
2857.28724	7253.7
2859.80367	7268.1
2862.31855	7249.5
2864.83189	7218.9
2867.34368	7208.1
2869.85393	7203.1
2872.36264	7185.2
2874.8698	7174.5
2877.37543	7199.2
2879.87952	7197.6
2882.38207	7183.5
2884.88308	7189.6
2887.38256	7179.7
2889.88051	7170.8
2892.37692	7163.4
2894.8718	7176.4
2897.36515	7164.6
2899.85698	7186.6
2902.34727	7199.4
2904.83604	7180.5
2907.32328	7210
2909.809	7196.8
2912.29319	7203.4
2914.77587	7194.1
2917.25702	7179.3
2919.73665	7171.1
2922.21476	7193.5
2924.69136	7185.5
2927.16644	7187.7
2929.64	7185
2932.11205	7183.6
2934.58258	7158.8
2937.05161	7182.1
2939.51912	7162.3
2941.98513	7138.1
2944.44962	7142.6
2946.91261	7144.4
2949.37409	7139.4
2951.83407	7130.4
2954.29254	7116.4
2956.74951	7133.9
2959.20498	7112.9
2961.65895	7139.2
2964.11142	7134.9
2966.56239	7121.4
2969.01186	7126.2
2971.45984	7106.9
2973.90632	7142.3
2976.35131	7127.6
2978.7948	7115.1
2981.23681	7103.5
2983.67732	7102.4
2986.11635	7068.5
2988.55388	7052
2990.98993	7055.5
2993.4245	7046.4
2995.85758	7024.3
2998.28917	7014.7
3000.71928	6988.9
3003.14791	6972
3005.57506	6973.1
3008.00073	6937.3
3010.42493	6952.9
3012.84764	6940.6
3015.26888	6930.7
3017.68865	6923.9
3020.10694	6911.4
3022.52376	6896
3024.9391	6904.2
3027.35298	6902.3
3029.76539	6871.7
3032.17632	6885.3
3034.5858	6876.1
3036.9938	6862.4
3039.40034	6853.2
3041.80542	6868.7
3044.20903	6855.5
3046.61118	6849.3
3049.01187	6824.5
3051.4111	6830.4
3053.80888	6825.8
3056.20519	6817.3
3058.60005	6784.4
3060.99345	6777.4
3063.3854	6779.6
3065.7759	6760
3068.16494	6727.4
3070.55254	6730.4
3072.93868	6719
3075.32338	6709.3
3077.70662	6699.9
3080.08842	6686.7
3082.46878	6688.4
3084.84769	6692.6
3087.22515	6679.1
3089.60118	6676.5
3091.97576	6687.2
3094.3489	6695.5
3096.72061	6693.3
3099.09087	6701.3
3101.4597	6714.5
3103.82709	6703.7
3106.19305	6688.5
3108.55757	6692.5
3110.92066	6698.8
3113.28232	6675.8
3115.64255	6673
3118.00134	6677.1
3120.35871	6680
3122.71466	6666.2
3125.06917	6646.3
3127.42226	6624.9
3129.77393	6640.7
3132.12417	6625.8
3134.47299	6628.3
3136.82039	6603.5
3139.16636	6631.9
3141.51092	6612.2
3143.85406	6625.7
3146.19579	6624.6
3148.53609	6636.9
3150.87499	6635.4
3153.21246	6653.8
3155.54853	6659.5
3157.88318	6659.6
3160.21642	6675.8
3162.54826	6658.7
3164.87868	6676.5
3167.2077	6685.1
3169.5353	6695.1
3171.86151	6678.8
3174.18631	6673.7
3176.5097	6684.1
3178.83169	6677.2
3181.15228	6680.7
3183.47147	6652
3185.78926	6637.9
3188.10565	6619.2
3190.42065	6650.4
3192.73424	6644
3195.04645	6645
3197.35725	6627.4
3199.66667	6635.8
3201.97469	6616.4
3204.28132	6638
3206.58656	6636.6
3208.8904	6647.9
3211.19287	6684.7
3213.49394	6653
3215.79363	6656.8
3218.09193	6667.9
3220.38884	6638.7
3222.68438	6670.8
3224.97853	6671.9
3227.2713	6662.3
3229.56269	6663.3
3231.8527	6647.9
3234.14133	6651.6
3236.42858	6618.9
3238.71446	6621.3
3240.99896	6586.4
3243.28209	6591
3245.56384	6572.1
3247.84423	6557.1
3250.12324	6565.5
3252.40088	6557.6
3254.67715	6562.3
3256.95205	6547.9
3259.22558	6581.1
3261.49775	6562.2
3263.76855	6573.2
3266.03799	6564.9
3268.30606	6528.7
3270.57277	6553.5
3272.83812	6525.3
3275.10211	6520.5
3277.36474	6489
3279.62601	6488.8
3281.88593	6469.7
3284.14448	6471.1
3286.40168	6474
3288.65753	6486.4
3290.91202	6453.7
3293.16516	6450.6
3295.41695	6432
3297.66738	6415.3
3299.91647	6392.1
3302.16421	6340.2
3304.4106	6317.8
3306.65564	6284.4
3308.89933	6229.2
3311.14169	6179.6
3313.38269	6146.9
3315.62236	6123.7
3317.86068	6076.2
3320.09766	6017.8
3322.3333	6001.7
3324.5676	5962.7
3326.80056	5881.4
3329.03219	5833.8
3331.26248	0.7
3333.49143	0.6
3335.71905	0.1
