Data from AgNPs_UA_20uM_CRN_0uM_R6G_10uM_Q_RamanShift__29__13-10-12-039.txt Node

Date: Mon Jul 18 13:10:12 BST 2022
User: TCL
Spectrometer: QEP01345
Trigger mode: 4
Integration Time (sec): 7.000000E0
Scans to average: 10
Electric dark correction enabled: true
Nonlinearity correction enabled: false
Boxcar width: 0
XAxis mode: Raman Shifts
Number of Pixels in Spectrum: 1044
>>>>>Begin Spectral Data<<<<<
46.04893	-1.325
50.45542	-1.525
54.85868	0.275
59.25871	-0.525
63.6555	99.975
68.04907	106.675
72.43941	112.575
76.82654	117.175
81.21044	121.775
85.59113	123.375
89.96862	130.375
94.34289	133.975
98.71396	142.075
103.08183	141.675
107.4465	148.775
111.80798	150.975
116.16626	153.575
120.52136	161.575
124.87327	164.275
129.222	173.675
133.56755	183.675
137.90993	199.475
142.24913	215.475
146.58517	245.875
150.91804	284.175
155.24774	339.275
159.57429	415.475
163.89768	531.375
168.21792	704.675
172.53501	955.875
176.84895	1325.275
181.15975	1846.975
185.46741	2570.775
189.77193	3531.375
194.07331	4718.475
198.37157	6050.075
202.6667	7415.875
206.9587	8821.275
211.24758	10170.375
215.53334	11601.775
219.81599	13153.275
224.09553	14914.675
228.37195	16861.275
232.64527	18990.775
236.91549	21148.875
241.18261	23170.375
245.44663	25003.875
249.70755	26576.975
253.96539	27953.675
258.22014	29073.175
262.4718	30037.575
266.72039	30705.475
270.96589	31051.975
275.20832	31042.975
279.44768	30746.275
283.68397	30410.675
287.91719	30266.575
292.14735	30331.375
296.37445	30662.075
300.59849	31224.775
304.81948	31900.875
309.03742	32203.275
313.25231	31960.875
317.46415	30852.175
321.67296	29364.175
325.87872	28221.775
330.08145	27776.575
334.28114	27862.375
338.47781	28249.775
342.67145	28859.275
346.86207	29709.775
351.04966	30893.775
355.23424	32138.075
359.4158	33153.175
363.59435	33683.375
367.76989	33956.775
371.94243	33986.075
376.11196	34021.275
380.27849	33996.075
384.44203	33954.675
388.60257	33858.475
392.76012	33894.675
396.91468	34261.175
401.06626	34838.475
405.21485	35235.175
409.36047	34798.775
413.50311	33692.175
417.64277	32874.775
421.77947	32489.775
425.9132	32430.575
430.04396	32539.575
434.17176	32877.075
438.2966	33369.675
442.41849	34193.675
446.53742	35286.775
450.6534	36452.975
454.76644	37160.575
458.87653	37210.875
462.98368	36863.975
467.08789	36200.075
471.18916	35456.975
475.2875	34713.375
479.38291	34142.675
483.4754	33664.075
487.56496	33189.975
491.6516	32843.475
495.73531	32576.175
499.81612	32518.775
503.89401	32748.175
507.96899	32997.275
512.04106	33191.675
516.11023	33459.175
520.1765	33525.875
524.23987	33465.875
528.30034	33142.775
532.35792	32794.875
536.41261	32385.475
540.46441	31924.075
544.51333	31923.175
548.55936	32314.275
552.60252	32998.075
556.64279	33755.775
560.6802	34169.075
564.71473	34637.475
568.7464	35508.075
572.7752	36044.175
576.80114	35691.675
580.82422	35367.775
584.84444	35507.475
588.86181	35933.475
592.87633	36628.575
596.888	37219.875
600.89682	38211.075
604.9028	41635.975
608.90594	49541.975
612.90624	56821.775
616.90371	51201.075
620.89834	39607.275
624.89015	35294.575
628.87913	34838.275
632.86528	34796.375
636.84862	34644.975
640.82913	33821.975
644.80683	32552.575
648.78172	31779.475
652.75379	31942.775
656.72306	32974.375
660.68952	33968.975
664.65319	33468.275
668.61405	32476.575
672.57211	32184.675
676.52738	32100.475
680.47986	32021.175
684.42955	31875.575
688.37646	31878.775
692.32058	32125.275
696.26192	32407.275
700.20048	32780.875
704.13626	32993.575
708.06928	32826.275
711.99952	32586.275
715.927	32532.875
719.85171	32586.975
723.77365	32488.075
727.69284	32222.275
731.60928	32004.675
735.52295	32115.775
739.43388	32265.775
743.34206	32455.675
747.24749	32609.775
751.15017	32944.375
755.05012	33609.875
758.94733	35156.475
762.8418	38355.675
766.73354	43101.475
770.62254	47234.575
774.50882	48301.575
778.39237	45407.475
782.27321	40370.475
786.15132	36245.575
790.02671	33989.775
793.89938	32977.375
797.76935	32577.675
801.6366	32420.375
805.50115	32302.975
809.36299	32153.775
813.22213	31931.975
817.07857	31884.175
820.93231	31916.375
824.78336	32001.675
828.63172	32124.075
832.47738	32151.575
836.32036	32221.675
840.16066	32239.975
843.99827	32260.175
847.8332	32227.075
851.66546	32098.675
855.49504	32057.675
859.32195	31986.875
863.1462	31809.675
866.96777	31706.275
870.78668	31678.775
874.60293	31695.375
878.41652	31809.375
882.22745	31975.375
886.03573	32114.475
889.84136	32061.775
893.64433	31903.075
897.44466	31792.875
901.24235	31707.375
905.0374	31645.475
908.8298	31582.775
912.61957	31608.475
916.40671	31914.875
920.19121	32334.275
923.97308	32809.275
927.75233	33144.275
931.52895	33186.175
935.30295	32735.975
939.07433	31963.275
942.84309	31396.275
946.60924	31147.875
950.37278	30972.575
954.13371	30753.275
957.89203	30634.675
961.64774	30536.075
965.40086	30393.175
969.15137	30364.475
972.89929	30263.175
976.64461	30295.975
980.38733	30376.575
984.12747	30565.175
987.86502	30828.275
991.59999	31208.975
995.33237	31911.375
999.06217	33199.375
1002.78939	34499.675
1006.51404	35131.875
1010.23611	35481.775
1013.95561	35749.575
1017.67255	35784.375
1021.38692	35446.075
1025.09872	35344.775
1028.80796	35989.875
1032.51465	37261.975
1036.21877	38121.075
1039.92035	38039.575
1043.61937	37333.575
1047.31584	36058.875
1051.00976	34973.475
1054.70114	34400.375
1058.38998	34284.675
1062.07627	34367.675
1065.76003	34444.375
1069.44126	34618.275
1073.11995	34897.475
1076.79611	35198.975
1080.46974	35530.575
1084.14085	36110.875
1087.80943	36698.775
1091.47549	36806.475
1095.13903	36290.775
1098.80005	35367.075
1102.45857	34698.575
1106.11456	34552.075
1109.76805	34734.075
1113.41903	35329.475
1117.06751	36234.975
1120.71348	37201.275
1124.35696	38174.475
1127.99793	38809.975
1131.63641	38474.275
1135.2724	37429.075
1138.90589	36553.775
1142.5369	36061.275
1146.16542	35707.675
1149.79145	35664.575
1153.415	35961.875
1157.03607	36351.875
1160.65467	37045.875
1164.27079	38390.375
1167.88443	40379.375
1171.49561	43342.075
1175.10432	47740.275
1178.71056	53248.675
1182.31434	57628.875
1185.91565	59167.075
1189.51451	57864.775
1193.11091	54653.975
1196.70485	51159.775
1200.29634	48522.475
1203.88538	46456.575
1207.47197	44441.875
1211.05612	42774.975
1214.63782	42087.675
1218.21708	42113.275
1221.79391	42419.875
1225.36829	42530.275
1228.94024	42075.975
1232.50976	41391.675
1236.07685	40998.275
1239.6415	40947.175
1243.20374	41089.875
1246.76355	41518.475
1250.32093	42268.575
1253.8759	43321.675
1257.42845	44560.075
1260.97859	45709.875
1264.52631	46769.175
1268.07163	47868.575
1271.61453	49053.975
1275.15503	50461.175
1278.69312	51711.075
1282.22882	52873.975
1285.76211	53982.175
1289.29301	55236.875
1292.82151	56653.375
1296.34761	58741.475
1299.87133	61901.275
1303.39266	66588.975
1306.9116	72863.575
1310.42815	79039.675
1313.94233	82008.875
1317.45412	80499.175
1320.96354	76498.675
1324.47058	72295.475
1327.97525	68679.175
1331.47754	66526.875
1334.97747	65900.275
1338.47502	66483.775
1341.97022	67672.775
1345.46305	68736.775
1348.95352	69878.075
1352.44163	71843.375
1355.92738	76007.575
1359.41078	83008.175
1362.89183	88373.075
1366.37053	84525.775
1369.84688	74050.775
1373.32088	64224.975
1376.79254	57929.075
1380.26186	54794.075
1383.72883	53344.775
1387.19347	52353.275
1390.65578	51331.275
1394.11575	50846.675
1397.57339	51006.575
1401.0287	51847.275
1404.48168	52787.575
1407.93234	53576.775
1411.38068	54008.475
1414.82669	53591.375
1418.27039	52143.675
1421.71177	50399.775
1425.15083	48836.975
1428.58758	48067.675
1432.02203	48186.975
1435.45416	48738.475
1438.88399	49302.675
1442.31151	49706.075
1445.73673	50200.675
1449.15965	50641.375
1452.58027	50689.475
1455.9986	50433.975
1459.41463	50468.475
1462.82837	51061.375
1466.23982	52057.575
1469.64898	53181.675
1473.05586	54004.175
1476.46045	54396.575
1479.86276	54866.075
1483.26279	55366.575
1486.66054	56053.375
1490.05602	57177.875
1493.44922	58514.975
1496.84016	60670.475
1500.22882	63984.175
1503.61521	68538.275
1506.99934	73686.275
1510.38121	77580.375
1513.76081	77930.575
1517.13816	73877.675
1520.51324	67730.575
1523.88607	62315.975
1527.25665	58961.775
1530.62498	57084.875
1533.99105	56011.375
1537.35488	55306.975
1540.71647	54909.475
1544.07581	54496.275
1547.4329	53832.075
1550.78776	53116.775
1554.14038	52663.575
1557.49077	52468.675
1560.83892	52571.175
1564.18484	53035.375
1567.52853	53559.275
1570.86999	54069.075
1574.20922	54426.775
1577.54624	54234.875
1580.88103	52848.775
1584.2136	51646.475
1587.54395	51961.175
1590.87208	54152.075
1594.19801	58080.475
1597.52172	62331.775
1600.84321	63820.575
1604.16251	61613.475
1607.47959	57074.575
1610.79447	52135.175
1614.10715	47806.775
1617.41763	44561.875
1620.7259	42502.075
1624.03199	41623.075
1627.33587	41894.475
1630.63757	43141.875
1633.93707	45490.875
1637.23439	48984.175
1640.52951	53464.675
1643.82246	58719.875
1647.11321	63327.175
1650.40179	64662.775
1653.68819	60838.175
1656.97241	53412.875
1660.25446	46096.175
1663.53433	40989.875
1666.81203	37769.075
1670.08756	35739.175
1673.36092	34453.375
1676.63211	33653.875
1679.90115	32998.175
1683.16801	32514.875
1686.43272	32155.375
1689.69527	31905.175
1692.95567	31697.975
1696.2139	31530.875
1699.46999	31465.675
1702.72392	31401.475
1705.97571	31377.275
1709.22535	31343.275
1712.47284	31341.275
1715.71819	31345.275
1718.96139	31307.875
1722.20246	31161.975
1725.44139	31055.875
1728.67818	30872.875
1731.91284	30703.975
1735.14537	30598.075
1738.37576	30464.575
1741.60403	30395.275
1744.83017	30253.975
1748.05418	30283.675
1751.27607	30146.775
1754.49584	30141.075
1757.71349	30107.875
1760.92903	30093.375
1764.14244	30098.575
1767.35375	30039.475
1770.56294	30011.475
1773.77002	29963.175
1776.97499	29924.975
1780.17785	29905.775
1783.37861	29822.875
1786.57727	29821.475
1789.77382	29718.275
1792.96828	29720.475
1796.16064	29689.075
1799.3509	29665.775
1802.53907	29620.275
1805.72514	29565.875
1808.90913	29511.875
1812.09102	29492.475
1815.27083	29409.475
1818.44856	29412.975
1821.6242	29370.875
1824.79776	29324.175
1827.96924	29269.275
1831.13864	29276.575
1834.30597	29291.175
1837.47122	29179.375
1840.6344	29179.375
1843.7955	29200.075
1846.95454	29182.275
1850.11151	29216.975
1853.26642	29238.375
1856.41926	29242.475
1859.57004	29221.775
1862.71876	29240.175
1865.86542	29298.875
1869.01003	29331.375
1872.15258	29247.975
1875.29308	29276.075
1878.43152	29233.975
1881.56792	29248.075
1884.70227	29222.075
1887.83457	29250.175
1890.96482	29191.975
1894.09304	29197.475
1897.21921	29204.375
1900.34335	29181.575
1903.46544	29129.075
1906.58551	29154.575
1909.70353	29111.275
1912.81953	29160.775
1915.93349	29147.475
1919.04543	29065.375
1922.15534	29020.775
1925.26322	29021.375
1928.36908	29036.475
1931.47292	28926.575
1934.57473	28863.775
1937.67453	28796.275
1940.77232	28708.175
1943.86808	28598.575
1946.96184	28523.975
1950.05358	28411.075
1953.14331	28330.675
1956.23103	28235.975
1959.31675	28155.675
1962.40046	28075.975
1965.48217	27993.975
1968.56188	27978.675
1971.63959	27913.275
1974.7153	27806.175
1977.78901	27731.475
1980.86073	27680.675
1983.93046	27558.875
1986.99819	27486.075
1990.06394	27418.675
1993.1277	27321.475
1996.18947	27228.375
1999.24925	27238.875
2002.30706	27132.675
2005.36288	27094.375
2008.41672	27056.675
2011.46859	27012.075
2014.51848	26894.575
2017.56639	26867.975
2020.61233	26826.775
2023.6563	26777.875
2026.6983	26693.875
2029.73833	26627.275
2032.7764	26591.475
2035.8125	26545.375
2038.84664	26523.175
2041.87881	26512.175
2044.90903	26452.575
2047.93729	26374.175
2050.96359	26409.175
2053.98794	26347.175
2057.01034	26360.275
2060.03078	26342.575
2063.04927	26304.575
2066.06582	26331.075
2069.08042	26328.275
2072.09307	26293.075
2075.10378	26277.675
2078.11255	26250.275
2081.11938	26258.475
2084.12426	26183.675
2087.12722	26167.875
2090.12824	26153.775
2093.12732	26166.975
2096.12447	26151.375
2099.11969	26168.475
2102.11299	26213.175
2105.10435	26193.275
2108.09379	26149.075
2111.08131	26187.875
2114.0669	26209.075
2117.05057	26240.875
2120.03233	26229.975
2123.01216	26262.875
2125.99008	26282.275
2128.96609	26315.975
2131.94018	26413.975
2134.91236	26465.075
2137.88263	26423.475
2140.851	26484.375
2143.81746	26515.875
2146.78201	26524.875
2149.74466	26573.475
2152.7054	26485.975
2155.66425	26554.775
2158.6212	26474.675
2161.57625	26418.475
2164.52941	26487.075
2167.48067	26538.275
2170.43004	26499.275
2173.37752	26490.875
2176.32311	26496.775
2179.26681	26467.275
2182.20863	26446.575
2185.14856	26520.675
2188.08661	26507.175
2191.02278	26546.075
2193.95707	26515.475
2196.88948	26531.575
2199.82001	26519.975
2202.74867	26510.475
2205.67545	26507.375
2208.60037	26472.675
2211.52341	26469.875
2214.44458	26489.875
2217.36388	26458.575
2220.28132	26408.875
2223.1969	26328.775
2226.11061	26293.675
2229.02246	26185.775
2231.93245	26222.275
2234.84058	26213.375
2237.74686	26108.375
2240.65128	26068.475
2243.55385	26043.375
2246.45456	25997.475
2249.35343	25972.175
2252.25044	25945.575
2255.14561	25907.875
2258.03893	25947.175
2260.93041	25875.675
2263.82004	25835.875
2266.70783	25808.275
2269.59378	25741.075
2272.4779	25732.475
2275.36017	25707.275
2278.24061	25649.875
2281.11922	25614.475
2283.996	25555.275
2286.87094	25550.575
2289.74405	25455.475
2292.61534	25475.675
2295.4848	25478.475
2298.35243	25528.275
2301.21824	25535.575
2304.08223	25537.075
2306.94439	25510.275
2309.80474	25515.375
2312.66327	25607.475
2315.51999	25645.775
2318.37489	25633.975
2321.22797	25602.975
2324.07925	25570.475
2326.92871	25548.875
2329.77637	25596.275
2332.62222	25580.675
2335.46626	25542.475
2338.3085	25500.975
2341.14893	25535.675
2343.98756	25590.675
2346.8244	25631.975
2349.65943	25708.775
2352.49267	25700.775
2355.32411	25692.275
2358.15376	25645.775
2360.98161	25612.075
2363.80768	25632.475
2366.63195	25610.575
2369.45444	25514.975
2372.27514	25495.475
2375.09405	25435.075
2377.91118	25313.675
2380.72652	25245.775
2383.54009	25161.575
2386.35187	25184.175
2389.16188	25142.175
2391.97011	25125.375
2394.77657	25077.175
2397.58125	25034.875
2400.38416	25020.575
2403.18529	24937.075
2405.98466	24936.275
2408.78226	24830.175
2411.57809	24803.575
2414.37216	24733.075
2417.16446	24684.475
2419.955	24644.475
2422.74378	24620.275
2425.5308	24593.575
2428.31606	24609.675
2431.09956	24613.375
2433.88131	24591.575
2436.6613	24577.075
2439.43954	24603.775
2442.21603	24590.375
2444.99077	24547.475
2447.76377	24562.175
2450.53501	24522.475
2453.30451	24533.675
2456.07226	24513.275
2458.83827	24530.375
2461.60254	24533.175
2464.36507	24529.375
2467.12586	24469.475
2469.88492	24524.475
2472.64224	24543.475
2475.39782	24502.475
2478.15167	24571.675
2480.90379	24625.375
2483.65417	24687.275
2486.40283	24677.675
2489.14976	24771.175
2491.89497	24747.175
2494.63845	24810.075
2497.3802	24782.975
2500.12024	24820.175
2502.85855	24771.375
2505.59514	24703.575
2508.33002	24645.375
2511.06318	24617.475
2513.79462	24577.075
2516.52435	24491.975
2519.25237	24479.175
2521.97867	24496.275
2524.70327	24448.575
2527.42616	24431.175
2530.14734	24464.975
2532.86681	24371.375
2535.58458	24414.875
2538.30065	24464.175
2541.01501	24452.775
2543.72768	24468.675
2546.43864	24429.275
2549.14791	24385.475
2551.85548	24378.275
2554.56136	24348.175
2557.26554	24320.175
2559.96803	24297.475
2562.66883	24254.275
2565.36794	24200.475
2568.06536	24238.575
2570.7611	24170.375
2573.45514	24092.875
2576.14751	24146.775
2578.83819	24116.075
2581.52719	24168.475
2584.21451	24149.075
2586.90015	24121.175
2589.58411	24122.875
2592.2664	24146.975
2594.94701	24177.775
2597.62594	24181.375
2600.30321	24126.175
2602.9788	24117.475
2605.65273	24140.875
2608.32498	24106.175
2610.99557	24074.775
2613.66449	24103.475
2616.33175	24127.075
2618.99734	24157.675
2621.66128	24158.375
2624.32355	24181.475
2626.98416	24137.875
2629.64311	24136.775
2632.30041	24131.775
2634.95605	24100.875
2637.61004	24095.075
2640.26238	24082.975
2642.91306	24022.875
2645.56209	23978.775
2648.20948	23924.075
2650.85521	23932.575
2653.4993	23913.175
2656.14175	23940.275
2658.78255	23973.975
2661.42171	23986.575
2664.05923	24063.775
2666.6951	24035.675
2669.32934	24083.775
2671.96194	24087.775
2674.59291	24051.575
2677.22224	23998.775
2679.84993	24034.875
2682.476	24031.275
2685.10043	24094.975
2687.72324	24005.675
2690.34441	23980.475
2692.96396	23963.575
2695.58188	23987.875
2698.19818	23924.675
2700.81285	23924.275
2703.4259	23921.075
2706.03733	23904.875
2708.64714	23908.075
2711.25533	23952.675
2713.86191	23897.775
2716.46687	23983.075
2719.07021	23980.175
2721.67194	24083.475
2724.27206	24046.375
2726.87057	24041.175
2729.46747	24049.975
2732.06276	24097.075
2734.65644	24100.475
2737.24852	24087.675
2739.83899	24018.975
2742.42786	24014.475
2745.01513	23967.475
2747.60079	23979.275
2750.18486	23995.275
2752.76733	23949.975
2755.3482	23959.875
2757.92747	23966.875
2760.50515	23906.175
2763.08123	23874.775
2765.65573	23877.575
2768.22863	23927.975
2770.79994	23924.575
2773.36967	23935.275
2775.9378	23854.175
2778.50435	23849.975
2781.06932	23840.575
2783.6327	23812.775
2786.1945	23812.075
2788.75471	23801.175
2791.31335	23786.375
2793.87041	23792.275
2796.42589	23701.075
2798.97979	23743.975
2801.53212	23707.575
2804.08288	23698.175
2806.63206	23640.875
2809.17967	23640.175
2811.72571	23533.475
2814.27018	23510.575
2816.81308	23523.075
2819.35442	23481.675
2821.89419	23474.975
2824.43239	23482.675
2826.96904	23504.275
2829.50412	23507.175
2832.03763	23459.075
2834.56959	23444.875
2837.1	23372.175
2839.62884	23370.675
2842.15613	23378.475
2844.68186	23375.075
2847.20604	23316.275
2849.72867	23359.775
2852.24974	23364.475
2854.76927	23362.975
2857.28724	23334.975
2859.80367	23298.275
2862.31855	23278.875
2864.83189	23232.575
2867.34368	23244.475
2869.85393	23236.275
2872.36264	23184.775
2874.8698	23150.975
2877.37543	23196.475
2879.87952	23196.075
2882.38207	23163.675
2884.88308	23163.375
2887.38256	23203.075
2889.88051	23153.775
2892.37692	23210.975
2894.8718	23225.475
2897.36515	23232.175
2899.85698	23252.875
2902.34727	23319.775
2904.83604	23315.575
2907.32328	23398.475
2909.809	23404.075
2912.29319	23410.175
2914.77587	23398.575
2917.25702	23411.475
2919.73665	23365.775
2922.21476	23392.675
2924.69136	23327.875
2927.16644	23338.975
2929.64	23254.875
2932.11205	23234.275
2934.58258	23136.775
2937.05161	23154.875
2939.51912	23136.675
2941.98513	23116.175
2944.44962	23107.575
2946.91261	23062.775
2949.37409	23132.975
2951.83407	23114.375
2954.29254	23134.275
2956.74951	23091.775
2959.20498	23112.475
2961.65895	23077.475
2964.11142	23076.975
2966.56239	23060.675
2969.01186	23012.775
2971.45984	22953.575
2973.90632	22976.175
2976.35131	22916.175
2978.7948	22899.975
2981.23681	22806.475
2983.67732	22803.975
2986.11635	22761.475
2988.55388	22721.775
2990.98993	22652.975
2993.4245	22587.475
2995.85758	22589.075
2998.28917	22502.375
3000.71928	22450.675
3003.14791	22387.775
3005.57506	22361.075
3008.00073	22279.575
3010.42493	22255.275
3012.84764	22213.075
3015.26888	22218.175
3017.68865	22156.575
3020.10694	22102.275
3022.52376	22071.775
3024.9391	22070.075
3027.35298	22073.975
3029.76539	22067.475
3032.17632	22026.675
3034.5858	22023.875
3036.9938	22023.175
3039.40034	21994.675
3041.80542	21968.975
3044.20903	21936.975
3046.61118	21920.375
3049.01187	21837.575
3051.4111	21853.475
3053.80888	21813.175
3056.20519	21801.175
3058.60005	21731.375
3060.99345	21700.675
3063.3854	21620.975
3065.7759	21572.375
3068.16494	21496.075
3070.55254	21416.075
3072.93868	21390.675
3075.32338	21308.775
3077.70662	21253.875
3080.08842	21192.975
3082.46878	21189.675
3084.84769	21205.075
3087.22515	21195.475
3089.60118	21194.375
3091.97576	21179.575
3094.3489	21163.075
3096.72061	21143.575
3099.09087	21155.875
3101.4597	21101.475
3103.82709	21129.675
3106.19305	21122.275
3108.55757	21145.175
3110.92066	21079.775
3113.28232	21127.775
3115.64255	21055.275
3118.00134	21003.675
3120.35871	20957.075
3122.71466	20912.475
3125.06917	20842.175
3127.42226	20814.275
3129.77393	20831.175
3132.12417	20770.475
3134.47299	20757.675
3136.82039	20747.775
3139.16636	20713.075
3141.51092	20749.775
3143.85406	20747.175
3146.19579	20741.575
3148.53609	20784.375
3150.87499	20812.475
3153.21246	20773.575
3155.54853	20809.575
3157.88318	20781.275
3160.21642	20805.775
3162.54826	20834.275
3164.87868	20818.075
3167.2077	20832.775
3169.5353	20823.375
3171.86151	20807.275
3174.18631	20748.675
3176.5097	20749.975
3178.83169	20709.275
3181.15228	20770.175
3183.47147	20672.075
3185.78926	20679.075
3188.10565	20630.975
3190.42065	20655.575
3192.73424	20620.475
3195.04645	20637.475
3197.35725	20627.575
3199.66667	20630.475
3201.97469	20632.775
3204.28132	20628.875
3206.58656	20664.075
3208.8904	20632.975
3211.19287	20634.275
3213.49394	20630.575
3215.79363	20685.975
3218.09193	20709.875
3220.38884	20689.675
3222.68438	20697.275
3224.97853	20683.875
3227.2713	20709.675
3229.56269	20695.875
3231.8527	20701.575
3234.14133	20666.575
3236.42858	20648.575
3238.71446	20634.775
3240.99896	20596.875
3243.28209	20556.575
3245.56384	20470.475
3247.84423	20432.975
3250.12324	20415.075
3252.40088	20457.275
3254.67715	20459.675
3256.95205	20436.075
3259.22558	20429.575
3261.49775	20440.875
3263.76855	20436.775
3266.03799	20388.075
3268.30606	20350.475
3270.57277	20352.975
3272.83812	20314.675
3275.10211	20257.175
3277.36474	20227.275
3279.62601	20258.975
3281.88593	20200.275
3284.14448	20231.275
3286.40168	20231.475
3288.65753	20205.075
3290.91202	20228.075
3293.16516	20195.975
3295.41695	20199.275
3297.66738	20099.075
3299.91647	20025.775
3302.16421	19884.975
3304.4106	19816.075
3306.65564	19680.875
3308.89933	19579.475
3311.14169	19434.775
3313.38269	19288.975
3315.62236	19222.175
3317.86068	19099.275
3320.09766	19001.275
3322.3333	18866.175
3324.5676	18714.975
3326.80056	18476.475
3329.03219	18364.875
3331.26248	4.275
3333.49143	-0.225
3335.71905	0.975
