Data from AgNPs_UA_20uM_CRN_0uM_R6G_10uM_Q_RamanShift__32__13-13-42-043.txt Node

Date: Mon Jul 18 13:13:42 BST 2022
User: TCL
Spectrometer: QEP01345
Trigger mode: 4
Integration Time (sec): 7.000000E0
Scans to average: 10
Electric dark correction enabled: true
Nonlinearity correction enabled: false
Boxcar width: 0
XAxis mode: Raman Shifts
Number of Pixels in Spectrum: 1044
>>>>>Begin Spectral Data<<<<<
46.04893	-0.6125
50.45542	0.1875
54.85868	0.5875
59.25871	-0.7125
63.6555	64.9875
68.04907	72.9875
72.43941	81.0875
76.82654	83.3875
81.21044	87.3875
85.59113	91.5875
89.96862	93.7875
94.34289	95.2875
98.71396	102.6875
103.08183	102.0875
107.4465	107.3875
111.80798	108.6875
116.16626	111.7875
120.52136	114.6875
124.87327	114.7875
129.222	118.7875
133.56755	127.5875
137.90993	136.4875
142.24913	142.3875
146.58517	162.9875
150.91804	186.5875
155.24774	217.1875
159.57429	261.9875
163.89768	332.6875
168.21792	439.2875
172.53501	579.9875
176.84895	800.6875
181.15975	1125.6875
185.46741	1559.0875
189.77193	2133.7875
194.07331	2847.5875
198.37157	3646.6875
202.6667	4479.7875
206.9587	5321.7875
211.24758	6179.9875
215.53334	7043.0875
219.81599	8094.9875
224.09553	9246.3875
228.37195	10530.7875
232.64527	11908.2875
236.91549	13260.7875
241.18261	14508.8875
245.44663	15515.5875
249.70755	16319.9875
253.96539	16958.6875
258.22014	17466.4875
262.4718	17906.7875
266.72039	18221.9875
270.96589	18384.5875
275.20832	18293.6875
279.44768	18099.1875
283.68397	17829.3875
287.91719	17707.7875
292.14735	17885.3875
296.37445	18383.3875
300.59849	19190.7875
304.81948	20073.9875
309.03742	20630.0875
313.25231	20407.0875
317.46415	19269.3875
321.67296	17680.5875
325.87872	16457.3875
330.08145	15976.1875
334.28114	15983.3875
338.47781	16304.3875
342.67145	16832.6875
346.86207	17683.2875
351.04966	18775.8875
355.23424	20001.4875
359.4158	20922.1875
363.59435	21397.8875
367.76989	21489.7875
371.94243	21427.5875
376.11196	21275.8875
380.27849	21118.0875
384.44203	20884.0875
388.60257	20566.4875
392.76012	20421.6875
396.91468	20571.7875
401.06626	21128.2875
405.21485	21363.1875
409.36047	20776.0875
413.50311	19502.5875
417.64277	18456.5875
421.77947	17897.9875
425.9132	17656.2875
430.04396	17630.9875
434.17176	17744.9875
438.2966	18093.3875
442.41849	18613.6875
446.53742	19263.1875
450.6534	19893.6875
454.76644	20182.9875
458.87653	20102.8875
462.98368	19790.4875
467.08789	19399.9875
471.18916	18891.6875
475.2875	18338.2875
479.38291	17890.4875
483.4754	17574.5875
487.56496	17302.5875
491.6516	17150.6875
495.73531	17153.1875
499.81612	17213.8875
503.89401	17465.0875
507.96899	17760.4875
512.04106	18080.9875
516.11023	18463.9875
520.1765	18646.6875
524.23987	18531.7875
528.30034	18169.4875
532.35792	17800.0875
536.41261	17405.9875
540.46441	16952.2875
544.51333	16784.1875
548.55936	16990.3875
552.60252	17445.7875
556.64279	17968.7875
560.6802	18195.8875
564.71473	18626.0875
568.7464	19501.8875
572.7752	19847.0875
576.80114	19196.1875
580.82422	18527.1875
584.84444	18340.9875
588.86181	18362.8875
592.87633	18535.0875
596.888	18841.3875
600.89682	19826.2875
604.9028	23137.8875
608.90594	31105.3875
612.90624	39210.7875
616.90371	34506.0875
620.89834	23129.6875
624.89015	18642.0875
628.87913	17940.5875
632.86528	18309.8875
636.84862	18585.7875
640.82913	18097.2875
644.80683	17110.7875
648.78172	16520.6875
652.75379	16695.8875
656.72306	17676.9875
660.68952	18507.5875
664.65319	18005.8875
668.61405	16946.0875
672.57211	16588.6875
676.52738	16539.5875
680.47986	16484.8875
684.42955	16257.8875
688.37646	16229.4875
692.32058	16333.6875
696.26192	16545.4875
700.20048	16810.9875
704.13626	16985.2875
708.06928	16909.7875
711.99952	16743.4875
715.927	16714.8875
719.85171	16812.9875
723.77365	16795.6875
727.69284	16644.2875
731.60928	16499.7875
735.52295	16517.0875
739.43388	16611.6875
743.34206	16698.7875
747.24749	16798.5875
751.15017	16974.7875
755.05012	17409.3875
758.94733	18690.4875
762.8418	21475.7875
766.73354	25778.8875
770.62254	29746.6875
774.50882	31421.9875
778.39237	29320.7875
782.27321	24628.7875
786.15132	20480.5875
790.02671	18271.5875
793.89938	17313.8875
797.76935	16896.5875
801.6366	16719.1875
805.50115	16635.9875
809.36299	16541.4875
813.22213	16436.8875
817.07857	16402.9875
820.93231	16410.4875
824.78336	16467.5875
828.63172	16540.1875
832.47738	16565.1875
836.32036	16499.7875
840.16066	16407.3875
843.99827	16295.1875
847.8332	16236.9875
851.66546	16228.6875
855.49504	16260.0875
859.32195	16211.9875
863.1462	16116.9875
866.96777	16063.9875
870.78668	16106.1875
874.60293	16154.7875
878.41652	16258.6875
882.22745	16418.6875
886.03573	16504.7875
889.84136	16472.7875
893.64433	16323.0875
897.44466	16297.4875
901.24235	16304.9875
905.0374	16201.4875
908.8298	16107.1875
912.61957	16072.8875
916.40671	16159.9875
920.19121	16289.8875
923.97308	16506.2875
927.75233	16748.1875
931.52895	16875.4875
935.30295	16575.7875
939.07433	16040.4875
942.84309	15594.1875
946.60924	15368.0875
950.37278	15226.7875
954.13371	15159.8875
957.89203	15110.7875
961.64774	15108.0875
965.40086	15032.6875
969.15137	15023.1875
972.89929	14989.1875
976.64461	15000.9875
980.38733	15018.4875
984.12747	15081.2875
987.86502	15172.2875
991.59999	15287.8875
995.33237	15490.5875
999.06217	15926.0875
1002.78939	16410.0875
1006.51404	16826.4875
1010.23611	17151.7875
1013.95561	17360.9875
1017.67255	17279.4875
1021.38692	17000.4875
1025.09872	16730.9875
1028.80796	16683.3875
1032.51465	16833.0875
1036.21877	17073.1875
1039.92035	17195.0875
1043.61937	17179.3875
1047.31584	17094.7875
1051.00976	16926.2875
1054.70114	16807.6875
1058.38998	16815.7875
1062.07627	16914.4875
1065.76003	17033.2875
1069.44126	17180.5875
1073.11995	17424.2875
1076.79611	17697.2875
1080.46974	18051.4875
1084.14085	18598.4875
1087.80943	19145.1875
1091.47549	19272.1875
1095.13903	18842.4875
1098.80005	18072.6875
1102.45857	17555.7875
1106.11456	17354.6875
1109.76805	17581.8875
1113.41903	18141.9875
1117.06751	18970.2875
1120.71348	19992.6875
1124.35696	21037.0875
1127.99793	21714.8875
1131.63641	21258.5875
1135.2724	20011.8875
1138.90589	19082.2875
1142.5369	18420.3875
1146.16542	18034.5875
1149.79145	17853.3875
1153.415	17874.1875
1157.03607	18093.0875
1160.65467	18525.8875
1164.27079	19402.6875
1167.88443	20614.9875
1171.49561	22692.9875
1175.10432	25988.9875
1178.71056	30075.6875
1182.31434	32977.7875
1185.91565	33454.2875
1189.51451	32084.4875
1193.11091	29585.9875
1196.70485	27059.0875
1200.29634	25275.8875
1203.88538	23841.3875
1207.47197	22253.5875
1211.05612	20961.7875
1214.63782	20318.7875
1218.21708	20148.6875
1221.79391	20126.9875
1225.36829	20141.6875
1228.94024	20087.6875
1232.50976	20034.0875
1236.07685	20070.6875
1239.6415	20212.8875
1243.20374	20356.0875
1246.76355	20508.5875
1250.32093	20819.8875
1253.8759	21305.5875
1257.42845	22057.9875
1260.97859	22779.3875
1264.52631	23559.2875
1268.07163	24309.9875
1271.61453	24921.0875
1275.15503	25379.5875
1278.69312	25611.1875
1282.22882	25872.1875
1285.76211	26542.1875
1289.29301	27553.5875
1292.82151	28554.3875
1296.34761	29721.3875
1299.87133	31583.9875
1303.39266	34705.9875
1306.9116	39072.6875
1310.42815	43347.4875
1313.94233	44971.9875
1317.45412	43173.7875
1320.96354	39722.4875
1324.47058	36432.7875
1327.97525	33695.6875
1331.47754	32184.9875
1334.97747	31793.1875
1338.47502	32186.8875
1341.97022	33127.5875
1345.46305	34616.3875
1348.95352	36802.5875
1352.44163	39902.8875
1355.92738	44567.2875
1359.41078	51316.6875
1362.89183	56453.0875
1366.37053	53324.9875
1369.84688	44596.5875
1373.32088	36556.9875
1376.79254	31516.6875
1380.26186	28857.6875
1383.72883	27419.1875
1387.19347	26344.7875
1390.65578	25227.1875
1394.11575	24480.5875
1397.57339	24087.3875
1401.0287	24186.5875
1404.48168	24548.7875
1407.93234	24917.8875
1411.38068	25202.2875
1414.82669	25211.1875
1418.27039	24733.7875
1421.71177	24046.2875
1425.15083	23429.3875
1428.58758	23126.8875
1432.02203	23281.1875
1435.45416	23549.1875
1438.88399	23721.6875
1442.31151	23809.2875
1445.73673	24011.1875
1449.15965	24228.2875
1452.58027	24163.5875
1455.9986	23889.5875
1459.41463	23822.5875
1462.82837	24152.8875
1466.23982	24798.1875
1469.64898	25466.6875
1473.05586	25948.8875
1476.46045	26347.3875
1479.86276	26827.1875
1483.26279	27490.2875
1486.66054	28317.7875
1490.05602	29493.7875
1493.44922	31045.9875
1496.84016	33619.9875
1500.22882	37524.2875
1503.61521	42798.9875
1506.99934	48404.5875
1510.38121	52399.5875
1513.76081	52500.2875
1517.13816	48149.3875
1520.51324	41563.8875
1523.88607	35858.2875
1527.25665	32187.4875
1530.62498	30238.0875
1533.99105	29038.5875
1537.35488	28295.3875
1540.71647	27887.4875
1544.07581	27642.4875
1547.4329	27449.2875
1550.78776	27154.9875
1554.14038	27044.0875
1557.49077	27038.2875
1560.83892	27463.3875
1564.18484	28268.9875
1567.52853	29243.5875
1570.86999	30108.2875
1574.20922	30616.4875
1577.54624	30183.6875
1580.88103	28435.9875
1584.2136	26475.3875
1587.54395	25567.0875
1590.87208	26074.4875
1594.19801	27839.5875
1597.52172	29950.2875
1600.84321	30806.3875
1604.16251	29610.1875
1607.47959	27560.3875
1610.79447	25164.4875
1614.10715	23067.6875
1617.41763	21450.5875
1620.7259	20498.1875
1624.03199	20062.4875
1627.33587	20145.6875
1630.63757	20724.0875
1633.93707	21799.0875
1637.23439	23568.9875
1640.52951	26296.3875
1643.82246	29980.9875
1647.11321	34088.0875
1650.40179	36393.5875
1653.68819	34767.7875
1656.97241	29808.3875
1660.25446	24677.2875
1663.53433	21103.5875
1666.81203	18965.3875
1670.08756	17692.1875
1673.36092	16898.3875
1676.63211	16389.3875
1679.90115	16034.9875
1683.16801	15747.5875
1686.43272	15525.9875
1689.69527	15399.5875
1692.95567	15286.0875
1696.2139	15195.4875
1699.46999	15174.8875
1702.72392	15119.5875
1705.97571	15147.1875
1709.22535	15084.9875
1712.47284	15134.1875
1715.71819	15132.2875
1718.96139	15101.0875
1722.20246	15033.1875
1725.44139	14915.6875
1728.67818	14832.7875
1731.91284	14712.3875
1735.14537	14622.0875
1738.37576	14558.7875
1741.60403	14463.5875
1744.83017	14418.8875
1748.05418	14399.4875
1751.27607	14364.8875
1754.49584	14305.6875
1757.71349	14320.9875
1760.92903	14304.4875
1764.14244	14276.6875
1767.35375	14221.8875
1770.56294	14213.5875
1773.77002	14151.5875
1776.97499	14152.5875
1780.17785	14096.7875
1783.37861	14076.9875
1786.57727	13998.4875
1789.77382	14017.9875
1792.96828	13984.2875
1796.16064	13960.3875
1799.3509	13957.8875
1802.53907	13892.9875
1805.72514	13859.4875
1808.90913	13840.8875
1812.09102	13804.7875
1815.27083	13765.1875
1818.44856	13735.8875
1821.6242	13734.5875
1824.79776	13720.7875
1827.96924	13683.8875
1831.13864	13659.8875
1834.30597	13659.8875
1837.47122	13637.8875
1840.6344	13627.9875
1843.7955	13602.1875
1846.95454	13588.8875
1850.11151	13600.3875
1853.26642	13586.3875
1856.41926	13602.2875
1859.57004	13612.4875
1862.71876	13603.2875
1865.86542	13592.6875
1869.01003	13635.8875
1872.15258	13589.0875
1875.29308	13604.5875
1878.43152	13613.9875
1881.56792	13586.3875
1884.70227	13589.7875
1887.83457	13575.8875
1890.96482	13594.5875
1894.09304	13568.5875
1897.21921	13595.3875
1900.34335	13549.3875
1903.46544	13551.5875
1906.58551	13533.8875
1909.70353	13533.5875
1912.81953	13562.4875
1915.93349	13511.4875
1919.04543	13467.6875
1922.15534	13477.1875
1925.26322	13444.5875
1928.36908	13395.8875
1931.47292	13396.5875
1934.57473	13344.3875
1937.67453	13295.6875
1940.77232	13254.5875
1943.86808	13178.7875
1946.96184	13139.8875
1950.05358	13102.0875
1953.14331	13047.2875
1956.23103	13004.0875
1959.31675	12958.4875
1962.40046	12979.6875
1965.48217	12928.4875
1968.56188	12891.6875
1971.63959	12851.6875
1974.7153	12820.1875
1977.78901	12785.4875
1980.86073	12735.2875
1983.93046	12673.1875
1986.99819	12651.9875
1990.06394	12617.6875
1993.1277	12565.1875
1996.18947	12524.4875
1999.24925	12509.7875
2002.30706	12464.8875
2005.36288	12453.8875
2008.41672	12421.2875
2011.46859	12398.3875
2014.51848	12328.3875
2017.56639	12288.5875
2020.61233	12277.6875
2023.6563	12245.0875
2026.6983	12209.0875
2029.73833	12168.0875
2032.7764	12156.7875
2035.8125	12116.1875
2038.84664	12107.8875
2041.87881	12115.3875
2044.90903	12060.8875
2047.93729	11990.9875
2050.96359	12025.2875
2053.98794	11999.1875
2057.01034	11994.5875
2060.03078	12001.7875
2063.04927	11977.6875
2066.06582	11967.7875
2069.08042	11959.3875
2072.09307	11953.3875
2075.10378	11951.7875
2078.11255	11952.7875
2081.11938	11945.6875
2084.12426	11933.9875
2087.12722	11909.7875
2090.12824	11904.0875
2093.12732	11915.6875
2096.12447	11900.8875
2099.11969	11909.5875
2102.11299	11922.6875
2105.10435	11919.8875
2108.09379	11887.9875
2111.08131	11898.2875
2114.0669	11907.6875
2117.05057	11900.6875
2120.03233	11890.5875
2123.01216	11936.7875
2125.99008	11939.1875
2128.96609	11965.4875
2131.94018	11976.8875
2134.91236	11993.1875
2137.88263	12006.1875
2140.851	11985.5875
2143.81746	11995.3875
2146.78201	12009.9875
2149.74466	12009.4875
2152.7054	11989.7875
2155.66425	11959.8875
2158.6212	11969.3875
2161.57625	11940.1875
2164.52941	11939.9875
2167.48067	11956.8875
2170.43004	11941.5875
2173.37752	11949.3875
2176.32311	11925.6875
2179.26681	11919.9875
2182.20863	11931.0875
2185.14856	11935.8875
2188.08661	11936.6875
2191.02278	11899.2875
2193.95707	11915.5875
2196.88948	11916.1875
2199.82001	11884.6875
2202.74867	11874.4875
2205.67545	11847.4875
2208.60037	11874.2875
2211.52341	11828.6875
2214.44458	11831.7875
2217.36388	11801.8875
2220.28132	11774.9875
2223.1969	11742.4875
2226.11061	11716.0875
2229.02246	11674.3875
2231.93245	11672.4875
2234.84058	11639.3875
2237.74686	11634.5875
2240.65128	11607.2875
2243.55385	11602.6875
2246.45456	11568.2875
2249.35343	11564.2875
2252.25044	11556.4875
2255.14561	11558.9875
2258.03893	11558.4875
2260.93041	11539.2875
2263.82004	11530.5875
2266.70783	11521.4875
2269.59378	11498.9875
2272.4779	11470.8875
2275.36017	11462.2875
2278.24061	11443.7875
2281.11922	11399.4875
2283.996	11381.0875
2286.87094	11335.6875
2289.74405	11330.0875
2292.61534	11316.5875
2295.4848	11288.1875
2298.35243	11284.3875
2301.21824	11298.4875
2304.08223	11290.0875
2306.94439	11259.2875
2309.80474	11253.9875
2312.66327	11256.4875
2315.51999	11284.9875
2318.37489	11256.6875
2321.22797	11272.6875
2324.07925	11226.9875
2326.92871	11202.0875
2329.77637	11214.0875
2332.62222	11212.4875
2335.46626	11192.3875
2338.3085	11157.0875
2341.14893	11165.9875
2343.98756	11177.0875
2346.8244	11199.1875
2349.65943	11225.0875
2352.49267	11214.3875
2355.32411	11230.5875
2358.15376	11247.0875
2360.98161	11239.2875
2363.80768	11247.2875
2366.63195	11251.1875
2369.45444	11235.8875
2372.27514	11250.5875
2375.09405	11211.1875
2377.91118	11159.1875
2380.72652	11105.1875
2383.54009	11063.1875
2386.35187	11064.0875
2389.16188	11019.0875
2391.97011	10983.0875
2394.77657	10931.3875
2397.58125	10941.9875
2400.38416	10910.5875
2403.18529	10876.5875
2405.98466	10871.1875
2408.78226	10852.6875
2411.57809	10816.7875
2414.37216	10791.2875
2417.16446	10768.3875
2419.955	10739.3875
2422.74378	10748.2875
2425.5308	10753.2875
2428.31606	10744.7875
2431.09956	10727.0875
2433.88131	10731.5875
2436.6613	10723.5875
2439.43954	10748.6875
2442.21603	10727.2875
2444.99077	10751.2875
2447.76377	10722.5875
2450.53501	10729.8875
2453.30451	10728.9875
2456.07226	10705.6875
2458.83827	10691.8875
2461.60254	10714.4875
2464.36507	10706.5875
2467.12586	10700.5875
2469.88492	10678.8875
2472.64224	10684.6875
2475.39782	10698.8875
2478.15167	10747.1875
2480.90379	10727.4875
2483.65417	10750.4875
2486.40283	10780.9875
2489.14976	10804.8875
2491.89497	10833.5875
2494.63845	10815.8875
2497.3802	10788.6875
2500.12024	10810.1875
2502.85855	10793.9875
2505.59514	10766.7875
2508.33002	10713.7875
2511.06318	10655.5875
2513.79462	10630.2875
2516.52435	10564.3875
2519.25237	10555.7875
2521.97867	10546.4875
2524.70327	10538.4875
2527.42616	10525.8875
2530.14734	10513.1875
2532.86681	10472.8875
2535.58458	10491.1875
2538.30065	10478.7875
2541.01501	10489.0875
2543.72768	10490.9875
2546.43864	10477.6875
2549.14791	10451.6875
2551.85548	10464.0875
2554.56136	10439.7875
2557.26554	10419.7875
2559.96803	10417.0875
2562.66883	10415.3875
2565.36794	10366.7875
2568.06536	10369.8875
2570.7611	10327.0875
2573.45514	10314.4875
2576.14751	10318.9875
2578.83819	10296.5875
2581.52719	10291.6875
2584.21451	10266.9875
2586.90015	10252.8875
2589.58411	10266.9875
2592.2664	10262.9875
2594.94701	10233.7875
2597.62594	10265.7875
2600.30321	10214.4875
2602.9788	10223.4875
2605.65273	10206.9875
2608.32498	10207.7875
2610.99557	10204.2875
2613.66449	10189.9875
2616.33175	10218.6875
2618.99734	10218.4875
2621.66128	10210.0875
2624.32355	10208.9875
2626.98416	10191.0875
2629.64311	10168.0875
2632.30041	10147.2875
2634.95605	10158.1875
2637.61004	10122.9875
2640.26238	10114.9875
2642.91306	10094.7875
2645.56209	10070.3875
2648.20948	10068.6875
2650.85521	10061.6875
2653.4993	10080.9875
2656.14175	10080.3875
2658.78255	10084.9875
2661.42171	10107.0875
2664.05923	10125.2875
2666.6951	10114.5875
2669.32934	10164.0875
2671.96194	10128.9875
2674.59291	10134.0875
2677.22224	10122.0875
2679.84993	10144.7875
2682.476	10124.2875
2685.10043	10144.3875
2687.72324	10118.3875
2690.34441	10112.0875
2692.96396	10101.3875
2695.58188	10112.7875
2698.19818	10105.3875
2700.81285	10127.4875
2703.4259	10095.4875
2706.03733	10092.5875
2708.64714	10106.9875
2711.25533	10105.0875
2713.86191	10104.1875
2716.46687	10138.4875
2719.07021	10111.1875
2721.67194	10170.0875
2724.27206	10160.8875
2726.87057	10161.2875
2729.46747	10133.7875
2732.06276	10170.2875
2734.65644	10151.3875
2737.24852	10177.9875
2739.83899	10134.9875
2742.42786	10114.5875
2745.01513	10078.3875
2747.60079	10079.0875
2750.18486	10085.3875
2752.76733	10094.4875
2755.3482	10055.4875
2757.92747	10030.9875
2760.50515	10034.1875
2763.08123	10040.0875
2765.65573	10001.2875
2768.22863	10021.0875
2770.79994	9981.1875
2773.36967	9981.3875
2775.9378	9980.9875
2778.50435	9970.5875
2781.06932	9966.0875
2783.6327	9970.6875
2786.1945	9946.6875
2788.75471	9966.7875
2791.31335	9939.7875
2793.87041	9948.4875
2796.42589	9915.3875
2798.97979	9945.6875
2801.53212	9916.0875
2804.08288	9918.5875
2806.63206	9896.1875
2809.17967	9920.6875
2811.72571	9865.5875
2814.27018	9881.1875
2816.81308	9844.2875
2819.35442	9864.2875
2821.89419	9844.4875
2824.43239	9869.2875
2826.96904	9889.3875
2829.50412	9896.8875
2832.03763	9857.4875
2834.56959	9880.2875
2837.1	9872.7875
2839.62884	9846.3875
2842.15613	9852.0875
2844.68186	9828.3875
2847.20604	9858.4875
2849.72867	9877.9875
2852.24974	9897.8875
2854.76927	9885.0875
2857.28724	9897.0875
2859.80367	9892.9875
2862.31855	9874.8875
2864.83189	9881.2875
2867.34368	9852.4875
2869.85393	9860.6875
2872.36264	9835.2875
2874.8698	9833.4875
2877.37543	9847.8875
2879.87952	9817.2875
2882.38207	9811.5875
2884.88308	9789.2875
2887.38256	9816.4875
2889.88051	9799.6875
2892.37692	9785.8875
2894.8718	9778.5875
2897.36515	9803.6875
2899.85698	9800.6875
2902.34727	9817.9875
2904.83604	9807.1875
2907.32328	9865.1875
2909.809	9851.4875
2912.29319	9875.1875
2914.77587	9842.1875
2917.25702	9861.6875
2919.73665	9825.5875
2922.21476	9845.1875
2924.69136	9818.4875
2927.16644	9801.4875
2929.64	9765.0875
2932.11205	9756.1875
2934.58258	9692.9875
2937.05161	9740.4875
2939.51912	9691.5875
2941.98513	9678.2875
2944.44962	9647.5875
2946.91261	9630.1875
2949.37409	9629.5875
2951.83407	9605.0875
2954.29254	9625.8875
2956.74951	9595.6875
2959.20498	9618.3875
2961.65895	9560.6875
2964.11142	9561.1875
2966.56239	9565.4875
2969.01186	9558.1875
2971.45984	9521.7875
2973.90632	9516.7875
2976.35131	9503.7875
2978.7948	9483.6875
2981.23681	9458.3875
2983.67732	9429.9875
2986.11635	9406.6875
2988.55388	9384.5875
2990.98993	9348.2875
2993.4245	9346.7875
2995.85758	9344.6875
2998.28917	9279.3875
3000.71928	9254.7875
3003.14791	9262.2875
3005.57506	9242.9875
3008.00073	9179.5875
3010.42493	9218.2875
3012.84764	9181.0875
3015.26888	9167.6875
3017.68865	9155.8875
3020.10694	9125.0875
3022.52376	9113.5875
3024.9391	9098.1875
3027.35298	9113.7875
3029.76539	9093.6875
3032.17632	9071.7875
3034.5858	9058.7875
3036.9938	9061.0875
3039.40034	9040.0875
3041.80542	9024.4875
3044.20903	8986.8875
3046.61118	8998.6875
3049.01187	8975.9875
3051.4111	8999.0875
3053.80888	8983.9875
3056.20519	8980.4875
3058.60005	8933.8875
3060.99345	8925.3875
3063.3854	8878.4875
3065.7759	8875.3875
3068.16494	8845.0875
3070.55254	8790.7875
3072.93868	8793.4875
3075.32338	8743.3875
3077.70662	8741.5875
3080.08842	8705.8875
3082.46878	8696.3875
3084.84769	8685.3875
3087.22515	8694.1875
3089.60118	8697.4875
3091.97576	8644.2875
3094.3489	8633.9875
3096.72061	8639.8875
3099.09087	8653.5875
3101.4597	8638.8875
3103.82709	8649.0875
3106.19305	8649.1875
3108.55757	8629.4875
3110.92066	8616.2875
3113.28232	8632.1875
3115.64255	8602.4875
3118.00134	8570.8875
3120.35871	8580.7875
3122.71466	8530.9875
3125.06917	8518.4875
3127.42226	8510.8875
3129.77393	8521.5875
3132.12417	8511.7875
3134.47299	8525.6875
3136.82039	8499.5875
3139.16636	8470.0875
3141.51092	8498.1875
3143.85406	8501.3875
3146.19579	8491.4875
3148.53609	8495.7875
3150.87499	8519.1875
3153.21246	8533.7875
3155.54853	8540.0875
3157.88318	8534.2875
3160.21642	8528.3875
3162.54826	8539.7875
3164.87868	8553.7875
3167.2077	8538.6875
3169.5353	8545.4875
3171.86151	8549.9875
3174.18631	8535.5875
3176.5097	8534.5875
3178.83169	8506.0875
3181.15228	8524.6875
3183.47147	8506.9875
3185.78926	8508.1875
3188.10565	8483.8875
3190.42065	8504.6875
3192.73424	8486.7875
3195.04645	8471.3875
3197.35725	8476.8875
3199.66667	8485.1875
3201.97469	8504.6875
3204.28132	8499.9875
3206.58656	8511.2875
3208.8904	8504.0875
3211.19287	8512.9875
3213.49394	8504.8875
3215.79363	8541.5875
3218.09193	8530.4875
3220.38884	8534.5875
3222.68438	8525.7875
3224.97853	8536.5875
3227.2713	8537.5875
3229.56269	8527.4875
3231.8527	8505.8875
3234.14133	8513.4875
3236.42858	8499.5875
3238.71446	8490.2875
3240.99896	8472.4875
3243.28209	8458.7875
3245.56384	8443.5875
3247.84423	8424.7875
3250.12324	8402.3875
3252.40088	8406.9875
3254.67715	8408.7875
3256.95205	8375.0875
3259.22558	8383.9875
3261.49775	8378.7875
3263.76855	8391.2875
3266.03799	8377.5875
3268.30606	8367.4875
3270.57277	8335.2875
3272.83812	8333.1875
3275.10211	8314.3875
3277.36474	8296.4875
3279.62601	8293.6875
3281.88593	8291.4875
3284.14448	8329.1875
3286.40168	8307.5875
3288.65753	8279.0875
3290.91202	8314.1875
3293.16516	8283.5875
3295.41695	8259.1875
3297.66738	8241.7875
3299.91647	8189.3875
3302.16421	8139.8875
3304.4106	8096.5875
3306.65564	8040.1875
3308.89933	7962.5875
3311.14169	7941.5875
3313.38269	7880.7875
3315.62236	7832.4875
3317.86068	7775.3875
3320.09766	7716.8875
3322.3333	7663.7875
3324.5676	7622.9875
3326.80056	7521.4875
3329.03219	7497.3875
3331.26248	1.9875
3333.49143	-0.4125
3335.71905	0.2875
