Data from AgNPs_UA_20uM_CRN_0uM_R6G_10uM_Q_RamanShift__18__12-57-22-025.txt Node

Date: Mon Jul 18 12:57:22 BST 2022
User: TCL
Spectrometer: QEP01345
Trigger mode: 4
Integration Time (sec): 7.000000E0
Scans to average: 10
Electric dark correction enabled: true
Nonlinearity correction enabled: false
Boxcar width: 0
XAxis mode: Raman Shifts
Number of Pixels in Spectrum: 1044
>>>>>Begin Spectral Data<<<<<
46.04893	-3.4125
50.45542	-1.4125
54.85868	0.2875
59.25871	-0.2125
63.6555	129.5875
68.04907	134.2875
72.43941	138.5875
76.82654	144.8875
81.21044	153.9875
85.59113	156.5875
89.96862	162.8875
94.34289	166.3875
98.71396	172.0875
103.08183	177.7875
107.4465	182.7875
111.80798	188.9875
116.16626	191.7875
120.52136	202.5875
124.87327	211.5875
129.222	223.6875
133.56755	232.4875
137.90993	259.6875
142.24913	286.2875
146.58517	324.8875
150.91804	380.3875
155.24774	448.6875
159.57429	555.4875
163.89768	722.3875
168.21792	958.2875
172.53501	1313.2875
176.84895	1842.8875
181.15975	2578.0875
185.46741	3631.8875
189.77193	5005.1875
194.07331	6653.6875
198.37157	8545.5875
202.6667	10485.0875
206.9587	12431.8875
211.24758	14351.2875
215.53334	16264.5875
219.81599	18344.5875
224.09553	20643.0875
228.37195	23199.2875
232.64527	25958.2875
236.91549	28859.6875
241.18261	31746.4875
245.44663	34314.4875
249.70755	36670.9875
253.96539	38735.5875
258.22014	40443.1875
262.4718	41870.2875
266.72039	42862.5875
270.96589	43408.7875
275.20832	43370.9875
279.44768	43160.1875
283.68397	42663.8875
287.91719	42279.4875
292.14735	42154.9875
296.37445	42170.2875
300.59849	42497.2875
304.81948	42824.5875
309.03742	42989.1875
313.25231	42646.3875
317.46415	41944.5875
321.67296	40771.1875
325.87872	39899.1875
330.08145	39662.2875
334.28114	39716.3875
338.47781	40135.6875
342.67145	40655.8875
346.86207	41362.7875
351.04966	42294.2875
355.23424	43273.5875
359.4158	44107.0875
363.59435	44677.6875
367.76989	45047.5875
371.94243	45298.5875
376.11196	45470.9875
380.27849	45674.5875
384.44203	45860.1875
388.60257	46040.4875
392.76012	46412.7875
396.91468	46871.9875
401.06626	47397.8875
405.21485	47925.8875
409.36047	47585.0875
413.50311	46840.8875
417.64277	46331.3875
421.77947	46168.9875
425.9132	46180.1875
430.04396	46409.0875
434.17176	46736.5875
438.2966	47277.7875
442.41849	48168.2875
446.53742	49511.8875
450.6534	50844.7875
454.76644	51706.7875
458.87653	51877.2875
462.98368	51541.3875
467.08789	51004.6875
471.18916	50254.2875
475.2875	49569.8875
479.38291	49063.2875
483.4754	48505.9875
487.56496	47972.8875
491.6516	47449.3875
495.73531	47104.1875
499.81612	47013.8875
503.89401	47256.5875
507.96899	47481.4875
512.04106	47555.9875
516.11023	47567.6875
520.1765	47480.6875
524.23987	47318.8875
528.30034	47133.5875
532.35792	46899.7875
536.41261	46493.1875
540.46441	46160.5875
544.51333	46206.1875
548.55936	46716.8875
552.60252	47558.6875
556.64279	48524.7875
560.6802	49120.5875
564.71473	49497.9875
568.7464	50150.8875
572.7752	50990.2875
576.80114	51438.0875
580.82422	51923.5875
584.84444	52578.3875
588.86181	53427.8875
592.87633	54442.5875
596.888	54943.3875
600.89682	55197.9875
604.9028	57387.2875
608.90594	63102.9875
612.90624	67735.6875
616.90371	62258.6875
620.89834	52714.0875
624.89015	49306.7875
628.87913	49018.1875
632.86528	49115.9875
636.84862	48751.1875
640.82913	47966.0875
644.80683	46739.2875
648.78172	45994.3875
652.75379	46041.1875
656.72306	46845.2875
660.68952	47632.6875
664.65319	47293.8875
668.61405	46537.7875
672.57211	46447.6875
676.52738	46469.6875
680.47986	46367.3875
684.42955	46179.2875
688.37646	46234.9875
692.32058	46469.3875
696.26192	46887.7875
700.20048	47327.7875
704.13626	47604.5875
708.06928	47387.5875
711.99952	47117.9875
715.927	47004.8875
719.85171	47084.7875
723.77365	47002.9875
727.69284	46593.1875
731.60928	46330.6875
735.52295	46310.1875
739.43388	46434.1875
743.34206	46591.3875
747.24749	46701.4875
751.15017	46973.4875
755.05012	47638.1875
758.94733	49047.1875
762.8418	51897.4875
766.73354	56005.5875
770.62254	59508.9875
774.50882	60020.4875
778.39237	57175.9875
782.27321	53114.8875
786.15132	49864.9875
790.02671	47849.1875
793.89938	46880.0875
797.76935	46471.7875
801.6366	46404.3875
805.50115	46209.4875
809.36299	45979.2875
813.22213	45676.0875
817.07857	45514.3875
820.93231	45494.7875
824.78336	45475.4875
828.63172	45476.5875
832.47738	45468.8875
836.32036	45530.6875
840.16066	45695.3875
843.99827	45907.1875
847.8332	45821.1875
851.66546	45637.6875
855.49504	45680.5875
859.32195	45693.0875
863.1462	45568.7875
866.96777	45568.1875
870.78668	45483.1875
874.60293	45462.8875
878.41652	45485.5875
882.22745	45633.4875
886.03573	45717.2875
889.84136	45717.3875
893.64433	45509.2875
897.44466	45363.9875
901.24235	45205.8875
905.0374	45097.3875
908.8298	45015.8875
912.61957	45090.9875
916.40671	45388.3875
920.19121	45884.0875
923.97308	46327.6875
927.75233	46639.1875
931.52895	46603.5875
935.30295	46090.7875
939.07433	45324.4875
942.84309	44771.3875
946.60924	44515.0875
950.37278	44451.6875
954.13371	44330.2875
957.89203	44201.4875
961.64774	44103.2875
965.40086	43934.3875
969.15137	43882.3875
972.89929	43749.0875
976.64461	43809.1875
980.38733	43903.3875
984.12747	44104.2875
987.86502	44552.6875
991.59999	44995.1875
995.33237	45780.5875
999.06217	47039.9875
1002.78939	48300.2875
1006.51404	48855.8875
1010.23611	49090.6875
1013.95561	49395.5875
1017.67255	49432.9875
1021.38692	49098.5875
1025.09872	48870.2875
1028.80796	49220.5875
1032.51465	50393.3875
1036.21877	51298.6875
1039.92035	51248.3875
1043.61937	50497.6875
1047.31584	49361.2875
1051.00976	48404.9875
1054.70114	47967.0875
1058.38998	48041.2875
1062.07627	48268.1875
1065.76003	48482.6875
1069.44126	48762.2875
1073.11995	49314.1875
1076.79611	49805.7875
1080.46974	50204.1875
1084.14085	50752.0875
1087.80943	51354.0875
1091.47549	51525.9875
1095.13903	51183.9875
1098.80005	50366.8875
1102.45857	49583.5875
1106.11456	49288.6875
1109.76805	49338.5875
1113.41903	49692.6875
1117.06751	50281.2875
1120.71348	50914.1875
1124.35696	51478.4875
1127.99793	52000.3875
1131.63641	51937.9875
1135.2724	51383.5875
1138.90589	50929.0875
1142.5369	50617.6875
1146.16542	50545.4875
1149.79145	50714.1875
1153.415	51035.6875
1157.03607	51678.1875
1160.65467	52771.1875
1164.27079	54640.5875
1167.88443	57057.9875
1171.49561	60479.9875
1175.10432	64951.0875
1178.71056	70384.1875
1182.31434	75026.8875
1185.91565	77030.1875
1189.51451	76091.2875
1193.11091	73340.9875
1196.70485	70071.8875
1200.29634	67217.1875
1203.88538	64922.2875
1207.47197	62865.5875
1211.05612	61239.1875
1214.63782	60250.5875
1218.21708	59959.3875
1221.79391	60036.3875
1225.36829	60116.1875
1228.94024	59624.9875
1232.50976	58493.0875
1236.07685	57560.7875
1239.6415	57200.8875
1243.20374	57111.1875
1246.76355	57574.5875
1250.32093	58387.6875
1253.8759	59502.9875
1257.42845	60859.8875
1260.97859	62385.2875
1264.52631	63889.4875
1268.07163	65357.6875
1271.61453	67041.1875
1275.15503	68898.9875
1278.69312	70696.4875
1282.22882	72179.9875
1285.76211	73536.8875
1289.29301	75106.2875
1292.82151	77066.7875
1296.34761	79789.8875
1299.87133	83652.2875
1303.39266	88674.5875
1306.9116	94774.1875
1310.42815	100697.6875
1313.94233	104266.0875
1317.45412	103870.9875
1320.96354	100955.8875
1324.47058	97512.4875
1327.97525	94268.0875
1331.47754	91983.7875
1334.97747	90941.6875
1338.47502	90780.6875
1341.97022	91094.9875
1345.46305	91430.0875
1348.95352	91653.5875
1352.44163	92378.2875
1355.92738	94840.9875
1359.41078	99582.0875
1362.89183	103485.4875
1366.37053	100620.0875
1369.84688	91483.9875
1373.32088	82006.8875
1376.79254	75845.0875
1380.26186	73125.9875
1383.72883	72169.8875
1387.19347	71598.9875
1390.65578	70696.9875
1394.11575	70258.8875
1397.57339	70558.6875
1401.0287	71337.2875
1404.48168	72087.6875
1407.93234	72098.9875
1411.38068	71351.8875
1414.82669	69962.2875
1418.27039	67932.9875
1421.71177	65964.6875
1425.15083	64442.1875
1428.58758	63704.1875
1432.02203	64055.5875
1435.45416	65343.6875
1438.88399	66649.7875
1442.31151	67657.7875
1445.73673	68376.1875
1449.15965	68902.9875
1452.58027	69225.5875
1455.9986	69226.4875
1459.41463	69622.3875
1462.82837	70503.9875
1466.23982	71723.5875
1469.64898	72781.4875
1473.05586	73556.2875
1476.46045	73595.3875
1479.86276	73337.4875
1483.26279	72924.5875
1486.66054	72913.3875
1490.05602	73284.0875
1493.44922	74138.5875
1496.84016	75652.6875
1500.22882	78172.2875
1503.61521	81841.6875
1506.99934	85881.6875
1510.38121	88940.9875
1513.76081	89174.5875
1517.13816	86131.0875
1520.51324	81485.1875
1523.88607	77522.3875
1527.25665	75241.5875
1530.62498	74199.1875
1533.99105	73639.7875
1537.35488	72995.1875
1540.71647	72243.0875
1544.07581	71349.3875
1547.4329	70266.9875
1550.78776	69205.7875
1554.14038	68516.7875
1557.49077	68154.9875
1560.83892	68008.5875
1564.18484	68342.8875
1567.52853	68830.3875
1570.86999	69466.9875
1574.20922	70280.6875
1577.54624	70542.7875
1580.88103	69798.0875
1584.2136	69383.9875
1587.54395	70183.1875
1590.87208	72819.3875
1594.19801	77022.8875
1597.52172	81212.6875
1600.84321	82539.1875
1604.16251	79670.3875
1607.47959	74559.4875
1610.79447	69177.5875
1614.10715	64115.1875
1617.41763	60155.1875
1620.7259	57376.9875
1624.03199	55965.7875
1627.33587	56064.0875
1630.63757	57592.6875
1633.93707	60758.2875
1637.23439	65839.8875
1640.52951	72638.4875
1643.82246	80038.0875
1647.11321	85395.7875
1650.40179	85748.2875
1653.68819	79901.0875
1656.97241	70490.0875
1660.25446	61700.3875
1663.53433	55305.5875
1666.81203	51260.7875
1670.08756	48680.8875
1673.36092	47101.0875
1676.63211	45951.1875
1679.90115	45107.7875
1683.16801	44469.7875
1686.43272	44021.1875
1689.69527	43620.6875
1692.95567	43300.9875
1696.2139	43129.0875
1699.46999	43028.2875
1702.72392	42897.3875
1705.97571	42802.6875
1709.22535	42772.8875
1712.47284	42759.4875
1715.71819	42689.5875
1718.96139	42615.1875
1722.20246	42436.7875
1725.44139	42242.0875
1728.67818	42055.5875
1731.91284	41891.8875
1735.14537	41696.0875
1738.37576	41571.5875
1741.60403	41451.0875
1744.83017	41245.0875
1748.05418	41226.8875
1751.27607	41120.8875
1754.49584	41030.3875
1757.71349	41032.5875
1760.92903	40975.8875
1764.14244	40931.1875
1767.35375	40938.9875
1770.56294	40830.2875
1773.77002	40816.9875
1776.97499	40820.6875
1780.17785	40711.5875
1783.37861	40617.5875
1786.57727	40527.0875
1789.77382	40559.6875
1792.96828	40442.8875
1796.16064	40361.3875
1799.3509	40295.0875
1802.53907	40216.1875
1805.72514	40091.3875
1808.90913	40104.2875
1812.09102	40031.5875
1815.27083	39967.7875
1818.44856	39932.5875
1821.6242	39921.0875
1824.79776	39812.0875
1827.96924	39741.0875
1831.13864	39742.0875
1834.30597	39727.0875
1837.47122	39671.7875
1840.6344	39641.2875
1843.7955	39618.7875
1846.95454	39557.9875
1850.11151	39639.6875
1853.26642	39644.5875
1856.41926	39611.9875
1859.57004	39643.0875
1862.71876	39543.9875
1865.86542	39617.3875
1869.01003	39612.4875
1872.15258	39553.0875
1875.29308	39496.7875
1878.43152	39506.1875
1881.56792	39478.1875
1884.70227	39423.0875
1887.83457	39382.6875
1890.96482	39380.5875
1894.09304	39340.6875
1897.21921	39315.2875
1900.34335	39296.7875
1903.46544	39212.7875
1906.58551	39154.8875
1909.70353	39192.7875
1912.81953	39168.5875
1915.93349	39099.7875
1919.04543	39052.7875
1922.15534	38983.7875
1925.26322	38929.3875
1928.36908	38921.7875
1931.47292	38840.5875
1934.57473	38754.1875
1937.67453	38672.5875
1940.77232	38565.7875
1943.86808	38369.5875
1946.96184	38275.8875
1950.05358	38152.5875
1953.14331	38071.5875
1956.23103	37946.5875
1959.31675	37799.4875
1962.40046	37747.7875
1965.48217	37649.3875
1968.56188	37539.2875
1971.63959	37459.2875
1974.7153	37359.6875
1977.78901	37295.5875
1980.86073	37182.0875
1983.93046	37114.6875
1986.99819	36963.4875
1990.06394	36906.6875
1993.1277	36794.2875
1996.18947	36689.9875
1999.24925	36633.4875
2002.30706	36558.1875
2005.36288	36435.2875
2008.41672	36387.8875
2011.46859	36309.1875
2014.51848	36202.0875
2017.56639	36175.1875
2020.61233	36127.8875
2023.6563	36017.2875
2026.6983	35939.3875
2029.73833	35857.6875
2032.7764	35753.8875
2035.8125	35722.3875
2038.84664	35691.4875
2041.87881	35695.7875
2044.90903	35600.0875
2047.93729	35508.6875
2050.96359	35488.6875
2053.98794	35460.5875
2057.01034	35445.0875
2060.03078	35426.6875
2063.04927	35430.1875
2066.06582	35434.6875
2069.08042	35447.8875
2072.09307	35451.3875
2075.10378	35389.1875
2078.11255	35419.6875
2081.11938	35381.5875
2084.12426	35309.1875
2087.12722	35300.9875
2090.12824	35321.3875
2093.12732	35326.4875
2096.12447	35301.2875
2099.11969	35305.9875
2102.11299	35379.2875
2105.10435	35352.5875
2108.09379	35345.2875
2111.08131	35423.4875
2114.0669	35403.0875
2117.05057	35394.0875
2120.03233	35437.9875
2123.01216	35506.0875
2125.99008	35496.6875
2128.96609	35642.3875
2131.94018	35750.8875
2134.91236	35801.9875
2137.88263	35732.7875
2140.851	35816.6875
2143.81746	35865.7875
2146.78201	35908.5875
2149.74466	35912.7875
2152.7054	35887.1875
2155.66425	35867.3875
2158.6212	35847.4875
2161.57625	35803.1875
2164.52941	35859.7875
2167.48067	35897.4875
2170.43004	35904.4875
2173.37752	35810.1875
2176.32311	35815.8875
2179.26681	35849.3875
2182.20863	35828.3875
2185.14856	35879.0875
2188.08661	35900.1875
2191.02278	35914.3875
2193.95707	35933.1875
2196.88948	35887.6875
2199.82001	35909.5875
2202.74867	35855.0875
2205.67545	35861.3875
2208.60037	35782.6875
2211.52341	35783.2875
2214.44458	35820.4875
2217.36388	35775.4875
2220.28132	35745.1875
2223.1969	35609.0875
2226.11061	35605.4875
2229.02246	35495.3875
2231.93245	35461.9875
2234.84058	35428.9875
2237.74686	35321.2875
2240.65128	35307.1875
2243.55385	35264.7875
2246.45456	35269.6875
2249.35343	35194.2875
2252.25044	35151.4875
2255.14561	35095.0875
2258.03893	35094.2875
2260.93041	34988.9875
2263.82004	34953.2875
2266.70783	34940.1875
2269.59378	34873.4875
2272.4779	34818.3875
2275.36017	34784.0875
2278.24061	34722.9875
2281.11922	34698.6875
2283.996	34664.9875
2286.87094	34605.6875
2289.74405	34534.7875
2292.61534	34563.4875
2295.4848	34563.1875
2298.35243	34639.8875
2301.21824	34628.5875
2304.08223	34590.8875
2306.94439	34580.9875
2309.80474	34568.5875
2312.66327	34623.8875
2315.51999	34627.4875
2318.37489	34670.5875
2321.22797	34693.1875
2324.07925	34610.3875
2326.92871	34564.0875
2329.77637	34601.8875
2332.62222	34557.6875
2335.46626	34484.1875
2338.3085	34473.3875
2341.14893	34474.5875
2343.98756	34493.1875
2346.8244	34567.7875
2349.65943	34687.8875
2352.49267	34651.7875
2355.32411	34665.8875
2358.15376	34538.9875
2360.98161	34575.7875
2363.80768	34579.6875
2366.63195	34561.6875
2369.45444	34482.6875
2372.27514	34444.2875
2375.09405	34337.1875
2377.91118	34260.8875
2380.72652	34138.1875
2383.54009	34094.8875
2386.35187	34066.9875
2389.16188	34035.9875
2391.97011	34031.0875
2394.77657	33992.3875
2397.58125	33934.9875
2400.38416	33898.4875
2403.18529	33865.1875
2405.98466	33873.9875
2408.78226	33739.5875
2411.57809	33711.1875
2414.37216	33613.9875
2417.16446	33590.5875
2419.955	33500.6875
2422.74378	33533.3875
2425.5308	33494.3875
2428.31606	33481.2875
2431.09956	33503.7875
2433.88131	33467.1875
2436.6613	33472.8875
2439.43954	33476.7875
2442.21603	33507.3875
2444.99077	33457.9875
2447.76377	33449.9875
2450.53501	33399.4875
2453.30451	33498.4875
2456.07226	33452.3875
2458.83827	33409.6875
2461.60254	33433.9875
2464.36507	33443.1875
2467.12586	33379.5875
2469.88492	33432.4875
2472.64224	33408.7875
2475.39782	33427.3875
2478.15167	33529.7875
2480.90379	33474.6875
2483.65417	33572.9875
2486.40283	33601.7875
2489.14976	33636.7875
2491.89497	33598.0875
2494.63845	33635.9875
2497.3802	33639.1875
2500.12024	33657.0875
2502.85855	33638.6875
2505.59514	33586.5875
2508.33002	33510.6875
2511.06318	33481.8875
2513.79462	33434.9875
2516.52435	33361.3875
2519.25237	33339.6875
2521.97867	33377.5875
2524.70327	33397.4875
2527.42616	33396.8875
2530.14734	33334.7875
2532.86681	33270.1875
2535.58458	33363.5875
2538.30065	33343.5875
2541.01501	33395.4875
2543.72768	33427.4875
2546.43864	33336.6875
2549.14791	33261.6875
2551.85548	33291.8875
2554.56136	33241.5875
2557.26554	33162.6875
2559.96803	33157.8875
2562.66883	33082.2875
2565.36794	33060.7875
2568.06536	33102.1875
2570.7611	33046.1875
2573.45514	32958.1875
2576.14751	32959.9875
2578.83819	32888.2875
2581.52719	32945.3875
2584.21451	32863.6875
2586.90015	32925.0875
2589.58411	32894.2875
2592.2664	32933.0875
2594.94701	32883.6875
2597.62594	32946.8875
2600.30321	32878.3875
2602.9788	32836.2875
2605.65273	32839.8875
2608.32498	32764.1875
2610.99557	32780.0875
2613.66449	32809.3875
2616.33175	32802.5875
2618.99734	32857.3875
2621.66128	32823.6875
2624.32355	32844.7875
2626.98416	32804.8875
2629.64311	32729.1875
2632.30041	32761.4875
2634.95605	32745.1875
2637.61004	32735.8875
2640.26238	32701.9875
2642.91306	32681.6875
2645.56209	32648.0875
2648.20948	32679.3875
2650.85521	32566.5875
2653.4993	32567.6875
2656.14175	32636.5875
2658.78255	32663.2875
2661.42171	32682.3875
2664.05923	32761.2875
2666.6951	32728.9875
2669.32934	32844.9875
2671.96194	32818.9875
2674.59291	32782.1875
2677.22224	32722.5875
2679.84993	32734.8875
2682.476	32758.2875
2685.10043	32775.7875
2687.72324	32673.7875
2690.34441	32653.0875
2692.96396	32643.8875
2695.58188	32700.3875
2698.19818	32668.0875
2700.81285	32661.0875
2703.4259	32606.1875
2706.03733	32644.8875
2708.64714	32635.1875
2711.25533	32714.6875
2713.86191	32684.7875
2716.46687	32773.0875
2719.07021	32820.2875
2721.67194	32862.0875
2724.27206	32847.1875
2726.87057	32887.1875
2729.46747	32866.7875
2732.06276	32932.4875
2734.65644	32914.6875
2737.24852	32929.5875
2739.83899	32843.5875
2742.42786	32822.1875
2745.01513	32752.9875
2747.60079	32757.0875
2750.18486	32801.4875
2752.76733	32800.5875
2755.3482	32779.1875
2757.92747	32763.5875
2760.50515	32736.1875
2763.08123	32699.7875
2765.65573	32658.7875
2768.22863	32732.5875
2770.79994	32696.5875
2773.36967	32678.5875
2775.9378	32680.3875
2778.50435	32615.6875
2781.06932	32547.2875
2783.6327	32609.6875
2786.1945	32583.9875
2788.75471	32573.0875
2791.31335	32512.3875
2793.87041	32485.8875
2796.42589	32426.8875
2798.97979	32419.7875
2801.53212	32405.3875
2804.08288	32414.9875
2806.63206	32342.0875
2809.17967	32267.4875
2811.72571	32162.0875
2814.27018	32101.7875
2816.81308	32100.9875
2819.35442	32062.8875
2821.89419	31949.5875
2824.43239	32020.1875
2826.96904	32015.8875
2829.50412	32028.2875
2832.03763	31937.0875
2834.56959	31924.2875
2837.1	31870.9875
2839.62884	31861.5875
2842.15613	31759.4875
2844.68186	31828.4875
2847.20604	31758.3875
2849.72867	31787.0875
2852.24974	31777.3875
2854.76927	31774.1875
2857.28724	31738.6875
2859.80367	31731.2875
2862.31855	31655.9875
2864.83189	31648.2875
2867.34368	31598.0875
2869.85393	31568.7875
2872.36264	31548.3875
2874.8698	31487.1875
2877.37543	31515.5875
2879.87952	31525.5875
2882.38207	31509.9875
2884.88308	31529.1875
2887.38256	31632.7875
2889.88051	31599.6875
2892.37692	31623.8875
2894.8718	31567.9875
2897.36515	31642.1875
2899.85698	31671.1875
2902.34727	31745.2875
2904.83604	31772.1875
2907.32328	31879.5875
2909.809	31915.2875
2912.29319	31960.2875
2914.77587	31897.4875
2917.25702	31984.1875
2919.73665	31959.5875
2922.21476	31934.2875
2924.69136	31905.5875
2927.16644	31906.5875
2929.64	31827.5875
2932.11205	31724.7875
2934.58258	31605.6875
2937.05161	31635.4875
2939.51912	31660.2875
2941.98513	31605.7875
2944.44962	31583.7875
2946.91261	31577.2875
2949.37409	31719.8875
2951.83407	31634.2875
2954.29254	31705.0875
2956.74951	31677.3875
2959.20498	31707.6875
2961.65895	31666.8875
2964.11142	31683.0875
2966.56239	31669.8875
2969.01186	31577.1875
2971.45984	31556.5875
2973.90632	31621.3875
2976.35131	31544.7875
2978.7948	31553.7875
2981.23681	31459.3875
2983.67732	31420.3875
2986.11635	31381.5875
2988.55388	31334.9875
2990.98993	31257.9875
2993.4245	31139.8875
2995.85758	31123.4875
2998.28917	31027.5875
3000.71928	30949.2875
3003.14791	30905.8875
3005.57506	30795.1875
3008.00073	30726.6875
3010.42493	30733.7875
3012.84764	30681.6875
3015.26888	30679.9875
3017.68865	30635.4875
3020.10694	30574.1875
3022.52376	30526.6875
3024.9391	30569.9875
3027.35298	30544.3875
3029.76539	30568.4875
3032.17632	30497.5875
3034.5858	30507.8875
3036.9938	30465.0875
3039.40034	30425.7875
3041.80542	30438.8875
3044.20903	30299.3875
3046.61118	30329.5875
3049.01187	30258.5875
3051.4111	30268.7875
3053.80888	30233.3875
3056.20519	30215.8875
3058.60005	30176.7875
3060.99345	30144.7875
3063.3854	30000.4875
3065.7759	29944.0875
3068.16494	29920.1875
3070.55254	29797.9875
3072.93868	29731.2875
3075.32338	29615.4875
3077.70662	29575.4875
3080.08842	29529.8875
3082.46878	29528.1875
3084.84769	29558.0875
3087.22515	29606.3875
3089.60118	29586.5875
3091.97576	29526.2875
3094.3489	29483.6875
3096.72061	29507.7875
3099.09087	29520.3875
3101.4597	29488.3875
3103.82709	29491.5875
3106.19305	29520.9875
3108.55757	29530.2875
3110.92066	29463.8875
3113.28232	29440.8875
3115.64255	29423.0875
3118.00134	29345.2875
3120.35871	29288.1875
3122.71466	29215.1875
3125.06917	29142.1875
3127.42226	29081.3875
3129.77393	29168.3875
3132.12417	29070.8875
3134.47299	29069.2875
3136.82039	28996.2875
3139.16636	28976.6875
3141.51092	29007.8875
3143.85406	28998.5875
3146.19579	29021.9875
3148.53609	29030.0875
3150.87499	29106.1875
3153.21246	29052.6875
3155.54853	29126.9875
3157.88318	29069.9875
3160.21642	29088.6875
3162.54826	29090.2875
3164.87868	29150.6875
3167.2077	29177.9875
3169.5353	29150.3875
3171.86151	29128.1875
3174.18631	29101.3875
3176.5097	29016.7875
3178.83169	29019.9875
3181.15228	29074.9875
3183.47147	29017.5875
3185.78926	28967.6875
3188.10565	28958.1875
3190.42065	28866.1875
3192.73424	28886.0875
3195.04645	28838.6875
3197.35725	28900.1875
3199.66667	28828.8875
3201.97469	28862.8875
3204.28132	28840.7875
3206.58656	28895.2875
3208.8904	28891.8875
3211.19287	28909.0875
3213.49394	28888.9875
3215.79363	28911.7875
3218.09193	28955.0875
3220.38884	28969.3875
3222.68438	28974.8875
3224.97853	28938.9875
3227.2713	28949.9875
3229.56269	28952.7875
3231.8527	28928.2875
3234.14133	28911.9875
3236.42858	28911.1875
3238.71446	28901.4875
3240.99896	28833.7875
3243.28209	28764.3875
3245.56384	28633.9875
3247.84423	28592.7875
3250.12324	28635.0875
3252.40088	28613.6875
3254.67715	28630.0875
3256.95205	28605.2875
3259.22558	28625.1875
3261.49775	28601.2875
3263.76855	28583.1875
3266.03799	28519.7875
3268.30606	28553.4875
3270.57277	28505.2875
3272.83812	28442.6875
3275.10211	28408.1875
3277.36474	28361.6875
3279.62601	28339.0875
3281.88593	28338.5875
3284.14448	28380.8875
3286.40168	28387.0875
3288.65753	28336.2875
3290.91202	28353.3875
3293.16516	28348.0875
3295.41695	28304.6875
3297.66738	28206.7875
3299.91647	28051.5875
3302.16421	27920.1875
3304.4106	27793.7875
3306.65564	27620.6875
3308.89933	27451.6875
3311.14169	27273.4875
3313.38269	27092.0875
3315.62236	26971.8875
3317.86068	26846.9875
3320.09766	26654.7875
3322.3333	26455.5875
3324.5676	26303.6875
3326.80056	25963.5875
3329.03219	25888.7875
3331.26248	4.4875
3333.49143	-0.9125
3335.71905	0.7875
