Data from AgNPs_UA_50uM_CRN_0uM_R6G_10uM_Q_RamanShift__21__12-35-41-779.txt Node

Date: Tue Jul 26 12:35:41 BST 2022
User: TCL
Spectrometer: QEP01345
Trigger mode: 4
Integration Time (sec): 7.000000E0
Scans to average: 10
Electric dark correction enabled: true
Nonlinearity correction enabled: false
Boxcar width: 0
XAxis mode: Raman Shifts
Number of Pixels in Spectrum: 1044
>>>>>Begin Spectral Data<<<<<
46.04893	0.9375
50.45542	-0.5625
54.85868	-0.1625
59.25871	-1.1625
63.6555	76.2375
68.04907	81.8375
72.43941	83.2375
76.82654	94.3375
81.21044	95.1375
85.59113	99.1375
89.96862	102.2375
94.34289	108.0375
98.71396	114.7375
103.08183	114.7375
107.4465	115.0375
111.80798	117.7375
116.16626	116.9375
120.52136	123.6375
124.87327	124.0375
129.222	132.2375
133.56755	143.8375
137.90993	145.7375
142.24913	157.6375
146.58517	170.3375
150.91804	192.1375
155.24774	216.7375
159.57429	262.0375
163.89768	335.2375
168.21792	432.5375
172.53501	587.3375
176.84895	797.6375
181.15975	1103.7375
185.46741	1538.9375
189.77193	2119.5375
194.07331	2816.2375
198.37157	3614.0375
202.6667	4453.0375
206.9587	5289.3375
211.24758	6120.0375
215.53334	6982.1375
219.81599	7881.4375
224.09553	8879.1375
228.37195	10018.5375
232.64527	11269.0375
236.91549	12569.3375
241.18261	13761.4375
245.44663	14850.7375
249.70755	15761.5375
253.96539	16541.4375
258.22014	17162.7375
262.4718	17699.1375
266.72039	18079.5375
270.96589	18253.0375
275.20832	18156.3375
279.44768	17927.0375
283.68397	17668.2375
287.91719	17417.0375
292.14735	17316.7375
296.37445	17464.4375
300.59849	17755.4375
304.81948	18084.6375
309.03742	18336.6375
313.25231	18298.5375
317.46415	17867.3375
321.67296	17290.2375
325.87872	16801.3375
330.08145	16595.4375
334.28114	16646.1375
338.47781	16850.4375
342.67145	17117.3375
346.86207	17565.3375
351.04966	18172.6375
355.23424	18778.2375
359.4158	19320.7375
363.59435	19651.9375
367.76989	19901.1375
371.94243	19986.0375
376.11196	20077.4375
380.27849	20145.7375
384.44203	20183.4375
388.60257	20278.8375
392.76012	20317.8375
396.91468	20528.0375
401.06626	20856.4375
405.21485	21121.4375
409.36047	20984.1375
413.50311	20461.6375
417.64277	19991.2375
421.77947	19722.2375
425.9132	19539.3375
430.04396	19549.0375
434.17176	19700.7375
438.2966	19927.4375
442.41849	20349.5375
446.53742	20887.2375
450.6534	21409.9375
454.76644	21840.6375
458.87653	21930.5375
462.98368	21848.3375
467.08789	21619.7375
471.18916	21263.4375
475.2875	20802.6375
479.38291	20408.8375
483.4754	20133.4375
487.56496	19957.5375
491.6516	19772.9375
495.73531	19750.3375
499.81612	19822.7375
503.89401	19994.3375
507.96899	20143.7375
512.04106	20194.9375
516.11023	20295.8375
520.1765	20415.2375
524.23987	20442.4375
528.30034	20380.0375
532.35792	20299.6375
536.41261	20131.0375
540.46441	19879.3375
544.51333	19810.6375
548.55936	19873.1375
552.60252	20150.1375
556.64279	20505.4375
560.6802	20690.7375
564.71473	20900.7375
568.7464	21179.6375
572.7752	21401.0375
576.80114	21280.7375
580.82422	21271.0375
584.84444	21486.7375
588.86181	21824.4375
592.87633	22131.1375
596.888	22414.0375
600.89682	22827.0375
604.9028	24456.5375
608.90594	28456.9375
612.90624	32364.5375
616.90371	30333.6375
620.89834	24361.3375
624.89015	21855.0375
628.87913	21599.6375
632.86528	21668.1375
636.84862	21608.9375
640.82913	21208.7375
644.80683	20510.3375
648.78172	19989.6375
652.75379	20003.6375
656.72306	20483.3375
660.68952	21063.9375
664.65319	20979.1375
668.61405	20595.8375
672.57211	20561.6375
676.52738	20605.6375
680.47986	20465.4375
684.42955	20325.3375
688.37646	20279.7375
692.32058	20407.0375
696.26192	20555.0375
700.20048	20806.1375
704.13626	20871.1375
708.06928	20727.7375
711.99952	20545.4375
715.927	20473.7375
719.85171	20546.6375
723.77365	20476.8375
727.69284	20345.7375
731.60928	20251.5375
735.52295	20227.9375
739.43388	20318.1375
743.34206	20429.0375
747.24749	20475.1375
751.15017	20527.2375
755.05012	20728.2375
758.94733	21322.8375
762.8418	22688.6375
766.73354	24908.9375
770.62254	27114.5375
774.50882	28053.7375
778.39237	27186.9375
782.27321	25013.4375
786.15132	22916.7375
790.02671	21523.4375
793.89938	20897.4375
797.76935	20596.0375
801.6366	20483.7375
805.50115	20356.8375
809.36299	20282.7375
813.22213	20118.9375
817.07857	20030.5375
820.93231	20056.6375
824.78336	20060.9375
828.63172	20115.6375
832.47738	20082.1375
836.32036	20128.1375
840.16066	20186.5375
843.99827	20247.9375
847.8332	20228.8375
851.66546	20151.8375
855.49504	20166.0375
859.32195	20187.1375
863.1462	20138.7375
866.96777	20104.3375
870.78668	20122.9375
874.60293	20139.1375
878.41652	20159.6375
882.22745	20270.3375
886.03573	20345.6375
889.84136	20347.6375
893.64433	20243.8375
897.44466	20136.1375
901.24235	20078.0375
905.0374	20023.7375
908.8298	19965.5375
912.61957	19926.2375
916.40671	19967.2375
920.19121	20199.9375
923.97308	20444.1375
927.75233	20660.1375
931.52895	20787.0375
935.30295	20657.7375
939.07433	20258.6375
942.84309	19985.7375
946.60924	19873.3375
950.37278	19813.7375
954.13371	19786.6375
957.89203	19688.9375
961.64774	19583.9375
965.40086	19534.1375
969.15137	19510.7375
972.89929	19486.7375
976.64461	19468.9375
980.38733	19536.6375
984.12747	19666.7375
987.86502	19875.3375
991.59999	20112.9375
995.33237	20546.3375
999.06217	21164.5375
1002.78939	21869.0375
1006.51404	22223.7375
1010.23611	22451.6375
1013.95561	22655.1375
1017.67255	22735.0375
1021.38692	22586.8375
1025.09872	22524.6375
1028.80796	22730.9375
1032.51465	23309.6375
1036.21877	23801.1375
1039.92035	23783.6375
1043.61937	23430.9375
1047.31584	22813.3375
1051.00976	22220.8375
1054.70114	21892.7375
1058.38998	21886.7375
1062.07627	21953.1375
1065.76003	21954.1375
1069.44126	22053.8375
1073.11995	22393.0375
1076.79611	22755.3375
1080.46974	23102.3375
1084.14085	23417.2375
1087.80943	23639.5375
1091.47549	23715.5375
1095.13903	23541.6375
1098.80005	23186.0375
1102.45857	22906.6375
1106.11456	22758.9375
1109.76805	22770.0375
1113.41903	22925.8375
1117.06751	23225.1375
1120.71348	23630.7375
1124.35696	24072.2375
1127.99793	24393.5375
1131.63641	24382.2375
1135.2724	23960.4375
1138.90589	23536.2375
1142.5369	23213.1375
1146.16542	22961.6375
1149.79145	22768.6375
1153.415	22686.4375
1157.03607	22787.3375
1160.65467	23090.7375
1164.27079	23699.7375
1167.88443	24674.2375
1171.49561	26114.8375
1175.10432	28119.1375
1178.71056	30825.6375
1182.31434	33197.4375
1185.91565	34421.0375
1189.51451	34134.5375
1193.11091	32816.7375
1196.70485	31155.6375
1200.29634	29767.2375
1203.88538	28686.6375
1207.47197	27521.2375
1211.05612	26644.2375
1214.63782	26099.0375
1218.21708	25899.7375
1221.79391	25991.2375
1225.36829	26165.0375
1228.94024	26046.4375
1232.50976	25609.9375
1236.07685	25214.0375
1239.6415	25029.3375
1243.20374	25124.9375
1246.76355	25417.0375
1250.32093	25771.9375
1253.8759	26329.9375
1257.42845	26962.2375
1260.97859	27735.8375
1264.52631	28568.5375
1268.07163	29348.0375
1271.61453	30224.9375
1275.15503	30918.5375
1278.69312	31562.5375
1282.22882	32052.4375
1285.76211	32448.7375
1289.29301	32860.0375
1292.82151	33425.4375
1296.34761	34306.4375
1299.87133	35834.9375
1303.39266	38162.3375
1306.9116	41501.2375
1310.42815	44983.0375
1313.94233	47024.3375
1317.45412	46496.6375
1320.96354	44423.1375
1324.47058	41952.0375
1327.97525	39726.6375
1331.47754	38119.3375
1334.97747	37382.8375
1338.47502	37280.7375
1341.97022	37667.4375
1345.46305	38448.6375
1348.95352	39367.3375
1352.44163	40839.4375
1355.92738	43036.5375
1359.41078	46501.8375
1362.89183	49425.8375
1366.37053	48016.2375
1369.84688	42676.0375
1373.32088	37344.0375
1376.79254	33933.8375
1380.26186	32203.0375
1383.72883	31319.3375
1387.19347	30654.9375
1390.65578	29868.3375
1394.11575	29223.4375
1397.57339	28941.2375
1401.0287	29007.8375
1404.48168	29232.8375
1407.93234	29384.5375
1411.38068	29438.1375
1414.82669	29339.1375
1418.27039	29018.5375
1421.71177	28619.0375
1425.15083	28206.5375
1428.58758	28080.4375
1432.02203	28317.9375
1435.45416	28808.6375
1438.88399	29157.7375
1442.31151	29287.9375
1445.73673	29338.3375
1449.15965	29454.0375
1452.58027	29439.3375
1455.9986	29381.0375
1459.41463	29532.7375
1462.82837	29968.8375
1466.23982	30646.6375
1469.64898	31256.3375
1473.05586	31615.1375
1476.46045	31769.5375
1479.86276	31893.6375
1483.26279	31882.7375
1486.66054	32048.4375
1490.05602	32343.6375
1493.44922	32936.8375
1496.84016	34038.8375
1500.22882	35819.1375
1503.61521	38358.8375
1506.99934	41093.6375
1510.38121	43055.3375
1513.76081	43308.1375
1517.13816	41258.1375
1520.51324	38003.4375
1523.88607	35066.4375
1527.25665	33175.5375
1530.62498	32121.7375
1533.99105	31484.2375
1537.35488	31100.4375
1540.71647	30812.6375
1544.07581	30605.2375
1547.4329	30382.9375
1550.78776	30198.9375
1554.14038	29996.1375
1557.49077	29948.7375
1560.83892	30037.3375
1564.18484	30460.4375
1567.52853	30959.9375
1570.86999	31337.0375
1574.20922	31522.1375
1577.54624	31374.2375
1580.88103	30637.9375
1584.2136	29765.0375
1587.54395	29659.6375
1590.87208	30648.2375
1594.19801	32579.7375
1597.52172	34902.9375
1600.84321	35997.5375
1604.16251	34950.4375
1607.47959	32873.4375
1610.79447	30486.4375
1614.10715	28281.4375
1617.41763	26492.1375
1620.7259	25257.8375
1624.03199	24667.5375
1627.33587	24686.6375
1630.63757	25263.2375
1633.93707	26513.1375
1637.23439	28452.2375
1640.52951	31133.4375
1643.82246	34283.0375
1647.11321	37004.9375
1650.40179	37790.2375
1653.68819	35784.7375
1656.97241	31775.0375
1660.25446	27708.0375
1663.53433	24884.6375
1666.81203	23129.6375
1670.08756	22031.4375
1673.36092	21352.1375
1676.63211	20842.5375
1679.90115	20473.7375
1683.16801	20221.7375
1686.43272	20019.4375
1689.69527	19860.0375
1692.95567	19772.8375
1696.2139	19701.5375
1699.46999	19623.2375
1702.72392	19564.0375
1705.97571	19546.9375
1709.22535	19556.7375
1712.47284	19537.8375
1715.71819	19514.5375
1718.96139	19424.4375
1722.20246	19394.2375
1725.44139	19334.3375
1728.67818	19208.2375
1731.91284	19168.4375
1735.14537	19047.1375
1738.37576	18994.2375
1741.60403	18892.9375
1744.83017	18823.1375
1748.05418	18769.7375
1751.27607	18739.0375
1754.49584	18704.5375
1757.71349	18662.9375
1760.92903	18669.7375
1764.14244	18651.5375
1767.35375	18638.1375
1770.56294	18586.4375
1773.77002	18586.7375
1776.97499	18557.5375
1780.17785	18529.5375
1783.37861	18534.1375
1786.57727	18502.9375
1789.77382	18477.7375
1792.96828	18474.6375
1796.16064	18444.6375
1799.3509	18443.4375
1802.53907	18424.0375
1805.72514	18361.3375
1808.90913	18305.4375
1812.09102	18261.4375
1815.27083	18193.6375
1818.44856	18179.3375
1821.6242	18191.0375
1824.79776	18135.6375
1827.96924	18103.1375
1831.13864	18119.4375
1834.30597	18087.2375
1837.47122	18095.3375
1840.6344	18058.5375
1843.7955	18083.5375
1846.95454	18060.5375
1850.11151	18071.0375
1853.26642	18020.9375
1856.41926	18026.7375
1859.57004	18032.6375
1862.71876	17988.6375
1865.86542	18002.9375
1869.01003	17992.6375
1872.15258	17978.6375
1875.29308	18001.9375
1878.43152	17981.1375
1881.56792	17927.9375
1884.70227	17987.0375
1887.83457	17937.5375
1890.96482	17931.3375
1894.09304	17871.1375
1897.21921	17892.6375
1900.34335	17859.4375
1903.46544	17838.5375
1906.58551	17866.8375
1909.70353	17854.9375
1912.81953	17918.4375
1915.93349	17849.3375
1919.04543	17814.1375
1922.15534	17818.1375
1925.26322	17760.1375
1928.36908	17743.6375
1931.47292	17707.8375
1934.57473	17667.8375
1937.67453	17644.7375
1940.77232	17614.3375
1943.86808	17560.3375
1946.96184	17515.3375
1950.05358	17494.8375
1953.14331	17427.2375
1956.23103	17395.6375
1959.31675	17334.3375
1962.40046	17329.5375
1965.48217	17265.8375
1968.56188	17211.4375
1971.63959	17194.4375
1974.7153	17154.3375
1977.78901	17137.2375
1980.86073	17072.7375
1983.93046	17047.6375
1986.99819	16969.9375
1990.06394	16959.0375
1993.1277	16922.1375
1996.18947	16839.1375
1999.24925	16814.2375
2002.30706	16773.3375
2005.36288	16740.6375
2008.41672	16694.8375
2011.46859	16651.4375
2014.51848	16654.1375
2017.56639	16566.7375
2020.61233	16514.2375
2023.6563	16504.7375
2026.6983	16469.6375
2029.73833	16471.5375
2032.7764	16462.9375
2035.8125	16394.8375
2038.84664	16396.2375
2041.87881	16438.5375
2044.90903	16371.7375
2047.93729	16348.4375
2050.96359	16323.0375
2053.98794	16338.5375
2057.01034	16315.9375
2060.03078	16323.7375
2063.04927	16328.6375
2066.06582	16339.7375
2069.08042	16294.3375
2072.09307	16286.0375
2075.10378	16270.8375
2078.11255	16231.4375
2081.11938	16207.3375
2084.12426	16193.7375
2087.12722	16239.6375
2090.12824	16222.3375
2093.12732	16254.0375
2096.12447	16230.7375
2099.11969	16257.3375
2102.11299	16247.4375
2105.10435	16258.4375
2108.09379	16275.3375
2111.08131	16282.8375
2114.0669	16285.0375
2117.05057	16290.0375
2120.03233	16326.8375
2123.01216	16375.2375
2125.99008	16369.7375
2128.96609	16370.5375
2131.94018	16363.4375
2134.91236	16412.0375
2137.88263	16436.8375
2140.851	16424.4375
2143.81746	16439.6375
2146.78201	16413.3375
2149.74466	16468.8375
2152.7054	16497.3375
2155.66425	16474.8375
2158.6212	16494.4375
2161.57625	16487.2375
2164.52941	16486.9375
2167.48067	16507.1375
2170.43004	16493.9375
2173.37752	16473.1375
2176.32311	16486.4375
2179.26681	16512.8375
2182.20863	16489.2375
2185.14856	16485.6375
2188.08661	16495.3375
2191.02278	16520.1375
2193.95707	16505.2375
2196.88948	16535.4375
2199.82001	16540.2375
2202.74867	16545.5375
2205.67545	16566.6375
2208.60037	16552.4375
2211.52341	16537.8375
2214.44458	16526.7375
2217.36388	16515.5375
2220.28132	16498.5375
2223.1969	16454.1375
2226.11061	16481.9375
2229.02246	16452.2375
2231.93245	16406.9375
2234.84058	16389.1375
2237.74686	16321.0375
2240.65128	16285.6375
2243.55385	16298.9375
2246.45456	16291.2375
2249.35343	16279.3375
2252.25044	16286.2375
2255.14561	16274.6375
2258.03893	16293.6375
2260.93041	16241.9375
2263.82004	16207.5375
2266.70783	16203.3375
2269.59378	16173.8375
2272.4779	16150.4375
2275.36017	16129.5375
2278.24061	16062.1375
2281.11922	16037.9375
2283.996	16049.2375
2286.87094	16003.9375
2289.74405	15985.6375
2292.61534	15972.2375
2295.4848	15976.1375
2298.35243	15969.2375
2301.21824	15982.9375
2304.08223	16020.8375
2306.94439	16033.0375
2309.80474	16050.6375
2312.66327	16055.5375
2315.51999	16074.6375
2318.37489	16078.6375
2321.22797	16077.4375
2324.07925	16062.3375
2326.92871	15990.2375
2329.77637	15988.2375
2332.62222	16012.0375
2335.46626	16017.2375
2338.3085	16016.9375
2341.14893	16029.2375
2343.98756	16061.7375
2346.8244	16088.7375
2349.65943	16106.5375
2352.49267	16085.5375
2355.32411	16088.9375
2358.15376	16069.4375
2360.98161	16066.6375
2363.80768	16070.7375
2366.63195	16062.3375
2369.45444	16027.5375
2372.27514	16007.2375
2375.09405	15991.4375
2377.91118	15987.2375
2380.72652	15910.6375
2383.54009	15879.8375
2386.35187	15867.3375
2389.16188	15800.0375
2391.97011	15833.0375
2394.77657	15784.2375
2397.58125	15751.5375
2400.38416	15745.3375
2403.18529	15751.4375
2405.98466	15704.0375
2408.78226	15681.7375
2411.57809	15606.8375
2414.37216	15600.6375
2417.16446	15642.6375
2419.955	15619.0375
2422.74378	15619.0375
2425.5308	15585.5375
2428.31606	15602.1375
2431.09956	15603.5375
2433.88131	15556.0375
2436.6613	15599.1375
2439.43954	15605.7375
2442.21603	15564.1375
2444.99077	15577.2375
2447.76377	15583.1375
2450.53501	15569.1375
2453.30451	15548.2375
2456.07226	15537.1375
2458.83827	15568.0375
2461.60254	15529.7375
2464.36507	15526.5375
2467.12586	15537.5375
2469.88492	15521.9375
2472.64224	15561.0375
2475.39782	15563.0375
2478.15167	15591.4375
2480.90379	15568.9375
2483.65417	15601.9375
2486.40283	15598.6375
2489.14976	15643.8375
2491.89497	15657.6375
2494.63845	15700.2375
2497.3802	15665.0375
2500.12024	15635.2375
2502.85855	15651.6375
2505.59514	15646.9375
2508.33002	15618.6375
2511.06318	15584.3375
2513.79462	15571.0375
2516.52435	15548.0375
2519.25237	15539.0375
2521.97867	15518.0375
2524.70327	15530.4375
2527.42616	15471.8375
2530.14734	15508.6375
2532.86681	15506.4375
2535.58458	15518.6375
2538.30065	15492.5375
2541.01501	15537.1375
2543.72768	15525.6375
2546.43864	15473.9375
2549.14791	15495.0375
2551.85548	15482.1375
2554.56136	15509.7375
2557.26554	15436.3375
2559.96803	15452.9375
2562.66883	15449.7375
2565.36794	15403.6375
2568.06536	15387.9375
2570.7611	15416.5375
2573.45514	15396.0375
2576.14751	15377.9375
2578.83819	15372.9375
2581.52719	15378.4375
2584.21451	15366.5375
2586.90015	15345.2375
2589.58411	15352.8375
2592.2664	15373.6375
2594.94701	15362.6375
2597.62594	15342.8375
2600.30321	15313.5375
2602.9788	15322.7375
2605.65273	15283.4375
2608.32498	15319.4375
2610.99557	15326.8375
2613.66449	15326.0375
2616.33175	15339.7375
2618.99734	15373.6375
2621.66128	15378.9375
2624.32355	15327.8375
2626.98416	15373.6375
2629.64311	15336.8375
2632.30041	15365.2375
2634.95605	15372.3375
2637.61004	15347.1375
2640.26238	15331.5375
2642.91306	15334.3375
2645.56209	15329.7375
2648.20948	15304.3375
2650.85521	15284.1375
2653.4993	15239.7375
2656.14175	15232.7375
2658.78255	15245.1375
2661.42171	15227.5375
2664.05923	15264.3375
2666.6951	15325.2375
2669.32934	15347.9375
2671.96194	15353.6375
2674.59291	15329.2375
2677.22224	15346.0375
2679.84993	15332.8375
2682.476	15316.0375
2685.10043	15307.1375
2687.72324	15298.8375
2690.34441	15283.1375
2692.96396	15245.2375
2695.58188	15265.7375
2698.19818	15247.1375
2700.81285	15254.4375
2703.4259	15234.0375
2706.03733	15262.6375
2708.64714	15267.9375
2711.25533	15269.1375
2713.86191	15275.5375
2716.46687	15304.2375
2719.07021	15309.7375
2721.67194	15324.9375
2724.27206	15315.5375
2726.87057	15316.2375
2729.46747	15314.2375
2732.06276	15330.7375
2734.65644	15318.6375
2737.24852	15334.4375
2739.83899	15312.5375
2742.42786	15355.2375
2745.01513	15328.0375
2747.60079	15293.5375
2750.18486	15251.2375
2752.76733	15247.8375
2755.3482	15270.5375
2757.92747	15263.1375
2760.50515	15224.4375
2763.08123	15233.1375
2765.65573	15234.1375
2768.22863	15259.0375
2770.79994	15247.3375
2773.36967	15289.9375
2775.9378	15242.0375
2778.50435	15257.3375
2781.06932	15243.3375
2783.6327	15259.4375
2786.1945	15249.0375
2788.75471	15228.3375
2791.31335	15180.5375
2793.87041	15136.2375
2796.42589	15128.3375
2798.97979	15139.3375
2801.53212	15083.8375
2804.08288	15087.8375
2806.63206	15044.3375
2809.17967	15032.3375
2811.72571	14984.5375
2814.27018	14988.8375
2816.81308	14987.6375
2819.35442	14974.5375
2821.89419	14960.0375
2824.43239	14962.5375
2826.96904	14944.1375
2829.50412	14935.3375
2832.03763	14908.6375
2834.56959	14911.3375
2837.1	14891.4375
2839.62884	14851.7375
2842.15613	14844.4375
2844.68186	14883.2375
2847.20604	14857.1375
2849.72867	14865.1375
2852.24974	14824.6375
2854.76927	14806.4375
2857.28724	14828.7375
2859.80367	14827.8375
2862.31855	14805.7375
2864.83189	14822.6375
2867.34368	14780.8375
2869.85393	14793.6375
2872.36264	14784.1375
2874.8698	14802.8375
2877.37543	14771.7375
2879.87952	14800.1375
2882.38207	14786.7375
2884.88308	14776.3375
2887.38256	14810.1375
2889.88051	14806.4375
2892.37692	14798.0375
2894.8718	14781.0375
2897.36515	14822.5375
2899.85698	14821.4375
2902.34727	14864.5375
2904.83604	14890.2375
2907.32328	14958.8375
2909.809	14974.7375
2912.29319	14936.6375
2914.77587	14942.0375
2917.25702	14963.7375
2919.73665	14929.8375
2922.21476	14930.4375
2924.69136	14909.2375
2927.16644	14911.2375
2929.64	14874.4375
2932.11205	14883.7375
2934.58258	14801.9375
2937.05161	14833.9375
2939.51912	14831.9375
2941.98513	14834.5375
2944.44962	14810.5375
2946.91261	14777.2375
2949.37409	14782.0375
2951.83407	14790.7375
2954.29254	14804.7375
2956.74951	14826.3375
2959.20498	14818.9375
2961.65895	14795.0375
2964.11142	14811.3375
2966.56239	14751.4375
2969.01186	14774.1375
2971.45984	14778.0375
2973.90632	14795.3375
2976.35131	14753.3375
2978.7948	14698.6375
2981.23681	14675.5375
2983.67732	14636.0375
2986.11635	14630.4375
2988.55388	14591.2375
2990.98993	14575.4375
2993.4245	14573.2375
2995.85758	14523.0375
2998.28917	14534.9375
3000.71928	14533.3375
3003.14791	14502.9375
3005.57506	14479.3375
3008.00073	14411.8375
3010.42493	14436.6375
3012.84764	14407.4375
3015.26888	14432.6375
3017.68865	14388.1375
3020.10694	14390.0375
3022.52376	14326.2375
3024.9391	14313.6375
3027.35298	14300.6375
3029.76539	14321.7375
3032.17632	14294.1375
3034.5858	14270.9375
3036.9938	14301.2375
3039.40034	14250.5375
3041.80542	14251.8375
3044.20903	14209.5375
3046.61118	14226.6375
3049.01187	14171.2375
3051.4111	14213.5375
3053.80888	14178.2375
3056.20519	14144.8375
3058.60005	14133.8375
3060.99345	14121.2375
3063.3854	14069.6375
3065.7759	14046.2375
3068.16494	14051.8375
3070.55254	13998.8375
3072.93868	14000.1375
3075.32338	13933.5375
3077.70662	13901.4375
3080.08842	13906.9375
3082.46878	13919.0375
3084.84769	13886.6375
3087.22515	13877.7375
3089.60118	13886.8375
3091.97576	13887.3375
3094.3489	13905.8375
3096.72061	13932.7375
3099.09087	13894.9375
3101.4597	13870.2375
3103.82709	13916.8375
3106.19305	13889.6375
3108.55757	13889.5375
3110.92066	13890.4375
3113.28232	13841.6375
3115.64255	13858.7375
3118.00134	13864.2375
3120.35871	13811.2375
3122.71466	13805.4375
3125.06917	13796.4375
3127.42226	13774.3375
3129.77393	13770.9375
3132.12417	13789.1375
3134.47299	13772.5375
3136.82039	13739.5375
3139.16636	13735.4375
3141.51092	13716.7375
3143.85406	13748.9375
3146.19579	13743.0375
3148.53609	13738.3375
3150.87499	13787.7375
3153.21246	13796.4375
3155.54853	13796.3375
3157.88318	13790.2375
3160.21642	13798.4375
3162.54826	13846.1375
3164.87868	13838.2375
3167.2077	13817.0375
3169.5353	13823.9375
3171.86151	13827.3375
3174.18631	13837.2375
3176.5097	13793.8375
3178.83169	13816.4375
3181.15228	13810.7375
3183.47147	13763.1375
3185.78926	13754.6375
3188.10565	13725.6375
3190.42065	13740.4375
3192.73424	13751.9375
3195.04645	13728.7375
3197.35725	13738.1375
3199.66667	13742.8375
3201.97469	13757.9375
3204.28132	13726.9375
3206.58656	13750.1375
3208.8904	13785.1375
3211.19287	13824.4375
3213.49394	13787.4375
3215.79363	13784.3375
3218.09193	13802.3375
3220.38884	13805.0375
3222.68438	13825.5375
3224.97853	13799.1375
3227.2713	13827.5375
3229.56269	13851.0375
3231.8527	13845.7375
3234.14133	13804.9375
3236.42858	13808.1375
3238.71446	13774.1375
3240.99896	13732.3375
3243.28209	13711.1375
3245.56384	13702.0375
3247.84423	13712.4375
3250.12324	13665.6375
3252.40088	13666.4375
3254.67715	13637.5375
3256.95205	13639.0375
3259.22558	13639.6375
3261.49775	13640.2375
3263.76855	13677.4375
3266.03799	13660.8375
3268.30606	13684.7375
3270.57277	13654.8375
3272.83812	13605.1375
3275.10211	13590.6375
3277.36474	13575.3375
3279.62601	13576.7375
3281.88593	13554.1375
3284.14448	13593.3375
3286.40168	13561.6375
3288.65753	13544.2375
3290.91202	13563.7375
3293.16516	13530.8375
3295.41695	13496.1375
3297.66738	13408.0375
3299.91647	13372.1375
3302.16421	13307.1375
3304.4106	13256.4375
3306.65564	13157.1375
3308.89933	13097.2375
3311.14169	13019.0375
3313.38269	12933.5375
3315.62236	12848.7375
3317.86068	12769.7375
3320.09766	12665.1375
3322.3333	12573.3375
3324.5676	12570.2375
3326.80056	12381.7375
3329.03219	12300.5375
3331.26248	3.4375
3333.49143	-1.0625
3335.71905	-0.9625
