Data from AgNPs_UA_2uM_CRN_0uM_R6G_10uM_Q_RamanShift__7__13-09-11-905.txt Node

Date: Wed Jul 13 13:09:11 BST 2022
User: TCL
Spectrometer: QEP01345
Trigger mode: 4
Integration Time (sec): 7.000000E0
Scans to average: 10
Electric dark correction enabled: true
Nonlinearity correction enabled: false
Boxcar width: 0
XAxis mode: Raman Shifts
Number of Pixels in Spectrum: 1044
>>>>>Begin Spectral Data<<<<<
46.04893	-1.7125
50.45542	-1.7125
54.85868	-1.5125
59.25871	0.2875
63.6555	114.3875
68.04907	124.5875
72.43941	127.2875
76.82654	134.9875
81.21044	135.5875
85.59113	142.2875
89.96862	155.1875
94.34289	150.6875
98.71396	157.1875
103.08183	161.2875
107.4465	166.8875
111.80798	173.2875
116.16626	175.2875
120.52136	187.6875
124.87327	192.8875
129.222	202.2875
133.56755	214.5875
137.90993	231.9875
142.24913	253.2875
146.58517	279.4875
150.91804	325.6875
155.24774	399.1875
159.57429	491.8875
163.89768	625.0875
168.21792	826.8875
172.53501	1128.3875
176.84895	1574.9875
181.15975	2214.6875
185.46741	3116.5875
189.77193	4279.9875
194.07331	5730.9875
198.37157	7349.6875
202.6667	9101.0875
206.9587	10802.3875
211.24758	12472.3875
215.53334	14144.0875
219.81599	15934.7875
224.09553	17929.5875
228.37195	20124.5875
232.64527	22507.4875
236.91549	25027.9875
241.18261	27547.1875
245.44663	29750.0875
249.70755	31736.9875
253.96539	33480.2875
258.22014	34946.0875
262.4718	36222.7875
266.72039	36997.1875
270.96589	37373.8875
275.20832	37331.3875
279.44768	37043.4875
283.68397	36675.2875
287.91719	36392.7875
292.14735	36155.8875
296.37445	36225.9875
300.59849	36479.4875
304.81948	36866.4875
309.03742	37186.3875
313.25231	37230.1875
317.46415	36926.0875
321.67296	36339.1875
325.87872	35884.6875
330.08145	35663.3875
334.28114	35727.1875
338.47781	36073.8875
342.67145	36645.5875
346.86207	37324.1875
351.04966	38105.4875
355.23424	38820.4875
359.4158	39393.2875
363.59435	39790.7875
367.76989	40007.9875
371.94243	40167.4875
376.11196	40295.2875
380.27849	40348.3875
384.44203	40510.1875
388.60257	40769.8875
392.76012	41211.9875
396.91468	41653.8875
401.06626	42217.3875
405.21485	42513.1875
409.36047	42290.8875
413.50311	41740.1875
417.64277	41379.2875
421.77947	41345.5875
425.9132	41523.1875
430.04396	41777.0875
434.17176	41922.8875
438.2966	42350.1875
442.41849	43033.8875
446.53742	44025.3875
450.6534	45049.6875
454.76644	45572.9875
458.87653	45732.1875
462.98368	45524.6875
467.08789	45124.4875
471.18916	44566.5875
475.2875	43961.3875
479.38291	43494.8875
483.4754	43160.1875
487.56496	42908.8875
491.6516	42710.9875
495.73531	42607.3875
499.81612	42626.5875
503.89401	42913.0875
507.96899	43112.3875
512.04106	43165.2875
516.11023	43112.6875
520.1765	43086.1875
524.23987	43170.3875
528.30034	43058.6875
532.35792	42933.4875
536.41261	42594.0875
540.46441	42312.3875
544.51333	42180.5875
548.55936	42457.9875
552.60252	43158.3875
556.64279	43895.8875
560.6802	44462.7875
564.71473	44778.4875
568.7464	45350.7875
572.7752	46124.1875
576.80114	46836.1875
580.82422	47739.8875
584.84444	48955.9875
588.86181	50670.9875
592.87633	52368.7875
596.888	52503.2875
600.89682	51205.9875
604.9028	51444.1875
608.90594	54913.3875
612.90624	58209.5875
616.90371	54315.8875
620.89834	47352.3875
624.89015	44773.5875
628.87913	44589.7875
632.86528	45045.8875
636.84862	45090.1875
640.82913	44553.4875
644.80683	43732.9875
648.78172	43273.9875
652.75379	43429.0875
656.72306	44083.3875
660.68952	44655.9875
664.65319	44331.9875
668.61405	43764.2875
672.57211	43873.6875
676.52738	44036.6875
680.47986	43858.1875
684.42955	43587.4875
688.37646	43538.8875
692.32058	43832.8875
696.26192	44411.8875
700.20048	44943.0875
704.13626	45234.1875
708.06928	45274.3875
711.99952	45107.5875
715.927	45084.7875
719.85171	45176.3875
723.77365	45053.7875
727.69284	44577.2875
731.60928	44297.1875
735.52295	44233.4875
739.43388	44369.5875
743.34206	44548.8875
747.24749	44722.0875
751.15017	45041.5875
755.05012	45673.0875
758.94733	46684.7875
762.8418	48821.4875
766.73354	51930.1875
770.62254	54439.2875
774.50882	54493.2875
778.39237	52566.1875
782.27321	49951.7875
786.15132	47646.1875
790.02671	46231.6875
793.89938	45425.3875
797.76935	45016.5875
801.6366	44816.4875
805.50115	44691.3875
809.36299	44610.6875
813.22213	44507.9875
817.07857	44431.1875
820.93231	44295.2875
824.78336	44328.1875
828.63172	44335.7875
832.47738	44339.5875
836.32036	44273.8875
840.16066	44313.6875
843.99827	44360.6875
847.8332	44372.9875
851.66546	44519.5875
855.49504	44657.6875
859.32195	44667.3875
863.1462	44610.7875
866.96777	44574.5875
870.78668	44620.7875
874.60293	44708.9875
878.41652	44868.5875
882.22745	45079.8875
886.03573	45207.2875
889.84136	45167.8875
893.64433	45040.6875
897.44466	44915.3875
901.24235	44858.7875
905.0374	44799.4875
908.8298	44702.1875
912.61957	44786.6875
916.40671	44958.3875
920.19121	45337.2875
923.97308	45753.7875
927.75233	45785.5875
931.52895	45527.0875
935.30295	45086.8875
939.07433	44487.0875
942.84309	44112.5875
946.60924	43996.6875
950.37278	43956.9875
954.13371	43940.3875
957.89203	43819.9875
961.64774	43855.0875
965.40086	43858.6875
969.15137	43790.3875
972.89929	43744.5875
976.64461	43755.0875
980.38733	43720.9875
984.12747	43788.4875
987.86502	43991.2875
991.59999	44125.7875
995.33237	44414.8875
999.06217	44867.6875
1002.78939	45384.8875
1006.51404	46059.5875
1010.23611	46668.4875
1013.95561	47053.3875
1017.67255	47090.8875
1021.38692	46791.1875
1025.09872	46278.2875
1028.80796	45719.5875
1032.51465	45641.6875
1036.21877	45704.0875
1039.92035	45770.7875
1043.61937	45850.6875
1047.31584	45920.0875
1051.00976	45947.1875
1054.70114	46001.1875
1058.38998	46258.5875
1062.07627	46685.9875
1065.76003	47000.2875
1069.44126	47481.0875
1073.11995	48199.7875
1076.79611	48838.6875
1080.46974	49286.8875
1084.14085	49568.5875
1087.80943	50007.5875
1091.47549	50258.0875
1095.13903	50049.7875
1098.80005	49465.4875
1102.45857	48768.5875
1106.11456	48243.8875
1109.76805	47972.5875
1113.41903	48006.6875
1117.06751	48216.5875
1120.71348	48686.1875
1124.35696	49233.0875
1127.99793	49634.7875
1131.63641	49578.0875
1135.2724	49087.2875
1138.90589	48772.5875
1142.5369	48793.9875
1146.16542	48859.0875
1149.79145	49061.6875
1153.415	49060.7875
1157.03607	49197.4875
1160.65467	49880.7875
1164.27079	51021.1875
1167.88443	52676.9875
1171.49561	54751.4875
1175.10432	57555.4875
1178.71056	61121.7875
1182.31434	63843.8875
1185.91565	64590.1875
1189.51451	63902.1875
1193.11091	62462.5875
1196.70485	60865.3875
1200.29634	59369.9875
1203.88538	58189.0875
1207.47197	57136.1875
1211.05612	56437.6875
1214.63782	55617.1875
1218.21708	54675.3875
1221.79391	53976.8875
1225.36829	53660.0875
1228.94024	53456.5875
1232.50976	53110.3875
1236.07685	52639.9875
1239.6415	52290.4875
1243.20374	52184.7875
1246.76355	52432.2875
1250.32093	52864.9875
1253.8759	53555.3875
1257.42845	54597.7875
1260.97859	55824.2875
1264.52631	57039.4875
1268.07163	58194.4875
1271.61453	59036.3875
1275.15503	59896.6875
1278.69312	60739.7875
1282.22882	61700.8875
1285.76211	62976.1875
1289.29301	64712.4875
1292.82151	66617.9875
1296.34761	68995.5875
1299.87133	71803.0875
1303.39266	75211.8875
1306.9116	78703.8875
1310.42815	81853.5875
1313.94233	83431.1875
1317.45412	82107.1875
1320.96354	79622.1875
1324.47058	77324.9875
1327.97525	75375.2875
1331.47754	74074.6875
1334.97747	73263.2875
1338.47502	72826.2875
1341.97022	72963.5875
1345.46305	73621.5875
1348.95352	74760.6875
1352.44163	76097.7875
1355.92738	78078.4875
1359.41078	81499.7875
1362.89183	84414.5875
1366.37053	83020.8875
1369.84688	76657.4875
1373.32088	69283.8875
1376.79254	64515.4875
1380.26186	62516.2875
1383.72883	62133.1875
1387.19347	61885.1875
1390.65578	61119.1875
1394.11575	60473.7875
1397.57339	60242.4875
1401.0287	60155.8875
1404.48168	60091.2875
1407.93234	59690.3875
1411.38068	59105.2875
1414.82669	58254.3875
1418.27039	57150.8875
1421.71177	56096.9875
1425.15083	55290.1875
1428.58758	55062.3875
1432.02203	55569.8875
1435.45416	56624.3875
1438.88399	57409.3875
1442.31151	57893.1875
1445.73673	58144.3875
1449.15965	58169.5875
1452.58027	57978.7875
1455.9986	57811.9875
1459.41463	57871.9875
1462.82837	58482.1875
1466.23982	59322.3875
1469.64898	59981.9875
1473.05586	60557.3875
1476.46045	60818.8875
1479.86276	60889.9875
1483.26279	61027.8875
1486.66054	61375.4875
1490.05602	62145.3875
1493.44922	63269.0875
1496.84016	64883.0875
1500.22882	67158.9875
1503.61521	70131.5875
1506.99934	73200.2875
1510.38121	75327.9875
1513.76081	75100.3875
1517.13816	72532.2875
1520.51324	69032.0875
1523.88607	66424.8875
1527.25665	65080.8875
1530.62498	64609.4875
1533.99105	64059.9875
1537.35488	63217.8875
1540.71647	62103.3875
1544.07581	60863.9875
1547.4329	59837.7875
1550.78776	58942.0875
1554.14038	58443.7875
1557.49077	58197.4875
1560.83892	58359.2875
1564.18484	58764.4875
1567.52853	59387.5875
1570.86999	60050.4875
1574.20922	60626.5875
1577.54624	60712.6875
1580.88103	59922.0875
1584.2136	59218.7875
1587.54395	59614.3875
1590.87208	61222.2875
1594.19801	63641.5875
1597.52172	66092.7875
1600.84321	66590.0875
1604.16251	64778.7875
1607.47959	61792.0875
1610.79447	58559.3875
1614.10715	55345.6875
1617.41763	52663.9875
1620.7259	50922.4875
1624.03199	50046.0875
1627.33587	50075.5875
1630.63757	50914.0875
1633.93707	52914.2875
1637.23439	56639.3875
1640.52951	62225.0875
1643.82246	69060.1875
1647.11321	74654.6875
1650.40179	75625.2875
1653.68819	71246.1875
1656.97241	63706.1875
1660.25446	56478.9875
1663.53433	51372.1875
1666.81203	48350.4875
1670.08756	46441.1875
1673.36092	45196.3875
1676.63211	44408.9875
1679.90115	43771.4875
1683.16801	43392.5875
1686.43272	43081.4875
1689.69527	42815.5875
1692.95567	42648.6875
1696.2139	42549.0875
1699.46999	42456.3875
1702.72392	42412.6875
1705.97571	42378.1875
1709.22535	42318.8875
1712.47284	42334.6875
1715.71819	42333.8875
1718.96139	42272.6875
1722.20246	42157.8875
1725.44139	42007.9875
1728.67818	41913.4875
1731.91284	41762.3875
1735.14537	41575.2875
1738.37576	41465.5875
1741.60403	41263.5875
1744.83017	41192.1875
1748.05418	41152.2875
1751.27607	41092.8875
1754.49584	41062.8875
1757.71349	40995.5875
1760.92903	40983.1875
1764.14244	40902.9875
1767.35375	40837.7875
1770.56294	40805.6875
1773.77002	40812.5875
1776.97499	40711.8875
1780.17785	40665.0875
1783.37861	40614.9875
1786.57727	40515.1875
1789.77382	40549.4875
1792.96828	40470.2875
1796.16064	40422.4875
1799.3509	40321.5875
1802.53907	40318.5875
1805.72514	40255.2875
1808.90913	40168.4875
1812.09102	40055.2875
1815.27083	39977.0875
1818.44856	39901.3875
1821.6242	39881.9875
1824.79776	39796.4875
1827.96924	39784.8875
1831.13864	39693.9875
1834.30597	39688.8875
1837.47122	39704.1875
1840.6344	39633.8875
1843.7955	39593.7875
1846.95454	39584.9875
1850.11151	39583.0875
1853.26642	39514.0875
1856.41926	39513.1875
1859.57004	39482.0875
1862.71876	39485.9875
1865.86542	39451.0875
1869.01003	39397.6875
1872.15258	39336.9875
1875.29308	39282.3875
1878.43152	39262.5875
1881.56792	39233.2875
1884.70227	39220.3875
1887.83457	39144.7875
1890.96482	39129.1875
1894.09304	39070.5875
1897.21921	39076.8875
1900.34335	39031.1875
1903.46544	39030.7875
1906.58551	38928.3875
1909.70353	38934.0875
1912.81953	38888.1875
1915.93349	38815.3875
1919.04543	38714.7875
1922.15534	38680.1875
1925.26322	38571.0875
1928.36908	38506.9875
1931.47292	38494.8875
1934.57473	38433.6875
1937.67453	38357.4875
1940.77232	38249.9875
1943.86808	38118.1875
1946.96184	38065.1875
1950.05358	37983.9875
1953.14331	37846.3875
1956.23103	37759.1875
1959.31675	37688.5875
1962.40046	37588.8875
1965.48217	37474.9875
1968.56188	37381.4875
1971.63959	37241.5875
1974.7153	37159.6875
1977.78901	37075.6875
1980.86073	36945.6875
1983.93046	36821.2875
1986.99819	36712.3875
1990.06394	36611.9875
1993.1277	36585.8875
1996.18947	36419.6875
1999.24925	36406.6875
2002.30706	36318.1875
2005.36288	36180.1875
2008.41672	36096.3875
2011.46859	35960.4875
2014.51848	35905.8875
2017.56639	35802.6875
2020.61233	35699.6875
2023.6563	35572.3875
2026.6983	35545.5875
2029.73833	35409.0875
2032.7764	35325.5875
2035.8125	35244.9875
2038.84664	35216.3875
2041.87881	35182.4875
2044.90903	35042.1875
2047.93729	35043.5875
2050.96359	35043.7875
2053.98794	34947.9875
2057.01034	34927.4875
2060.03078	34901.7875
2063.04927	34838.0875
2066.06582	34776.9875
2069.08042	34785.1875
2072.09307	34821.7875
2075.10378	34804.5875
2078.11255	34782.6875
2081.11938	34835.3875
2084.12426	34690.1875
2087.12722	34652.8875
2090.12824	34646.8875
2093.12732	34640.3875
2096.12447	34702.1875
2099.11969	34752.7875
2102.11299	34753.4875
2105.10435	34773.0875
2108.09379	34755.4875
2111.08131	34805.6875
2114.0669	34826.8875
2117.05057	34900.1875
2120.03233	34872.8875
2123.01216	34857.7875
2125.99008	34902.2875
2128.96609	34980.5875
2131.94018	35010.7875
2134.91236	35024.6875
2137.88263	35030.1875
2140.851	35062.7875
2143.81746	35087.9875
2146.78201	35095.4875
2149.74466	35184.3875
2152.7054	35144.9875
2155.66425	35124.4875
2158.6212	35050.5875
2161.57625	35062.8875
2164.52941	35053.4875
2167.48067	35052.6875
2170.43004	35048.6875
2173.37752	35003.4875
2176.32311	35014.8875
2179.26681	34980.5875
2182.20863	34978.2875
2185.14856	35008.5875
2188.08661	35037.1875
2191.02278	35028.4875
2193.95707	35011.9875
2196.88948	34945.4875
2199.82001	34941.5875
2202.74867	34897.3875
2205.67545	34824.2875
2208.60037	34788.5875
2211.52341	34818.2875
2214.44458	34734.9875
2217.36388	34647.0875
2220.28132	34581.6875
2223.1969	34515.6875
2226.11061	34422.3875
2229.02246	34352.6875
2231.93245	34351.0875
2234.84058	34315.3875
2237.74686	34289.2875
2240.65128	34259.2875
2243.55385	34193.8875
2246.45456	34198.2875
2249.35343	34188.6875
2252.25044	34170.6875
2255.14561	34078.9875
2258.03893	34058.8875
2260.93041	33980.1875
2263.82004	33920.2875
2266.70783	33860.1875
2269.59378	33711.0875
2272.4779	33668.0875
2275.36017	33564.9875
2278.24061	33537.2875
2281.11922	33444.8875
2283.996	33404.4875
2286.87094	33334.8875
2289.74405	33275.9875
2292.61534	33227.4875
2295.4848	33283.2875
2298.35243	33253.2875
2301.21824	33192.0875
2304.08223	33172.0875
2306.94439	33140.6875
2309.80474	33117.0875
2312.66327	33117.1875
2315.51999	33112.8875
2318.37489	33033.6875
2321.22797	33016.3875
2324.07925	33016.1875
2326.92871	32886.6875
2329.77637	32887.5875
2332.62222	32829.0875
2335.46626	32818.0875
2338.3085	32775.2875
2341.14893	32711.3875
2343.98756	32659.8875
2346.8244	32632.8875
2349.65943	32635.4875
2352.49267	32597.7875
2355.32411	32698.2875
2358.15376	32651.9875
2360.98161	32629.6875
2363.80768	32566.1875
2366.63195	32564.8875
2369.45444	32563.7875
2372.27514	32510.8875
2375.09405	32497.4875
2377.91118	32432.7875
2380.72652	32393.4875
2383.54009	32322.7875
2386.35187	32260.8875
2389.16188	32174.7875
2391.97011	32073.8875
2394.77657	32007.4875
2397.58125	31980.8875
2400.38416	31930.0875
2403.18529	31879.3875
2405.98466	31814.1875
2408.78226	31791.8875
2411.57809	31751.7875
2414.37216	31740.8875
2417.16446	31751.0875
2419.955	31627.9875
2422.74378	31721.5875
2425.5308	31663.2875
2428.31606	31644.9875
2431.09956	31641.0875
2433.88131	31501.7875
2436.6613	31520.0875
2439.43954	31538.5875
2442.21603	31519.1875
2444.99077	31506.4875
2447.76377	31508.1875
2450.53501	31455.0875
2453.30451	31484.4875
2456.07226	31437.2875
2458.83827	31385.5875
2461.60254	31338.5875
2464.36507	31285.3875
2467.12586	31255.2875
2469.88492	31207.1875
2472.64224	31232.7875
2475.39782	31232.1875
2478.15167	31314.4875
2480.90379	31265.9875
2483.65417	31251.0875
2486.40283	31294.8875
2489.14976	31243.6875
2491.89497	31207.9875
2494.63845	31228.6875
2497.3802	31207.0875
2500.12024	31191.0875
2502.85855	31180.6875
2505.59514	31144.5875
2508.33002	31108.6875
2511.06318	31106.3875
2513.79462	30958.3875
2516.52435	30877.3875
2519.25237	30875.8875
2521.97867	30814.0875
2524.70327	30845.0875
2527.42616	30781.4875
2530.14734	30787.3875
2532.86681	30701.9875
2535.58458	30676.5875
2538.30065	30649.9875
2541.01501	30618.7875
2543.72768	30611.5875
2546.43864	30568.2875
2549.14791	30566.0875
2551.85548	30504.1875
2554.56136	30452.9875
2557.26554	30380.5875
2559.96803	30333.0875
2562.66883	30297.5875
2565.36794	30267.7875
2568.06536	30205.9875
2570.7611	30141.3875
2573.45514	30136.7875
2576.14751	30113.0875
2578.83819	30022.9875
2581.52719	30024.4875
2584.21451	29940.5875
2586.90015	29931.8875
2589.58411	29875.6875
2592.2664	29848.6875
2594.94701	29773.6875
2597.62594	29766.1875
2600.30321	29699.9875
2602.9788	29703.5875
2605.65273	29661.9875
2608.32498	29619.0875
2610.99557	29579.2875
2613.66449	29591.4875
2616.33175	29563.2875
2618.99734	29567.2875
2621.66128	29516.7875
2624.32355	29477.8875
2626.98416	29431.5875
2629.64311	29416.8875
2632.30041	29302.1875
2634.95605	29291.8875
2637.61004	29222.5875
2640.26238	29199.2875
2642.91306	29169.2875
2645.56209	29140.8875
2648.20948	29171.8875
2650.85521	29141.6875
2653.4993	29132.9875
2656.14175	29103.9875
2658.78255	29147.4875
2661.42171	29148.1875
2664.05923	29192.8875
2666.6951	29225.0875
2669.32934	29167.4875
2671.96194	29158.5875
2674.59291	29188.4875
2677.22224	29178.5875
2679.84993	29157.3875
2682.476	29139.3875
2685.10043	29158.6875
2687.72324	29146.4875
2690.34441	29162.2875
2692.96396	29131.6875
2695.58188	29134.3875
2698.19818	29109.5875
2700.81285	29121.5875
2703.4259	29080.7875
2706.03733	29124.2875
2708.64714	29126.2875
2711.25533	29165.2875
2713.86191	29174.1875
2716.46687	29202.1875
2719.07021	29200.9875
2721.67194	29188.0875
2724.27206	29122.7875
2726.87057	29157.1875
2729.46747	29220.9875
2732.06276	29245.0875
2734.65644	29209.9875
2737.24852	29191.2875
2739.83899	29120.4875
2742.42786	29149.7875
2745.01513	29069.0875
2747.60079	29007.5875
2750.18486	28925.2875
2752.76733	28961.4875
2755.3482	28911.4875
2757.92747	28896.5875
2760.50515	28830.5875
2763.08123	28785.5875
2765.65573	28774.6875
2768.22863	28785.7875
2770.79994	28763.9875
2773.36967	28721.7875
2775.9378	28683.5875
2778.50435	28698.6875
2781.06932	28608.3875
2783.6327	28626.3875
2786.1945	28576.3875
2788.75471	28552.5875
2791.31335	28467.0875
2793.87041	28440.4875
2796.42589	28440.8875
2798.97979	28376.9875
2801.53212	28309.7875
2804.08288	28308.8875
2806.63206	28217.7875
2809.17967	28129.8875
2811.72571	28052.3875
2814.27018	28042.3875
2816.81308	27958.3875
2819.35442	27909.8875
2821.89419	27832.6875
2824.43239	27793.5875
2826.96904	27750.0875
2829.50412	27731.6875
2832.03763	27672.6875
2834.56959	27624.4875
2837.1	27621.3875
2839.62884	27651.7875
2842.15613	27594.8875
2844.68186	27643.8875
2847.20604	27553.7875
2849.72867	27533.6875
2852.24974	27497.1875
2854.76927	27452.4875
2857.28724	27363.7875
2859.80367	27359.1875
2862.31855	27374.5875
2864.83189	27321.8875
2867.34368	27251.2875
2869.85393	27242.1875
2872.36264	27184.0875
2874.8698	27138.7875
2877.37543	27133.5875
2879.87952	27139.7875
2882.38207	27076.3875
2884.88308	27069.5875
2887.38256	27095.7875
2889.88051	27085.9875
2892.37692	27061.8875
2894.8718	27126.2875
2897.36515	27151.8875
2899.85698	27071.4875
2902.34727	27149.4875
2904.83604	27109.8875
2907.32328	27186.9875
2909.809	27175.7875
2912.29319	27182.7875
2914.77587	27171.2875
2917.25702	27210.9875
2919.73665	27169.9875
2922.21476	27163.5875
2924.69136	27091.0875
2927.16644	27069.6875
2929.64	27044.8875
2932.11205	27046.2875
2934.58258	26960.5875
2937.05161	26989.9875
2939.51912	26981.8875
2941.98513	26978.9875
2944.44962	26934.1875
2946.91261	26867.9875
2949.37409	26905.2875
2951.83407	26900.8875
2954.29254	26892.8875
2956.74951	26886.5875
2959.20498	26928.0875
2961.65895	26872.6875
2964.11142	26908.9875
2966.56239	26851.4875
2969.01186	26866.5875
2971.45984	26770.2875
2973.90632	26764.7875
2976.35131	26714.1875
2978.7948	26705.3875
2981.23681	26654.9875
2983.67732	26615.0875
2986.11635	26570.5875
2988.55388	26522.1875
2990.98993	26475.7875
2993.4245	26421.7875
2995.85758	26344.3875
2998.28917	26245.2875
3000.71928	26213.6875
3003.14791	26179.7875
3005.57506	26150.4875
3008.00073	26071.3875
3010.42493	26032.8875
3012.84764	25994.1875
3015.26888	25981.4875
3017.68865	25910.0875
3020.10694	25879.3875
3022.52376	25800.4875
3024.9391	25785.7875
3027.35298	25722.2875
3029.76539	25729.1875
3032.17632	25738.5875
3034.5858	25683.7875
3036.9938	25642.4875
3039.40034	25593.6875
3041.80542	25566.9875
3044.20903	25492.8875
3046.61118	25515.7875
3049.01187	25436.8875
3051.4111	25398.0875
3053.80888	25357.9875
3056.20519	25283.8875
3058.60005	25272.9875
3060.99345	25236.9875
3063.3854	25167.3875
3065.7759	25106.3875
3068.16494	25058.0875
3070.55254	24966.0875
3072.93868	24901.2875
3075.32338	24859.0875
3077.70662	24789.7875
3080.08842	24700.3875
3082.46878	24695.1875
3084.84769	24649.5875
3087.22515	24633.4875
3089.60118	24667.7875
3091.97576	24611.0875
3094.3489	24593.7875
3096.72061	24534.8875
3099.09087	24577.3875
3101.4597	24584.3875
3103.82709	24567.3875
3106.19305	24482.4875
3108.55757	24536.0875
3110.92066	24459.6875
3113.28232	24415.2875
3115.64255	24392.3875
3118.00134	24325.6875
3120.35871	24299.9875
3122.71466	24259.3875
3125.06917	24170.6875
3127.42226	24136.8875
3129.77393	24087.8875
3132.12417	24130.4875
3134.47299	24044.7875
3136.82039	23988.1875
3139.16636	23974.4875
3141.51092	23995.8875
3143.85406	23981.3875
3146.19579	23970.1875
3148.53609	23937.8875
3150.87499	23995.2875
3153.21246	23967.0875
3155.54853	23993.8875
3157.88318	23966.3875
3160.21642	24003.9875
3162.54826	23956.7875
3164.87868	23934.4875
3167.2077	23947.5875
3169.5353	23896.3875
3171.86151	23925.3875
3174.18631	23838.3875
3176.5097	23830.3875
3178.83169	23776.5875
3181.15228	23768.1875
3183.47147	23698.5875
3185.78926	23664.0875
3188.10565	23620.7875
3190.42065	23593.3875
3192.73424	23568.0875
3195.04645	23501.9875
3197.35725	23476.0875
3199.66667	23437.6875
3201.97469	23458.2875
3204.28132	23460.6875
3206.58656	23474.0875
3208.8904	23460.4875
3211.19287	23440.7875
3213.49394	23430.0875
3215.79363	23438.8875
3218.09193	23420.5875
3220.38884	23397.1875
3222.68438	23433.1875
3224.97853	23457.1875
3227.2713	23433.2875
3229.56269	23406.2875
3231.8527	23420.6875
3234.14133	23361.7875
3236.42858	23269.7875
3238.71446	23247.2875
3240.99896	23170.9875
3243.28209	23159.6875
3245.56384	23105.4875
3247.84423	23121.7875
3250.12324	23070.0875
3252.40088	23057.1875
3254.67715	22987.8875
3256.95205	22926.5875
3259.22558	22955.0875
3261.49775	22981.5875
3263.76855	22958.4875
3266.03799	22938.1875
3268.30606	22910.8875
3270.57277	22868.2875
3272.83812	22852.1875
3275.10211	22790.4875
3277.36474	22715.1875
3279.62601	22698.7875
3281.88593	22603.9875
3284.14448	22651.6875
3286.40168	22645.0875
3288.65753	22673.1875
3290.91202	22618.8875
3293.16516	22576.8875
3295.41695	22558.7875
3297.66738	22382.6875
3299.91647	22272.1875
3302.16421	22171.2875
3304.4106	22036.3875
3306.65564	21863.6875
3308.89933	21740.0875
3311.14169	21566.8875
3313.38269	21415.6875
3315.62236	21309.4875
3317.86068	21118.5875
3320.09766	20979.9875
3322.3333	20826.6875
3324.5676	20766.0875
3326.80056	20461.7875
3329.03219	20367.6875
3331.26248	4.0875
3333.49143	0.2875
3335.71905	0.2875
