Data from AgNPs_UA_0uM_CRN_0uM_R6G_10uM_Q_RamanShift__5__11-24-18-751.txt Node

Date: Wed Jul 13 11:24:18 BST 2022
User: TCL
Spectrometer: QEP01345
Trigger mode: 4
Integration Time (sec): 7.000000E0
Scans to average: 10
Electric dark correction enabled: true
Nonlinearity correction enabled: false
Boxcar width: 0
XAxis mode: Raman Shifts
Number of Pixels in Spectrum: 1044
>>>>>Begin Spectral Data<<<<<
46.04893	-0.7125
50.45542	0.5875
54.85868	-1.2125
59.25871	0.1875
63.6555	52.0875
68.04907	55.0875
72.43941	57.8875
76.82654	62.2875
81.21044	65.7875
85.59113	68.2875
89.96862	71.9875
94.34289	75.3875
98.71396	76.5875
103.08183	79.0875
107.4465	81.0875
111.80798	81.2875
116.16626	84.6875
120.52136	85.1875
124.87327	86.2875
129.222	88.8875
133.56755	86.1875
137.90993	100.6875
142.24913	100.5875
146.58517	110.7875
150.91804	121.1875
155.24774	135.4875
159.57429	167.2875
163.89768	206.8875
168.21792	270.6875
172.53501	361.2875
176.84895	500.1875
181.15975	684.9875
185.46741	962.7875
189.77193	1325.2875
194.07331	1780.0875
198.37157	2297.1875
202.6667	2852.5875
206.9587	3404.0875
211.24758	3996.7875
215.53334	4590.5875
219.81599	5266.1875
224.09553	5988.6875
228.37195	6768.4875
232.64527	7551.8875
236.91549	8225.3875
241.18261	8778.8875
245.44663	9198.2875
249.70755	9507.2875
253.96539	9819.0875
258.22014	10122.5875
262.4718	10423.8875
266.72039	10567.3875
270.96589	10570.6875
275.20832	10403.2875
279.44768	10140.9875
283.68397	9841.1875
287.91719	9657.5875
292.14735	9693.1875
296.37445	10048.2875
300.59849	10665.5875
304.81948	11523.7875
309.03742	12317.4875
313.25231	12720.1875
317.46415	12281.0875
321.67296	11202.8875
325.87872	10087.2875
330.08145	9476.9875
334.28114	9391.6875
338.47781	9624.2875
342.67145	10025.6875
346.86207	10692.5875
351.04966	11613.7875
355.23424	12528.7875
359.4158	12978.2875
363.59435	12813.7875
367.76989	12486.6875
371.94243	12135.1875
376.11196	11857.3875
380.27849	11604.6875
384.44203	11354.8875
388.60257	11198.0875
392.76012	11201.5875
396.91468	11409.8875
401.06626	11742.9875
405.21485	11826.6875
409.36047	11354.9875
413.50311	10461.3875
417.64277	9715.2875
421.77947	9249.7875
425.9132	9030.9875
430.04396	8921.2875
434.17176	8918.0875
438.2966	9057.6875
442.41849	9278.6875
446.53742	9544.8875
450.6534	9772.5875
454.76644	9822.4875
458.87653	9782.4875
462.98368	9682.4875
467.08789	9561.4875
471.18916	9314.4875
475.2875	8965.1875
479.38291	8715.5875
483.4754	8528.1875
487.56496	8411.8875
491.6516	8339.1875
495.73531	8361.3875
499.81612	8442.4875
503.89401	8620.9875
507.96899	8819.0875
512.04106	9079.4875
516.11023	9314.2875
520.1765	9502.5875
524.23987	9564.1875
528.30034	9461.5875
532.35792	9354.7875
536.41261	9165.2875
540.46441	8893.3875
544.51333	8743.4875
548.55936	8770.2875
552.60252	8973.3875
556.64279	9274.5875
560.6802	9557.9875
564.71473	10071.0875
568.7464	10802.2875
572.7752	10834.5875
576.80114	9916.2875
580.82422	9125.2875
584.84444	8828.9875
588.86181	8813.0875
592.87633	8959.2875
596.888	9193.0875
600.89682	9840.9875
604.9028	12013.2875
608.90594	17713.5875
612.90624	24353.8875
616.90371	22113.5875
620.89834	13659.3875
624.89015	9942.6875
628.87913	9421.5875
632.86528	9786.0875
636.84862	10025.2875
640.82913	9537.8875
644.80683	8702.4875
648.78172	8304.1875
652.75379	8416.8875
656.72306	9079.0875
660.68952	9724.8875
664.65319	9446.1875
668.61405	8689.0875
672.57211	8385.8875
676.52738	8422.7875
680.47986	8325.3875
684.42955	8170.6875
688.37646	8101.4875
692.32058	8120.3875
696.26192	8287.5875
700.20048	8433.1875
704.13626	8495.3875
708.06928	8396.8875
711.99952	8279.1875
715.927	8294.4875
719.85171	8420.7875
723.77365	8492.7875
727.69284	8405.3875
731.60928	8304.8875
735.52295	8304.6875
739.43388	8394.3875
743.34206	8431.1875
747.24749	8388.8875
751.15017	8376.8875
755.05012	8601.0875
758.94733	9460.9875
762.8418	11606.8875
766.73354	14723.9875
770.62254	17083.1875
774.50882	17446.0875
778.39237	16056.6875
782.27321	13729.8875
786.15132	11182.8875
790.02671	9520.3875
793.89938	8759.8875
797.76935	8433.1875
801.6366	8275.9875
805.50115	8174.8875
809.36299	8114.1875
813.22213	8066.0875
817.07857	8062.5875
820.93231	8103.3875
824.78336	8135.5875
828.63172	8235.0875
832.47738	8228.4875
836.32036	8145.2875
840.16066	8028.4875
843.99827	7943.2875
847.8332	7931.9875
851.66546	7947.8875
855.49504	7944.0875
859.32195	7923.7875
863.1462	7899.1875
866.96777	7872.1875
870.78668	7893.1875
874.60293	7943.7875
878.41652	8019.1875
882.22745	8134.6875
886.03573	8207.3875
889.84136	8223.1875
893.64433	8165.1875
897.44466	8162.9875
901.24235	8197.6875
905.0374	8141.9875
908.8298	8092.1875
912.61957	8033.1875
916.40671	8053.7875
920.19121	8094.1875
923.97308	8253.4875
927.75233	8541.9875
931.52895	8824.8875
935.30295	8665.2875
939.07433	8200.5875
942.84309	7828.4875
946.60924	7632.2875
950.37278	7560.1875
954.13371	7497.6875
957.89203	7461.7875
961.64774	7417.9875
965.40086	7382.2875
969.15137	7362.1875
972.89929	7309.1875
976.64461	7324.0875
980.38733	7292.3875
984.12747	7281.3875
987.86502	7317.7875
991.59999	7345.3875
995.33237	7405.9875
999.06217	7535.5875
1002.78939	7713.1875
1006.51404	7994.6875
1010.23611	8219.3875
1013.95561	8223.5875
1017.67255	8125.2875
1021.38692	8005.9875
1025.09872	7793.4875
1028.80796	7688.4875
1032.51465	7672.6875
1036.21877	7719.2875
1039.92035	7766.4875
1043.61937	7811.1875
1047.31584	7870.1875
1051.00976	7905.5875
1054.70114	7893.5875
1058.38998	7863.7875
1062.07627	7887.6875
1065.76003	7905.5875
1069.44126	7946.6875
1073.11995	8101.0875
1076.79611	8350.8875
1080.46974	8728.9875
1084.14085	9237.1875
1087.80943	9750.5875
1091.47549	9836.4875
1095.13903	9434.9875
1098.80005	8992.6875
1102.45857	8763.3875
1106.11456	8731.4875
1109.76805	8727.7875
1113.41903	8955.2875
1117.06751	9454.9875
1120.71348	10069.0875
1124.35696	10975.9875
1127.99793	11730.0875
1131.63641	11414.2875
1135.2724	10320.3875
1138.90589	9448.5875
1142.5369	8907.8875
1146.16542	8599.3875
1149.79145	8369.5875
1153.415	8274.7875
1157.03607	8301.0875
1160.65467	8492.6875
1164.27079	8865.8875
1167.88443	9529.4875
1171.49561	10542.0875
1175.10432	12337.7875
1178.71056	14785.8875
1182.31434	16629.0875
1185.91565	16696.7875
1189.51451	15631.4875
1193.11091	14210.2875
1196.70485	12978.8875
1200.29634	12136.8875
1203.88538	11390.4875
1207.47197	10459.1875
1211.05612	9586.6875
1214.63782	9000.8875
1218.21708	8668.4875
1221.79391	8549.4875
1225.36829	8544.8875
1228.94024	8519.1875
1232.50976	8501.6875
1236.07685	8512.6875
1239.6415	8554.7875
1243.20374	8619.3875
1246.76355	8738.4875
1250.32093	8870.9875
1253.8759	9119.2875
1257.42845	9538.7875
1260.97859	10117.3875
1264.52631	10769.2875
1268.07163	11239.6875
1271.61453	11521.8875
1275.15503	11507.0875
1278.69312	11282.5875
1282.22882	11240.1875
1285.76211	11648.4875
1289.29301	12405.1875
1292.82151	13073.1875
1296.34761	13638.1875
1299.87133	14567.0875
1303.39266	16365.1875
1306.9116	19512.9875
1310.42815	23271.2875
1313.94233	25139.8875
1317.45412	23369.1875
1320.96354	19864.5875
1324.47058	16629.8875
1327.97525	14210.0875
1331.47754	12737.9875
1334.97747	12032.4875
1338.47502	12063.4875
1341.97022	12832.7875
1345.46305	14484.5875
1348.95352	16932.2875
1352.44163	19454.5875
1355.92738	22508.6875
1359.41078	27483.9875
1362.89183	32713.9875
1366.37053	31818.1875
1369.84688	24683.0875
1373.32088	17852.3875
1376.79254	14232.8875
1380.26186	12608.1875
1383.72883	11611.6875
1387.19347	10726.2875
1390.65578	10000.3875
1394.11575	9486.7875
1397.57339	9195.5875
1401.0287	9051.7875
1404.48168	8921.5875
1407.93234	8848.8875
1411.38068	8898.1875
1414.82669	9110.0875
1418.27039	9353.2875
1421.71177	9452.0875
1425.15083	9349.1875
1428.58758	9239.4875
1432.02203	9440.8875
1435.45416	9726.7875
1438.88399	9755.2875
1442.31151	9572.7875
1445.73673	9490.2875
1449.15965	9454.9875
1452.58027	9351.5875
1455.9986	9180.8875
1459.41463	9077.2875
1462.82837	9147.9875
1466.23982	9354.5875
1469.64898	9627.4875
1473.05586	9822.4875
1476.46045	9908.1875
1479.86276	10029.7875
1483.26279	10323.8875
1486.66054	10811.0875
1490.05602	11600.8875
1493.44922	12775.5875
1496.84016	14623.9875
1500.22882	17559.9875
1503.61521	21672.0875
1506.99934	26745.0875
1510.38121	31350.1875
1513.76081	32986.5875
1517.13816	30126.7875
1520.51324	24378.6875
1523.88607	18925.6875
1527.25665	15245.6875
1530.62498	13096.3875
1533.99105	11848.4875
1537.35488	10962.5875
1540.71647	10404.1875
1544.07581	10072.4875
1547.4329	9985.5875
1550.78776	10004.4875
1554.14038	10210.5875
1557.49077	10580.5875
1560.83892	11175.6875
1564.18484	12092.3875
1567.52853	13189.1875
1570.86999	14026.7875
1574.20922	14400.5875
1577.54624	14162.6875
1580.88103	12815.5875
1584.2136	11084.6875
1587.54395	9934.6875
1590.87208	9639.6875
1594.19801	10114.2875
1597.52172	10860.4875
1600.84321	11074.8875
1604.16251	10500.2875
1607.47959	9805.2875
1610.79447	9229.1875
1614.10715	8609.3875
1617.41763	8070.5875
1620.7259	7689.5875
1624.03199	7562.5875
1627.33587	7654.6875
1630.63757	7923.7875
1633.93707	8476.6875
1637.23439	9498.9875
1640.52951	11290.7875
1643.82246	14147.2875
1647.11321	17745.4875
1650.40179	20653.0875
1653.68819	20324.5875
1656.97241	16843.5875
1660.25446	12756.0875
1663.53433	9896.4875
1666.81203	8228.6875
1670.08756	7337.6875
1673.36092	6809.1875
1676.63211	6499.4875
1679.90115	6280.4875
1683.16801	6126.0875
1686.43272	6047.6875
1689.69527	5966.8875
1692.95567	5897.8875
1696.2139	5846.3875
1699.46999	5812.4875
1702.72392	5777.5875
1705.97571	5769.8875
1709.22535	5770.8875
1712.47284	5801.7875
1715.71819	5803.5875
1718.96139	5809.4875
1722.20246	5778.7875
1725.44139	5732.8875
1728.67818	5676.8875
1731.91284	5604.1875
1735.14537	5574.5875
1738.37576	5531.7875
1741.60403	5483.2875
1744.83017	5465.6875
1748.05418	5451.1875
1751.27607	5436.6875
1754.49584	5397.5875
1757.71349	5385.0875
1760.92903	5366.4875
1764.14244	5340.9875
1767.35375	5350.1875
1770.56294	5319.2875
1773.77002	5285.8875
1776.97499	5276.0875
1780.17785	5261.3875
1783.37861	5216.7875
1786.57727	5204.6875
1789.77382	5185.5875
1792.96828	5192.7875
1796.16064	5168.7875
1799.3509	5155.9875
1802.53907	5134.5875
1805.72514	5099.9875
1808.90913	5071.3875
1812.09102	5025.0875
1815.27083	5006.7875
1818.44856	4974.6875
1821.6242	4935.0875
1824.79776	4916.2875
1827.96924	4900.9875
1831.13864	4883.8875
1834.30597	4846.3875
1837.47122	4817.4875
1840.6344	4794.9875
1843.7955	4787.8875
1846.95454	4765.3875
1850.11151	4740.5875
1853.26642	4729.8875
1856.41926	4714.5875
1859.57004	4709.3875
1862.71876	4712.4875
1865.86542	4705.9875
1869.01003	4709.9875
1872.15258	4704.4875
1875.29308	4699.7875
1878.43152	4671.1875
1881.56792	4653.1875
1884.70227	4656.6875
1887.83457	4634.5875
1890.96482	4618.8875
1894.09304	4602.4875
1897.21921	4631.9875
1900.34335	4597.3875
1903.46544	4589.0875
1906.58551	4591.9875
1909.70353	4559.0875
1912.81953	4560.6875
1915.93349	4548.6875
1919.04543	4545.1875
1922.15534	4517.9875
1925.26322	4502.3875
1928.36908	4494.7875
1931.47292	4460.1875
1934.57473	4446.1875
1937.67453	4413.7875
1940.77232	4386.3875
1943.86808	4356.9875
1946.96184	4347.4875
1950.05358	4332.5875
1953.14331	4317.8875
1956.23103	4323.3875
1959.31675	4291.4875
1962.40046	4299.8875
1965.48217	4285.4875
1968.56188	4297.9875
1971.63959	4268.3875
1974.7153	4270.6875
1977.78901	4253.2875
1980.86073	4223.2875
1983.93046	4209.9875
1986.99819	4163.5875
1990.06394	4143.1875
1993.1277	4126.4875
1996.18947	4093.5875
1999.24925	4085.5875
2002.30706	4056.5875
2005.36288	4020.7875
2008.41672	4021.3875
2011.46859	4018.7875
2014.51848	3992.0875
2017.56639	3966.8875
2020.61233	3972.1875
2023.6563	3941.8875
2026.6983	3921.5875
2029.73833	3919.5875
2032.7764	3894.7875
2035.8125	3892.0875
2038.84664	3876.8875
2041.87881	3882.6875
2044.90903	3874.2875
2047.93729	3868.8875
2050.96359	3854.2875
2053.98794	3841.2875
2057.01034	3830.1875
2060.03078	3829.8875
2063.04927	3802.9875
2066.06582	3802.8875
2069.08042	3794.9875
2072.09307	3792.5875
2075.10378	3787.5875
2078.11255	3774.3875
2081.11938	3788.7875
2084.12426	3772.9875
2087.12722	3784.0875
2090.12824	3804.3875
2093.12732	3780.8875
2096.12447	3790.4875
2099.11969	3792.8875
2102.11299	3787.7875
2105.10435	3804.2875
2108.09379	3797.0875
2111.08131	3803.0875
2114.0669	3796.0875
2117.05057	3810.6875
2120.03233	3811.1875
2123.01216	3828.2875
2125.99008	3826.9875
2128.96609	3821.7875
2131.94018	3802.5875
2134.91236	3808.8875
2137.88263	3787.2875
2140.851	3782.9875
2143.81746	3767.4875
2146.78201	3741.8875
2149.74466	3730.9875
2152.7054	3725.9875
2155.66425	3711.7875
2158.6212	3705.0875
2161.57625	3691.1875
2164.52941	3679.1875
2167.48067	3681.3875
2170.43004	3675.8875
2173.37752	3677.9875
2176.32311	3680.4875
2179.26681	3669.1875
2182.20863	3664.4875
2185.14856	3674.4875
2188.08661	3658.3875
2191.02278	3647.1875
2193.95707	3642.0875
2196.88948	3649.5875
2199.82001	3622.1875
2202.74867	3617.4875
2205.67545	3608.5875
2208.60037	3612.8875
2211.52341	3584.1875
2214.44458	3577.7875
2217.36388	3562.5875
2220.28132	3559.8875
2223.1969	3534.9875
2226.11061	3530.0875
2229.02246	3515.3875
2231.93245	3511.5875
2234.84058	3495.3875
2237.74686	3485.0875
2240.65128	3484.9875
2243.55385	3491.7875
2246.45456	3476.2875
2249.35343	3487.7875
2252.25044	3491.6875
2255.14561	3492.3875
2258.03893	3507.2875
2260.93041	3513.0875
2263.82004	3500.3875
2266.70783	3504.8875
2269.59378	3497.5875
2272.4779	3473.6875
2275.36017	3472.6875
2278.24061	3454.7875
2281.11922	3438.6875
2283.996	3435.6875
2286.87094	3424.7875
2289.74405	3396.8875
2292.61534	3375.6875
2295.4848	3374.8875
2298.35243	3368.1875
2301.21824	3345.5875
2304.08223	3346.9875
2306.94439	3331.9875
2309.80474	3345.3875
2312.66327	3349.7875
2315.51999	3348.7875
2318.37489	3334.0875
2321.22797	3313.8875
2324.07925	3320.9875
2326.92871	3299.9875
2329.77637	3298.7875
2332.62222	3278.1875
2335.46626	3281.2875
2338.3085	3277.9875
2341.14893	3263.1875
2343.98756	3266.8875
2346.8244	3270.3875
2349.65943	3275.6875
2352.49267	3289.7875
2355.32411	3291.4875
2358.15376	3302.9875
2360.98161	3304.8875
2363.80768	3316.1875
2366.63195	3316.9875
2369.45444	3339.6875
2372.27514	3319.7875
2375.09405	3323.4875
2377.91118	3289.0875
2380.72652	3293.6875
2383.54009	3273.2875
2386.35187	3251.0875
2389.16188	3221.1875
2391.97011	3222.9875
2394.77657	3182.2875
2397.58125	3175.0875
2400.38416	3166.1875
2403.18529	3145.3875
2405.98466	3147.2875
2408.78226	3129.3875
2411.57809	3139.5875
2414.37216	3116.7875
2417.16446	3115.0875
2419.955	3114.0875
2422.74378	3112.2875
2425.5308	3123.9875
2428.31606	3110.6875
2431.09956	3112.1875
2433.88131	3111.9875
2436.6613	3106.0875
2439.43954	3121.8875
2442.21603	3109.7875
2444.99077	3120.5875
2447.76377	3121.9875
2450.53501	3132.7875
2453.30451	3124.6875
2456.07226	3125.0875
2458.83827	3133.8875
2461.60254	3104.1875
2464.36507	3121.3875
2467.12586	3100.2875
2469.88492	3107.1875
2472.64224	3099.7875
2475.39782	3114.2875
2478.15167	3105.1875
2480.90379	3120.2875
2483.65417	3124.1875
2486.40283	3117.3875
2489.14976	3139.6875
2491.89497	3130.7875
2494.63845	3137.0875
2497.3802	3135.3875
2500.12024	3126.2875
2502.85855	3123.6875
2505.59514	3097.8875
2508.33002	3075.7875
2511.06318	3060.3875
2513.79462	3017.3875
2516.52435	2997.8875
2519.25237	2995.0875
2521.97867	2967.7875
2524.70327	2960.4875
2527.42616	2938.5875
2530.14734	2941.1875
2532.86681	2937.3875
2535.58458	2934.9875
2538.30065	2923.2875
2541.01501	2934.2875
2543.72768	2927.4875
2546.43864	2919.0875
2549.14791	2928.3875
2551.85548	2923.9875
2554.56136	2927.5875
2557.26554	2939.6875
2559.96803	2927.2875
2562.66883	2909.3875
2565.36794	2914.9875
2568.06536	2914.0875
2570.7611	2895.6875
2573.45514	2892.6875
2576.14751	2878.8875
2578.83819	2874.8875
2581.52719	2868.9875
2584.21451	2847.6875
2586.90015	2851.6875
2589.58411	2835.6875
2592.2664	2830.9875
2594.94701	2822.1875
2597.62594	2823.9875
2600.30321	2810.4875
2602.9788	2805.8875
2605.65273	2793.6875
2608.32498	2821.2875
2610.99557	2800.2875
2613.66449	2802.0875
2616.33175	2810.1875
2618.99734	2790.3875
2621.66128	2796.3875
2624.32355	2785.3875
2626.98416	2785.3875
2629.64311	2781.4875
2632.30041	2768.4875
2634.95605	2751.8875
2637.61004	2729.0875
2640.26238	2729.0875
2642.91306	2707.5875
2645.56209	2709.1875
2648.20948	2694.9875
2650.85521	2697.0875
2653.4993	2700.5875
2656.14175	2704.9875
2658.78255	2720.2875
2661.42171	2713.3875
2664.05923	2725.1875
2666.6951	2724.3875
2669.32934	2719.6875
2671.96194	2719.3875
2674.59291	2740.2875
2677.22224	2726.7875
2679.84993	2729.1875
2682.476	2728.6875
2685.10043	2715.6875
2687.72324	2702.1875
2690.34441	2703.9875
2692.96396	2710.1875
2695.58188	2703.5875
2698.19818	2686.7875
2700.81285	2695.7875
2703.4259	2683.8875
2706.03733	2667.0875
2708.64714	2685.3875
2711.25533	2697.8875
2713.86191	2695.0875
2716.46687	2698.8875
2719.07021	2701.5875
2721.67194	2707.2875
2724.27206	2693.5875
2726.87057	2688.9875
2729.46747	2695.2875
2732.06276	2683.1875
2734.65644	2679.7875
2737.24852	2674.3875
2739.83899	2665.8875
2742.42786	2647.8875
2745.01513	2649.5875
2747.60079	2630.5875
2750.18486	2633.7875
2752.76733	2620.8875
2755.3482	2610.1875
2757.92747	2613.2875
2760.50515	2592.3875
2763.08123	2592.8875
2765.65573	2583.9875
2768.22863	2586.8875
2770.79994	2560.8875
2773.36967	2573.7875
2775.9378	2562.1875
2778.50435	2562.8875
2781.06932	2566.7875
2783.6327	2556.4875
2786.1945	2566.0875
2788.75471	2541.7875
2791.31335	2548.2875
2793.87041	2544.3875
2796.42589	2547.5875
2798.97979	2538.1875
2801.53212	2535.0875
2804.08288	2533.2875
2806.63206	2530.3875
2809.17967	2538.7875
2811.72571	2537.2875
2814.27018	2550.6875
2816.81308	2548.3875
2819.35442	2544.3875
2821.89419	2536.9875
2824.43239	2546.4875
2826.96904	2552.6875
2829.50412	2541.3875
2832.03763	2538.8875
2834.56959	2531.5875
2837.1	2530.1875
2839.62884	2522.5875
2842.15613	2530.5875
2844.68186	2537.4875
2847.20604	2532.0875
2849.72867	2528.4875
2852.24974	2526.3875
2854.76927	2528.2875
2857.28724	2538.2875
2859.80367	2552.8875
2862.31855	2540.1875
2864.83189	2552.0875
2867.34368	2563.8875
2869.85393	2558.2875
2872.36264	2565.4875
2874.8698	2566.3875
2877.37543	2559.5875
2879.87952	2566.7875
2882.38207	2550.4875
2884.88308	2539.5875
2887.38256	2525.0875
2889.88051	2523.0875
2892.37692	2512.6875
2894.8718	2534.1875
2897.36515	2516.3875
2899.85698	2524.3875
2902.34727	2523.9875
2904.83604	2543.8875
2907.32328	2552.5875
2909.809	2555.7875
2912.29319	2561.4875
2914.77587	2578.3875
2917.25702	2572.5875
2919.73665	2581.0875
2922.21476	2572.0875
2924.69136	2551.3875
2927.16644	2531.3875
2929.64	2518.7875
2932.11205	2507.4875
2934.58258	2491.5875
2937.05161	2487.6875
2939.51912	2495.2875
2941.98513	2484.8875
2944.44962	2472.9875
2946.91261	2464.1875
2949.37409	2467.5875
2951.83407	2464.5875
2954.29254	2454.5875
2956.74951	2461.0875
2959.20498	2452.8875
2961.65895	2446.9875
2964.11142	2443.2875
2966.56239	2436.5875
2969.01186	2428.7875
2971.45984	2414.1875
2973.90632	2412.8875
2976.35131	2422.3875
2978.7948	2414.3875
2981.23681	2411.8875
2983.67732	2413.4875
2986.11635	2391.8875
2988.55388	2384.4875
2990.98993	2394.6875
2993.4245	2374.3875
2995.85758	2376.7875
2998.28917	2389.2875
3000.71928	2381.3875
3003.14791	2368.5875
3005.57506	2383.8875
3008.00073	2364.2875
3010.42493	2356.4875
3012.84764	2355.1875
3015.26888	2360.3875
3017.68865	2350.7875
3020.10694	2337.6875
3022.52376	2323.8875
3024.9391	2334.5875
3027.35298	2330.8875
3029.76539	2324.4875
3032.17632	2325.6875
3034.5858	2314.9875
3036.9938	2300.3875
3039.40034	2284.9875
3041.80542	2272.7875
3044.20903	2273.8875
3046.61118	2266.9875
3049.01187	2258.1875
3051.4111	2250.7875
3053.80888	2256.9875
3056.20519	2245.3875
3058.60005	2237.6875
3060.99345	2255.0875
3063.3854	2239.2875
3065.7759	2244.5875
3068.16494	2236.2875
3070.55254	2225.3875
3072.93868	2226.3875
3075.32338	2215.0875
3077.70662	2220.8875
3080.08842	2217.5875
3082.46878	2213.5875
3084.84769	2193.0875
3087.22515	2208.5875
3089.60118	2204.0875
3091.97576	2200.6875
3094.3489	2215.3875
3096.72061	2205.9875
3099.09087	2202.3875
3101.4597	2209.4875
3103.82709	2202.9875
3106.19305	2201.7875
3108.55757	2210.1875
3110.92066	2203.0875
3113.28232	2205.5875
3115.64255	2198.8875
3118.00134	2202.1875
3120.35871	2204.5875
3122.71466	2212.3875
3125.06917	2201.0875
3127.42226	2202.8875
3129.77393	2206.1875
3132.12417	2202.2875
3134.47299	2204.4875
3136.82039	2218.5875
3139.16636	2211.9875
3141.51092	2224.7875
3143.85406	2219.7875
3146.19579	2228.6875
3148.53609	2233.8875
3150.87499	2248.5875
3153.21246	2231.7875
3155.54853	2247.3875
3157.88318	2260.1875
3160.21642	2252.5875
3162.54826	2254.0875
3164.87868	2255.4875
3167.2077	2267.8875
3169.5353	2267.6875
3171.86151	2271.9875
3174.18631	2262.4875
3176.5097	2253.3875
3178.83169	2268.2875
3181.15228	2263.5875
3183.47147	2262.9875
3185.78926	2259.7875
3188.10565	2248.6875
3190.42065	2250.9875
3192.73424	2252.1875
3195.04645	2255.5875
3197.35725	2258.9875
3199.66667	2258.3875
3201.97469	2256.6875
3204.28132	2261.7875
3206.58656	2260.2875
3208.8904	2275.1875
3211.19287	2270.9875
3213.49394	2283.3875
3215.79363	2279.2875
3218.09193	2290.2875
3220.38884	2284.7875
3222.68438	2300.6875
3224.97853	2294.5875
3227.2713	2286.5875
3229.56269	2294.3875
3231.8527	2287.7875
3234.14133	2285.0875
3236.42858	2281.4875
3238.71446	2285.4875
3240.99896	2277.9875
3243.28209	2273.4875
3245.56384	2267.3875
3247.84423	2269.0875
3250.12324	2259.7875
3252.40088	2254.9875
3254.67715	2269.7875
3256.95205	2267.8875
3259.22558	2265.7875
3261.49775	2254.2875
3263.76855	2262.1875
3266.03799	2245.5875
3268.30606	2254.3875
3270.57277	2257.8875
3272.83812	2251.8875
3275.10211	2241.1875
3277.36474	2241.1875
3279.62601	2230.6875
3281.88593	2227.9875
3284.14448	2240.0875
3286.40168	2242.9875
3288.65753	2248.4875
3290.91202	2244.5875
3293.16516	2241.4875
3295.41695	2240.1875
3297.66738	2248.7875
3299.91647	2225.1875
3302.16421	2218.6875
3304.4106	2201.0875
3306.65564	2198.8875
3308.89933	2182.8875
3311.14169	2157.9875
3313.38269	2134.5875
3315.62236	2134.4875
3317.86068	2121.1875
3320.09766	2101.8875
3322.3333	2093.5875
3324.5676	2095.2875
3326.80056	2047.8875
3329.03219	2044.4875
3331.26248	-0.9125
3333.49143	1.6875
3335.71905	1.3875
