Data from AgNPs_UA_1uM_CRN_0uM_R6G_10uM_Q_RamanShift__24__12-38-45-893.txt Node

Date: Wed Jul 13 12:38:45 BST 2022
User: TCL
Spectrometer: QEP01345
Trigger mode: 4
Integration Time (sec): 7.000000E0
Scans to average: 10
Electric dark correction enabled: true
Nonlinearity correction enabled: false
Boxcar width: 0
XAxis mode: Raman Shifts
Number of Pixels in Spectrum: 1044
>>>>>Begin Spectral Data<<<<<
46.04893	-1.0125
50.45542	-0.9125
54.85868	-2.6125
59.25871	0.7875
63.6555	85.8875
68.04907	88.1875
72.43941	89.7875
76.82654	96.4875
81.21044	101.3875
85.59113	104.1875
89.96862	104.8875
94.34289	109.2875
98.71396	114.3875
103.08183	113.5875
107.4465	121.9875
111.80798	119.7875
116.16626	126.5875
120.52136	132.3875
124.87327	131.1875
129.222	144.9875
133.56755	148.8875
137.90993	157.9875
142.24913	172.9875
146.58517	196.5875
150.91804	223.6875
155.24774	262.4875
159.57429	320.5875
163.89768	409.2875
168.21792	537.7875
172.53501	729.6875
176.84895	1011.0875
181.15975	1404.7875
185.46741	1978.4875
189.77193	2717.0875
194.07331	3611.8875
198.37157	4622.6875
202.6667	5684.8875
206.9587	6732.0875
211.24758	7766.7875
215.53334	8826.5875
219.81599	10003.2875
224.09553	11292.1875
228.37195	12709.4875
232.64527	14224.7875
236.91549	15808.9875
241.18261	17368.3875
245.44663	18758.4875
249.70755	19967.6875
253.96539	21062.9875
258.22014	21994.0875
262.4718	22782.1875
266.72039	23267.1875
270.96589	23474.5875
275.20832	23451.1875
279.44768	23258.5875
283.68397	23078.5875
287.91719	22900.2875
292.14735	22817.2875
296.37445	22820.6875
300.59849	23028.4875
304.81948	23286.4875
309.03742	23492.3875
313.25231	23313.3875
317.46415	22832.3875
321.67296	22222.9875
325.87872	21739.4875
330.08145	21566.7875
334.28114	21673.3875
338.47781	21951.6875
342.67145	22315.6875
346.86207	22804.0875
351.04966	23435.1875
355.23424	24117.2875
359.4158	24612.6875
363.59435	24963.3875
367.76989	25149.1875
371.94243	25245.1875
376.11196	25392.7875
380.27849	25462.2875
384.44203	25576.2875
388.60257	25641.2875
392.76012	25802.5875
396.91468	26086.5875
401.06626	26616.6875
405.21485	26941.7875
409.36047	26786.8875
413.50311	26511.3875
417.64277	26458.0875
421.77947	26437.2875
425.9132	26236.8875
430.04396	26402.6875
434.17176	26617.9875
438.2966	27048.4875
442.41849	27804.7875
446.53742	28828.4875
450.6534	29799.0875
454.76644	30427.1875
458.87653	30427.5875
462.98368	29955.7875
467.08789	29312.0875
471.18916	28521.3875
475.2875	27943.4875
479.38291	27528.0875
483.4754	27232.1875
487.56496	26926.7875
491.6516	26623.1875
495.73531	26370.8875
499.81612	26283.7875
503.89401	26400.6875
507.96899	26489.2875
512.04106	26546.4875
516.11023	26516.3875
520.1765	26493.0875
524.23987	26473.6875
528.30034	26401.8875
532.35792	26156.6875
536.41261	25785.8875
540.46441	25446.9875
544.51333	25405.3875
548.55936	25668.8875
552.60252	26172.1875
556.64279	26788.6875
560.6802	27188.3875
564.71473	27433.7875
568.7464	28018.6875
572.7752	28552.7875
576.80114	28810.0875
580.82422	29165.6875
584.84444	29803.6875
588.86181	30827.6875
592.87633	32052.1875
596.888	32812.0875
600.89682	32815.5875
604.9028	33782.6875
608.90594	36978.8875
612.90624	39628.8875
616.90371	36229.3875
620.89834	30433.9875
624.89015	28527.0875
628.87913	28430.2875
632.86528	28098.9875
636.84862	27543.6875
640.82913	26838.8875
644.80683	26088.8875
648.78172	25671.4875
652.75379	25718.2875
656.72306	26186.9875
660.68952	26647.0875
664.65319	26445.4875
668.61405	26047.1875
672.57211	25825.7875
676.52738	25808.7875
680.47986	25676.6875
684.42955	25576.1875
688.37646	25567.8875
692.32058	25781.1875
696.26192	26066.6875
700.20048	26419.6875
704.13626	26549.9875
708.06928	26413.3875
711.99952	26143.1875
715.927	26131.8875
719.85171	26134.4875
723.77365	26056.6875
727.69284	25765.6875
731.60928	25666.0875
735.52295	25713.4875
739.43388	25859.7875
743.34206	26027.9875
747.24749	26175.5875
751.15017	26429.4875
755.05012	26904.6875
758.94733	27744.3875
762.8418	29406.1875
766.73354	31924.0875
770.62254	33946.2875
774.50882	34156.8875
778.39237	32446.0875
782.27321	30007.7875
786.15132	28020.9875
790.02671	26849.6875
793.89938	26348.9875
797.76935	26195.2875
801.6366	26152.7875
805.50115	26035.0875
809.36299	25881.5875
813.22213	25727.8875
817.07857	25647.1875
820.93231	25614.4875
824.78336	25656.1875
828.63172	25702.7875
832.47738	25787.6875
836.32036	25887.4875
840.16066	26132.2875
843.99827	26293.6875
847.8332	26127.1875
851.66546	25913.3875
855.49504	25900.3875
859.32195	25853.6875
863.1462	25696.0875
866.96777	25516.6875
870.78668	25447.1875
874.60293	25466.2875
878.41652	25518.6875
882.22745	25693.7875
886.03573	25768.8875
889.84136	25682.4875
893.64433	25560.9875
897.44466	25486.5875
901.24235	25413.6875
905.0374	25350.2875
908.8298	25283.5875
912.61957	25360.2875
916.40671	25652.0875
920.19121	26014.5875
923.97308	26504.0875
927.75233	26787.9875
931.52895	26812.7875
935.30295	26433.4875
939.07433	25769.3875
942.84309	25450.8875
946.60924	25365.4875
950.37278	25254.1875
954.13371	25079.0875
957.89203	24836.5875
961.64774	24710.0875
965.40086	24664.5875
969.15137	24576.0875
972.89929	24510.3875
976.64461	24482.8875
980.38733	24565.5875
984.12747	24736.3875
987.86502	25105.0875
991.59999	25600.1875
995.33237	26431.0875
999.06217	27641.5875
1002.78939	29024.4875
1006.51404	29461.2875
1010.23611	29551.7875
1013.95561	29707.4875
1017.67255	29718.7875
1021.38692	29329.1875
1025.09872	29233.3875
1028.80796	30048.7875
1032.51465	31583.4875
1036.21877	32742.1875
1039.92035	32628.3875
1043.61937	31627.4875
1047.31584	30145.0875
1051.00976	28765.5875
1054.70114	28024.2875
1058.38998	27838.9875
1062.07627	27759.4875
1065.76003	27683.0875
1069.44126	27748.7875
1073.11995	27990.6875
1076.79611	28286.1875
1080.46974	28567.2875
1084.14085	29017.0875
1087.80943	29327.8875
1091.47549	29343.8875
1095.13903	28935.6875
1098.80005	28408.1875
1102.45857	27958.7875
1106.11456	27779.5875
1109.76805	27940.5875
1113.41903	28222.4875
1117.06751	28596.1875
1120.71348	29022.6875
1124.35696	29363.0875
1127.99793	29654.2875
1131.63641	29566.3875
1135.2724	29124.9875
1138.90589	28805.0875
1142.5369	28604.3875
1146.16542	28481.9875
1149.79145	28549.6875
1153.415	28778.6875
1157.03607	29163.6875
1160.65467	29777.8875
1164.27079	30833.4875
1167.88443	32499.4875
1171.49561	34844.3875
1175.10432	38174.2875
1178.71056	42188.6875
1182.31434	45564.3875
1185.91565	46833.5875
1189.51451	45869.9875
1193.11091	43472.3875
1196.70485	40884.6875
1200.29634	38767.8875
1203.88538	37236.4875
1207.47197	36025.7875
1211.05612	35269.4875
1214.63782	34962.9875
1218.21708	35218.1875
1221.79391	35807.1875
1225.36829	36127.6875
1228.94024	35618.3875
1232.50976	34504.2875
1236.07685	33642.6875
1239.6415	33167.6875
1243.20374	33102.8875
1246.76355	33335.8875
1250.32093	33831.2875
1253.8759	34674.5875
1257.42845	35724.9875
1260.97859	36809.6875
1264.52631	37740.0875
1268.07163	38778.8875
1271.61453	40017.0875
1275.15503	41521.1875
1278.69312	42939.8875
1282.22882	44169.6875
1285.76211	45196.8875
1289.29301	46140.7875
1292.82151	47437.3875
1296.34761	49310.9875
1299.87133	51997.9875
1303.39266	55680.7875
1306.9116	60465.0875
1310.42815	65440.6875
1313.94233	68431.9875
1317.45412	68062.2875
1320.96354	65179.3875
1324.47058	61879.4875
1327.97525	58964.4875
1331.47754	57119.5875
1334.97747	56257.5875
1338.47502	56260.4875
1341.97022	56334.8875
1345.46305	56124.9875
1348.95352	55842.2875
1352.44163	56169.4875
1355.92738	58090.7875
1359.41078	61927.5875
1362.89183	65061.5875
1366.37053	63256.4875
1369.84688	56885.4875
1373.32088	50036.2875
1376.79254	45661.4875
1380.26186	43728.7875
1383.72883	43225.8875
1387.19347	42943.1875
1390.65578	42463.5875
1394.11575	42580.4875
1397.57339	43466.9875
1401.0287	44751.7875
1404.48168	45781.1875
1407.93234	46312.5875
1411.38068	46195.2875
1414.82669	45344.7875
1418.27039	43741.8875
1421.71177	41934.5875
1425.15083	40494.2875
1428.58758	39798.1875
1432.02203	40146.5875
1435.45416	40959.4875
1438.88399	41853.8875
1442.31151	42532.0875
1445.73673	42944.5875
1449.15965	43322.3875
1452.58027	43386.0875
1455.9986	43174.1875
1459.41463	43071.5875
1462.82837	43617.4875
1466.23982	44541.5875
1469.64898	45314.1875
1473.05586	45886.5875
1476.46045	46165.5875
1479.86276	46179.9875
1483.26279	46085.7875
1486.66054	46024.9875
1490.05602	46327.7875
1493.44922	46607.3875
1496.84016	46808.2875
1500.22882	47288.3875
1503.61521	48396.7875
1506.99934	50055.3875
1510.38121	51801.4875
1513.76081	52514.6875
1517.13816	51392.2875
1520.51324	48907.1875
1523.88607	46581.2875
1527.25665	45147.3875
1530.62498	44378.3875
1533.99105	44056.0875
1537.35488	43858.9875
1540.71647	43457.2875
1544.07581	42955.5875
1547.4329	42319.0875
1550.78776	41666.3875
1554.14038	41023.4875
1557.49077	40655.0875
1560.83892	40474.6875
1564.18484	40384.4875
1567.52853	40350.8875
1570.86999	40344.3875
1574.20922	40566.0875
1577.54624	40714.2875
1580.88103	40513.3875
1584.2136	40562.3875
1587.54395	41862.5875
1590.87208	44596.5875
1594.19801	48704.2875
1597.52172	52922.4875
1600.84321	54596.3875
1604.16251	52411.6875
1607.47959	47868.2875
1610.79447	42902.0875
1614.10715	38693.3875
1617.41763	35580.3875
1620.7259	33650.7875
1624.03199	32822.1875
1627.33587	33022.8875
1630.63757	34238.7875
1633.93707	36564.6875
1637.23439	40022.8875
1640.52951	44546.3875
1643.82246	49371.1875
1647.11321	52656.5875
1650.40179	52563.6875
1653.68819	48302.3875
1656.97241	41844.2875
1660.25446	35987.9875
1663.53433	31879.2875
1666.81203	29334.9875
1670.08756	27793.4875
1673.36092	26753.3875
1676.63211	26087.7875
1679.90115	25662.3875
1683.16801	25310.5875
1686.43272	25056.1875
1689.69527	24891.9875
1692.95567	24719.2875
1696.2139	24656.4875
1699.46999	24581.5875
1702.72392	24534.1875
1705.97571	24505.8875
1709.22535	24492.5875
1712.47284	24512.0875
1715.71819	24476.7875
1718.96139	24469.7875
1722.20246	24305.3875
1725.44139	24245.8875
1728.67818	24152.1875
1731.91284	24042.4875
1735.14537	23928.2875
1738.37576	23838.4875
1741.60403	23737.2875
1744.83017	23737.3875
1748.05418	23646.4875
1751.27607	23615.3875
1754.49584	23561.8875
1757.71349	23620.6875
1760.92903	23556.4875
1764.14244	23528.2875
1767.35375	23552.5875
1770.56294	23504.8875
1773.77002	23490.4875
1776.97499	23478.3875
1780.17785	23471.4875
1783.37861	23439.7875
1786.57727	23386.4875
1789.77382	23343.0875
1792.96828	23349.4875
1796.16064	23351.7875
1799.3509	23313.4875
1802.53907	23290.4875
1805.72514	23326.1875
1808.90913	23179.5875
1812.09102	23182.6875
1815.27083	23116.3875
1818.44856	23044.4875
1821.6242	23021.5875
1824.79776	22993.1875
1827.96924	22973.2875
1831.13864	22950.6875
1834.30597	22952.9875
1837.47122	22923.1875
1840.6344	22888.3875
1843.7955	22928.9875
1846.95454	22895.8875
1850.11151	22919.6875
1853.26642	22892.6875
1856.41926	22938.6875
1859.57004	22903.4875
1862.71876	22919.8875
1865.86542	22964.0875
1869.01003	22975.5875
1872.15258	22970.3875
1875.29308	23005.5875
1878.43152	22933.7875
1881.56792	22948.4875
1884.70227	22963.7875
1887.83457	22951.2875
1890.96482	22971.9875
1894.09304	22955.0875
1897.21921	22952.6875
1900.34335	22950.4875
1903.46544	22932.4875
1906.58551	22943.9875
1909.70353	22953.8875
1912.81953	22945.5875
1915.93349	22938.5875
1919.04543	22888.1875
1922.15534	22836.1875
1925.26322	22812.1875
1928.36908	22804.6875
1931.47292	22710.2875
1934.57473	22661.2875
1937.67453	22615.4875
1940.77232	22537.9875
1943.86808	22535.7875
1946.96184	22452.2875
1950.05358	22337.1875
1953.14331	22303.0875
1956.23103	22249.8875
1959.31675	22208.8875
1962.40046	22129.4875
1965.48217	22109.7875
1968.56188	21995.7875
1971.63959	21964.8875
1974.7153	21899.0875
1977.78901	21876.3875
1980.86073	21758.2875
1983.93046	21751.5875
1986.99819	21667.2875
1990.06394	21607.0875
1993.1277	21550.1875
1996.18947	21457.7875
1999.24925	21482.5875
2002.30706	21384.8875
2005.36288	21334.4875
2008.41672	21276.0875
2011.46859	21225.9875
2014.51848	21145.4875
2017.56639	21108.3875
2020.61233	21091.4875
2023.6563	20997.4875
2026.6983	20997.3875
2029.73833	21009.4875
2032.7764	20986.9875
2035.8125	20955.9875
2038.84664	20933.7875
2041.87881	20937.5875
2044.90903	20898.4875
2047.93729	20873.2875
2050.96359	20847.7875
2053.98794	20791.5875
2057.01034	20798.4875
2060.03078	20778.2875
2063.04927	20834.7875
2066.06582	20802.3875
2069.08042	20769.7875
2072.09307	20734.0875
2075.10378	20659.5875
2078.11255	20625.0875
2081.11938	20679.9875
2084.12426	20649.0875
2087.12722	20606.0875
2090.12824	20584.6875
2093.12732	20583.6875
2096.12447	20618.7875
2099.11969	20610.7875
2102.11299	20619.8875
2105.10435	20626.5875
2108.09379	20668.6875
2111.08131	20653.4875
2114.0669	20687.1875
2117.05057	20675.7875
2120.03233	20706.7875
2123.01216	20725.9875
2125.99008	20742.6875
2128.96609	20777.1875
2131.94018	20760.1875
2134.91236	20824.8875
2137.88263	20834.0875
2140.851	20840.3875
2143.81746	20862.2875
2146.78201	20882.4875
2149.74466	20873.1875
2152.7054	20915.4875
2155.66425	20918.5875
2158.6212	20874.0875
2161.57625	20890.0875
2164.52941	20876.1875
2167.48067	20905.5875
2170.43004	20877.8875
2173.37752	20897.0875
2176.32311	20940.7875
2179.26681	20940.5875
2182.20863	20942.9875
2185.14856	20991.1875
2188.08661	20984.0875
2191.02278	21000.4875
2193.95707	21036.6875
2196.88948	21019.2875
2199.82001	21050.7875
2202.74867	21026.2875
2205.67545	21048.5875
2208.60037	21042.0875
2211.52341	21024.3875
2214.44458	21003.1875
2217.36388	20989.2875
2220.28132	21004.1875
2223.1969	20953.1875
2226.11061	20987.2875
2229.02246	20953.3875
2231.93245	20878.0875
2234.84058	20835.3875
2237.74686	20773.5875
2240.65128	20765.2875
2243.55385	20769.6875
2246.45456	20748.8875
2249.35343	20727.9875
2252.25044	20695.4875
2255.14561	20663.6875
2258.03893	20621.8875
2260.93041	20617.2875
2263.82004	20487.8875
2266.70783	20521.1875
2269.59378	20446.3875
2272.4779	20402.9875
2275.36017	20329.5875
2278.24061	20320.5875
2281.11922	20273.1875
2283.996	20251.7875
2286.87094	20274.8875
2289.74405	20229.8875
2292.61534	20253.7875
2295.4848	20281.1875
2298.35243	20267.3875
2301.21824	20294.2875
2304.08223	20336.9875
2306.94439	20335.5875
2309.80474	20403.5875
2312.66327	20433.4875
2315.51999	20438.3875
2318.37489	20404.2875
2321.22797	20431.7875
2324.07925	20433.8875
2326.92871	20389.1875
2329.77637	20408.8875
2332.62222	20397.9875
2335.46626	20409.1875
2338.3085	20430.2875
2341.14893	20418.8875
2343.98756	20472.2875
2346.8244	20455.0875
2349.65943	20481.6875
2352.49267	20508.0875
2355.32411	20545.6875
2358.15376	20525.1875
2360.98161	20496.7875
2363.80768	20460.6875
2366.63195	20427.5875
2369.45444	20362.3875
2372.27514	20355.8875
2375.09405	20291.4875
2377.91118	20261.6875
2380.72652	20197.2875
2383.54009	20136.6875
2386.35187	20125.1875
2389.16188	20085.0875
2391.97011	20046.4875
2394.77657	20030.3875
2397.58125	20002.5875
2400.38416	19988.1875
2403.18529	19952.5875
2405.98466	19945.4875
2408.78226	19907.8875
2411.57809	19847.0875
2414.37216	19792.7875
2417.16446	19797.6875
2419.955	19762.9875
2422.74378	19754.4875
2425.5308	19727.5875
2428.31606	19720.3875
2431.09956	19760.7875
2433.88131	19763.9875
2436.6613	19739.2875
2439.43954	19716.9875
2442.21603	19739.9875
2444.99077	19696.8875
2447.76377	19722.6875
2450.53501	19715.3875
2453.30451	19715.1875
2456.07226	19707.0875
2458.83827	19659.2875
2461.60254	19705.5875
2464.36507	19679.0875
2467.12586	19684.7875
2469.88492	19711.9875
2472.64224	19716.1875
2475.39782	19724.5875
2478.15167	19740.8875
2480.90379	19751.0875
2483.65417	19804.0875
2486.40283	19794.3875
2489.14976	19885.4875
2491.89497	19889.5875
2494.63845	19888.9875
2497.3802	19905.5875
2500.12024	19888.4875
2502.85855	19888.0875
2505.59514	19879.4875
2508.33002	19857.2875
2511.06318	19877.5875
2513.79462	19823.9875
2516.52435	19800.8875
2519.25237	19774.9875
2521.97867	19758.9875
2524.70327	19778.7875
2527.42616	19772.6875
2530.14734	19757.4875
2532.86681	19774.3875
2535.58458	19788.9875
2538.30065	19784.0875
2541.01501	19801.4875
2543.72768	19744.8875
2546.43864	19786.9875
2549.14791	19773.1875
2551.85548	19712.5875
2554.56136	19710.4875
2557.26554	19682.0875
2559.96803	19687.6875
2562.66883	19668.9875
2565.36794	19638.4875
2568.06536	19639.2875
2570.7611	19623.1875
2573.45514	19651.9875
2576.14751	19695.4875
2578.83819	19700.4875
2581.52719	19684.2875
2584.21451	19692.9875
2586.90015	19691.8875
2589.58411	19691.3875
2592.2664	19689.6875
2594.94701	19682.5875
2597.62594	19678.7875
2600.30321	19659.4875
2602.9788	19653.5875
2605.65273	19654.6875
2608.32498	19656.9875
2610.99557	19655.3875
2613.66449	19690.7875
2616.33175	19707.6875
2618.99734	19741.8875
2621.66128	19762.2875
2624.32355	19770.3875
2626.98416	19794.5875
2629.64311	19835.3875
2632.30041	19855.5875
2634.95605	19853.5875
2637.61004	19819.7875
2640.26238	19755.8875
2642.91306	19701.5875
2645.56209	19651.6875
2648.20948	19596.0875
2650.85521	19585.9875
2653.4993	19614.8875
2656.14175	19583.9875
2658.78255	19641.1875
2661.42171	19632.5875
2664.05923	19682.6875
2666.6951	19678.4875
2669.32934	19717.9875
2671.96194	19661.8875
2674.59291	19724.2875
2677.22224	19700.3875
2679.84993	19713.0875
2682.476	19716.4875
2685.10043	19722.3875
2687.72324	19623.9875
2690.34441	19671.0875
2692.96396	19608.6875
2695.58188	19641.7875
2698.19818	19608.5875
2700.81285	19614.9875
2703.4259	19591.4875
2706.03733	19607.8875
2708.64714	19641.3875
2711.25533	19652.4875
2713.86191	19666.2875
2716.46687	19659.3875
2719.07021	19682.9875
2721.67194	19695.5875
2724.27206	19704.1875
2726.87057	19755.3875
2729.46747	19774.5875
2732.06276	19780.5875
2734.65644	19729.1875
2737.24852	19749.4875
2739.83899	19723.9875
2742.42786	19749.9875
2745.01513	19757.4875
2747.60079	19723.2875
2750.18486	19717.8875
2752.76733	19710.3875
2755.3482	19678.9875
2757.92747	19710.3875
2760.50515	19679.2875
2763.08123	19695.0875
2765.65573	19702.1875
2768.22863	19682.3875
2770.79994	19713.2875
2773.36967	19700.9875
2775.9378	19713.0875
2778.50435	19722.6875
2781.06932	19730.0875
2783.6327	19735.8875
2786.1945	19720.6875
2788.75471	19700.3875
2791.31335	19659.1875
2793.87041	19678.7875
2796.42589	19632.8875
2798.97979	19605.3875
2801.53212	19575.4875
2804.08288	19536.7875
2806.63206	19504.5875
2809.17967	19484.3875
2811.72571	19415.2875
2814.27018	19415.1875
2816.81308	19449.9875
2819.35442	19398.3875
2821.89419	19339.9875
2824.43239	19377.7875
2826.96904	19377.3875
2829.50412	19383.0875
2832.03763	19372.8875
2834.56959	19374.2875
2837.1	19317.1875
2839.62884	19306.3875
2842.15613	19313.5875
2844.68186	19348.2875
2847.20604	19345.7875
2849.72867	19302.3875
2852.24974	19273.3875
2854.76927	19281.8875
2857.28724	19251.1875
2859.80367	19276.9875
2862.31855	19247.9875
2864.83189	19217.4875
2867.34368	19193.8875
2869.85393	19203.9875
2872.36264	19195.6875
2874.8698	19156.8875
2877.37543	19161.3875
2879.87952	19119.8875
2882.38207	19154.4875
2884.88308	19158.2875
2887.38256	19160.5875
2889.88051	19132.9875
2892.37692	19194.4875
2894.8718	19238.6875
2897.36515	19274.5875
2899.85698	19288.8875
2902.34727	19315.2875
2904.83604	19310.6875
2907.32328	19367.5875
2909.809	19389.6875
2912.29319	19415.6875
2914.77587	19420.3875
2917.25702	19395.1875
2919.73665	19406.6875
2922.21476	19393.8875
2924.69136	19340.4875
2927.16644	19324.0875
2929.64	19289.5875
2932.11205	19267.3875
2934.58258	19203.0875
2937.05161	19241.1875
2939.51912	19243.1875
2941.98513	19233.1875
2944.44962	19237.3875
2946.91261	19161.8875
2949.37409	19194.2875
2951.83407	19200.6875
2954.29254	19222.6875
2956.74951	19211.9875
2959.20498	19210.8875
2961.65895	19172.6875
2964.11142	19183.9875
2966.56239	19179.1875
2969.01186	19186.8875
2971.45984	19139.3875
2973.90632	19137.0875
2976.35131	19028.2875
2978.7948	19073.2875
2981.23681	18983.9875
2983.67732	18934.7875
2986.11635	18905.0875
2988.55388	18872.4875
2990.98993	18828.9875
2993.4245	18788.7875
2995.85758	18750.0875
2998.28917	18721.3875
3000.71928	18702.0875
3003.14791	18630.3875
3005.57506	18652.9875
3008.00073	18614.1875
3010.42493	18590.6875
3012.84764	18524.6875
3015.26888	18529.9875
3017.68865	18495.1875
3020.10694	18467.2875
3022.52376	18439.5875
3024.9391	18415.7875
3027.35298	18390.0875
3029.76539	18361.7875
3032.17632	18373.7875
3034.5858	18334.4875
3036.9938	18351.1875
3039.40034	18360.3875
3041.80542	18289.0875
3044.20903	18297.3875
3046.61118	18284.4875
3049.01187	18228.6875
3051.4111	18263.6875
3053.80888	18266.8875
3056.20519	18209.4875
3058.60005	18197.1875
3060.99345	18133.0875
3063.3854	18078.5875
3065.7759	18007.0875
3068.16494	17986.9875
3070.55254	17911.4875
3072.93868	17903.8875
3075.32338	17837.1875
3077.70662	17822.5875
3080.08842	17774.8875
3082.46878	17772.0875
3084.84769	17750.7875
3087.22515	17715.1875
3089.60118	17718.4875
3091.97576	17733.0875
3094.3489	17709.1875
3096.72061	17753.2875
3099.09087	17730.3875
3101.4597	17702.5875
3103.82709	17672.4875
3106.19305	17700.9875
3108.55757	17700.1875
3110.92066	17658.3875
3113.28232	17660.4875
3115.64255	17640.7875
3118.00134	17619.3875
3120.35871	17574.4875
3122.71466	17544.9875
3125.06917	17550.1875
3127.42226	17544.0875
3129.77393	17487.8875
3132.12417	17492.3875
3134.47299	17458.1875
3136.82039	17424.3875
3139.16636	17443.2875
3141.51092	17424.3875
3143.85406	17437.8875
3146.19579	17415.3875
3148.53609	17423.0875
3150.87499	17422.2875
3153.21246	17422.6875
3155.54853	17442.5875
3157.88318	17429.6875
3160.21642	17448.8875
3162.54826	17437.2875
3164.87868	17457.9875
3167.2077	17424.0875
3169.5353	17457.2875
3171.86151	17452.5875
3174.18631	17435.0875
3176.5097	17440.7875
3178.83169	17426.6875
3181.15228	17409.9875
3183.47147	17372.1875
3185.78926	17389.9875
3188.10565	17374.6875
3190.42065	17350.0875
3192.73424	17375.1875
3195.04645	17341.3875
3197.35725	17408.7875
3199.66667	17341.7875
3201.97469	17354.2875
3204.28132	17348.5875
3206.58656	17379.9875
3208.8904	17367.0875
3211.19287	17359.2875
3213.49394	17334.7875
3215.79363	17363.2875
3218.09193	17380.7875
3220.38884	17412.5875
3222.68438	17440.5875
3224.97853	17396.9875
3227.2713	17386.9875
3229.56269	17386.6875
3231.8527	17383.2875
3234.14133	17391.1875
3236.42858	17371.0875
3238.71446	17344.7875
3240.99896	17304.7875
3243.28209	17294.4875
3245.56384	17288.0875
3247.84423	17266.6875
3250.12324	17242.7875
3252.40088	17236.9875
3254.67715	17220.6875
3256.95205	17206.8875
3259.22558	17217.3875
3261.49775	17201.4875
3263.76855	17169.3875
3266.03799	17195.5875
3268.30606	17184.6875
3270.57277	17149.9875
3272.83812	17159.6875
3275.10211	17130.6875
3277.36474	17088.4875
3279.62601	17062.8875
3281.88593	17050.6875
3284.14448	17090.3875
3286.40168	17101.9875
3288.65753	17088.1875
3290.91202	17103.1875
3293.16516	17059.3875
3295.41695	17007.1875
3297.66738	16921.1875
3299.91647	16865.5875
3302.16421	16753.5875
3304.4106	16696.2875
3306.65564	16627.7875
3308.89933	16530.6875
3311.14169	16416.8875
3313.38269	16311.5875
3315.62236	16246.7875
3317.86068	16125.0875
3320.09766	15994.6875
3322.3333	15919.7875
3324.5676	15828.1875
3326.80056	15626.4875
3329.03219	15538.2875
3331.26248	4.8875
3333.49143	0.3875
3335.71905	-0.5125
