Data from AgNPs_UA_10uM_CRN_0uM_R6G_10uM_Q_RamanShift__1__11-49-52-623.txt Node

Date: Mon Jul 18 11:49:52 BST 2022
User: TCL
Spectrometer: QEP01345
Trigger mode: 4
Integration Time (sec): 7.000000E0
Scans to average: 10
Electric dark correction enabled: true
Nonlinearity correction enabled: false
Boxcar width: 0
XAxis mode: Raman Shifts
Number of Pixels in Spectrum: 1044
>>>>>Begin Spectral Data<<<<<
46.04893	-0.2125
50.45542	-1.5125
54.85868	-1.9125
59.25871	0.0875
63.6555	98.3875
68.04907	105.2875
72.43941	113.0875
76.82654	118.1875
81.21044	116.6875
85.59113	122.9875
89.96862	126.4875
94.34289	132.7875
98.71396	135.5875
103.08183	142.5875
107.4465	145.5875
111.80798	149.7875
116.16626	151.1875
120.52136	159.9875
124.87327	169.9875
129.222	173.0875
133.56755	190.0875
137.90993	200.4875
142.24913	220.1875
146.58517	244.9875
150.91804	290.0875
155.24774	340.2875
159.57429	420.8875
163.89768	546.5875
168.21792	724.1875
172.53501	994.1875
176.84895	1383.6875
181.15975	1952.8875
185.46741	2760.7875
189.77193	3802.7875
194.07331	5121.2875
198.37157	6599.6875
202.6667	8165.1875
206.9587	9765.0875
211.24758	11339.8875
215.53334	12919.3875
219.81599	14674.4875
224.09553	16626.4875
228.37195	18764.8875
232.64527	21030.2875
236.91549	23226.6875
241.18261	25252.3875
245.44663	26945.3875
249.70755	28452.4875
253.96539	29700.3875
258.22014	30773.2875
262.4718	31683.3875
266.72039	32235.6875
270.96589	32476.8875
275.20832	32433.9875
279.44768	32111.9875
283.68397	31713.2875
287.91719	31461.2875
292.14735	31559.6875
296.37445	31996.1875
300.59849	32827.3875
304.81948	33874.5875
309.03742	34710.3875
313.25231	34951.4875
317.46415	34129.3875
321.67296	32526.9875
325.87872	31022.9875
330.08145	30267.2875
334.28114	30244.6875
338.47781	30624.3875
342.67145	31238.7875
346.86207	32153.9875
351.04966	33388.3875
355.23424	34676.6875
359.4158	35512.3875
363.59435	35849.3875
367.76989	35800.0875
371.94243	35494.7875
376.11196	35238.4875
380.27849	35015.6875
384.44203	34882.8875
388.60257	34756.6875
392.76012	34950.6875
396.91468	35469.5875
401.06626	36155.3875
405.21485	36522.3875
409.36047	35941.4875
413.50311	34822.7875
417.64277	33720.9875
421.77947	33252.6875
425.9132	33014.6875
430.04396	33050.7875
434.17176	33106.0875
438.2966	33322.5875
442.41849	33718.1875
446.53742	34232.1875
450.6534	34808.4875
454.76644	35219.5875
458.87653	35327.7875
462.98368	35385.4875
467.08789	35166.4875
471.18916	34835.7875
475.2875	34315.2875
479.38291	33926.4875
483.4754	33604.2875
487.56496	33395.2875
491.6516	33305.3875
495.73531	33354.1875
499.81612	33470.4875
503.89401	33787.0875
507.96899	33962.7875
512.04106	34081.3875
516.11023	34233.3875
520.1765	34311.6875
524.23987	34182.1875
528.30034	33887.4875
532.35792	33594.8875
536.41261	33260.3875
540.46441	32869.6875
544.51333	32802.2875
548.55936	33115.1875
552.60252	33721.3875
556.64279	34344.3875
560.6802	34719.9875
564.71473	35182.5875
568.7464	35967.5875
572.7752	36210.9875
576.80114	35865.6875
580.82422	35839.0875
584.84444	36105.7875
588.86181	36093.9875
592.87633	35781.9875
596.888	35970.7875
600.89682	37014.7875
604.9028	40484.3875
608.90594	48298.6875
612.90624	56071.9875
616.90371	51393.0875
620.89834	39637.1875
624.89015	34746.5875
628.87913	34082.6875
632.86528	34820.7875
636.84862	35322.8875
640.82913	34827.3875
644.80683	33701.7875
648.78172	32900.6875
652.75379	33042.5875
656.72306	34008.0875
660.68952	34953.9875
664.65319	34598.4875
668.61405	33710.4875
672.57211	33523.4875
676.52738	33527.3875
680.47986	33281.6875
684.42955	32902.0875
688.37646	32767.5875
692.32058	32944.1875
696.26192	33379.9875
700.20048	33777.3875
704.13626	34004.9875
708.06928	33888.4875
711.99952	33648.5875
715.927	33562.4875
719.85171	33646.4875
723.77365	33630.1875
727.69284	33296.7875
731.60928	32968.6875
735.52295	32855.0875
739.43388	32899.5875
743.34206	33040.4875
747.24749	33143.8875
751.15017	33299.7875
755.05012	33780.9875
758.94733	35166.9875
762.8418	38363.9875
766.73354	43261.4875
770.62254	47021.0875
774.50882	47343.2875
778.39237	45062.0875
782.27321	41264.0875
786.15132	37469.0875
790.02671	34999.1875
793.89938	33739.9875
797.76935	33201.1875
801.6366	32953.5875
805.50115	32819.8875
809.36299	32617.0875
813.22213	32482.4875
817.07857	32428.2875
820.93231	32441.9875
824.78336	32577.5875
828.63172	32635.2875
832.47738	32607.4875
836.32036	32542.8875
840.16066	32456.6875
843.99827	32375.8875
847.8332	32370.3875
851.66546	32357.5875
855.49504	32353.0875
859.32195	32367.6875
863.1462	32282.4875
866.96777	32340.9875
870.78668	32349.1875
874.60293	32426.5875
878.41652	32518.6875
882.22745	32746.0875
886.03573	32860.4875
889.84136	32843.9875
893.64433	32655.9875
897.44466	32633.4875
901.24235	32610.4875
905.0374	32514.8875
908.8298	32371.0875
912.61957	32262.9875
916.40671	32353.3875
920.19121	32577.0875
923.97308	32859.7875
927.75233	33173.5875
931.52895	33358.1875
935.30295	33023.7875
939.07433	32320.3875
942.84309	31804.1875
946.60924	31455.3875
950.37278	31383.0875
954.13371	31323.4875
957.89203	31302.1875
961.64774	31290.0875
965.40086	31279.9875
969.15137	31287.8875
972.89929	31255.0875
976.64461	31242.9875
980.38733	31249.4875
984.12747	31322.1875
987.86502	31388.1875
991.59999	31487.9875
995.33237	31551.8875
999.06217	31866.4875
1002.78939	32225.0875
1006.51404	32708.2875
1010.23611	33143.0875
1013.95561	33334.4875
1017.67255	33245.3875
1021.38692	33054.1875
1025.09872	32779.0875
1028.80796	32477.0875
1032.51465	32403.1875
1036.21877	32533.5875
1039.92035	32691.0875
1043.61937	32869.9875
1047.31584	33006.7875
1051.00976	33141.3875
1054.70114	33201.4875
1058.38998	33338.5875
1062.07627	33523.8875
1065.76003	33813.0875
1069.44126	34286.8875
1073.11995	34917.5875
1076.79611	35645.6875
1080.46974	36183.1875
1084.14085	36610.3875
1087.80943	37178.5875
1091.47549	37384.6875
1095.13903	37107.2875
1098.80005	36569.0875
1102.45857	36018.9875
1106.11456	35461.0875
1109.76805	35075.5875
1113.41903	35113.8875
1117.06751	35584.9875
1120.71348	36359.5875
1124.35696	37365.0875
1127.99793	38277.2875
1131.63641	37901.7875
1135.2724	36737.5875
1138.90589	35818.1875
1142.5369	35294.3875
1146.16542	34957.4875
1149.79145	34747.2875
1153.415	34682.7875
1157.03607	34779.7875
1160.65467	35273.9875
1164.27079	36054.9875
1167.88443	37357.5875
1171.49561	39342.6875
1175.10432	42292.3875
1178.71056	46186.1875
1182.31434	49254.4875
1185.91565	50162.7875
1189.51451	49481.8875
1193.11091	47989.1875
1196.70485	46106.6875
1200.29634	44487.5875
1203.88538	42846.9875
1207.47197	40913.7875
1211.05612	39188.0875
1214.63782	38081.7875
1218.21708	37304.1875
1221.79391	36749.2875
1225.36829	36498.1875
1228.94024	36429.3875
1232.50976	36425.3875
1236.07685	36563.2875
1239.6415	36641.9875
1243.20374	36740.7875
1246.76355	36984.3875
1250.32093	37322.4875
1253.8759	37810.3875
1257.42845	38642.4875
1260.97859	39683.0875
1264.52631	40682.7875
1268.07163	41652.4875
1271.61453	42383.9875
1275.15503	42987.2875
1278.69312	43273.7875
1282.22882	43640.2875
1285.76211	44493.4875
1289.29301	45618.4875
1292.82151	46737.7875
1296.34761	47748.1875
1299.87133	49333.1875
1303.39266	52046.6875
1306.9116	56269.6875
1310.42815	60943.4875
1313.94233	62737.8875
1317.45412	60563.4875
1320.96354	57305.3875
1324.47058	54483.4875
1327.97525	52480.5875
1331.47754	51221.4875
1334.97747	50845.8875
1338.47502	51068.5875
1341.97022	52049.9875
1345.46305	53944.1875
1348.95352	56505.0875
1352.44163	59319.0875
1355.92738	62607.4875
1359.41078	67530.9875
1362.89183	72586.9875
1366.37053	70512.9875
1369.84688	61405.3875
1373.32088	52712.8875
1376.79254	47390.4875
1380.26186	44706.6875
1383.72883	43060.9875
1387.19347	41694.4875
1390.65578	40410.5875
1394.11575	39366.3875
1397.57339	38605.8875
1401.0287	38154.4875
1404.48168	37835.8875
1407.93234	37760.5875
1411.38068	37830.6875
1414.82669	37941.1875
1418.27039	37823.9875
1421.71177	37475.0875
1425.15083	37020.1875
1428.58758	36687.8875
1432.02203	36836.7875
1435.45416	37187.8875
1438.88399	37449.9875
1442.31151	37451.3875
1445.73673	37556.9875
1449.15965	37784.0875
1452.58027	37816.1875
1455.9986	37808.3875
1459.41463	37871.8875
1462.82837	38333.0875
1466.23982	39065.5875
1469.64898	39910.2875
1473.05586	40598.0875
1476.46045	41071.6875
1479.86276	41576.0875
1483.26279	42223.6875
1486.66054	43194.0875
1490.05602	44586.6875
1493.44922	46624.6875
1496.84016	49929.7875
1500.22882	54808.7875
1503.61521	61143.2875
1506.99934	68125.4875
1510.38121	72954.2875
1513.76081	73168.6875
1517.13816	67795.2875
1520.51324	60061.3875
1523.88607	53471.7875
1527.25665	49139.9875
1530.62498	46621.1875
1533.99105	45116.4875
1537.35488	43928.9875
1540.71647	42993.3875
1544.07581	42310.1875
1547.4329	41766.1875
1550.78776	41366.5875
1554.14038	41282.1875
1557.49077	41477.3875
1560.83892	42084.1875
1564.18484	43203.7875
1567.52853	44548.7875
1570.86999	45552.3875
1574.20922	46121.0875
1577.54624	45685.4875
1580.88103	43792.4875
1584.2136	41537.2875
1587.54395	40153.6875
1590.87208	40154.3875
1594.19801	41350.8875
1597.52172	42908.4875
1600.84321	43319.7875
1604.16251	42560.5875
1607.47959	41264.8875
1610.79447	39757.1875
1614.10715	37963.0875
1617.41763	36226.9875
1620.7259	35009.8875
1624.03199	34343.5875
1627.33587	34116.5875
1630.63757	34531.2875
1633.93707	35534.7875
1637.23439	37371.7875
1640.52951	40503.3875
1643.82246	45194.1875
1647.11321	50627.2875
1650.40179	54357.6875
1653.68819	53238.4875
1656.97241	47711.3875
1660.25446	41436.8875
1663.53433	36684.8875
1666.81203	33740.9875
1670.08756	31924.1875
1673.36092	30884.8875
1676.63211	30207.1875
1679.90115	29712.4875
1683.16801	29301.9875
1686.43272	29056.2875
1689.69527	28848.7875
1692.95567	28605.2875
1696.2139	28521.2875
1699.46999	28458.9875
1702.72392	28378.9875
1705.97571	28303.5875
1709.22535	28274.9875
1712.47284	28298.3875
1715.71819	28329.8875
1718.96139	28256.8875
1722.20246	28151.5875
1725.44139	28080.9875
1728.67818	27924.9875
1731.91284	27726.0875
1735.14537	27593.3875
1738.37576	27505.2875
1741.60403	27470.1875
1744.83017	27412.0875
1748.05418	27318.0875
1751.27607	27232.9875
1754.49584	27226.9875
1757.71349	27180.5875
1760.92903	27111.8875
1764.14244	27084.9875
1767.35375	27018.0875
1770.56294	26977.1875
1773.77002	26905.2875
1776.97499	26884.8875
1780.17785	26828.2875
1783.37861	26764.5875
1786.57727	26655.0875
1789.77382	26652.9875
1792.96828	26587.0875
1796.16064	26549.3875
1799.3509	26525.6875
1802.53907	26416.9875
1805.72514	26354.3875
1808.90913	26262.2875
1812.09102	26221.7875
1815.27083	26181.5875
1818.44856	26133.6875
1821.6242	26140.6875
1824.79776	26025.5875
1827.96924	26033.2875
1831.13864	25975.5875
1834.30597	25936.6875
1837.47122	25895.9875
1840.6344	25861.8875
1843.7955	25835.5875
1846.95454	25834.5875
1850.11151	25788.4875
1853.26642	25731.0875
1856.41926	25751.6875
1859.57004	25773.7875
1862.71876	25700.6875
1865.86542	25710.2875
1869.01003	25666.4875
1872.15258	25677.2875
1875.29308	25630.1875
1878.43152	25545.6875
1881.56792	25508.2875
1884.70227	25503.7875
1887.83457	25443.0875
1890.96482	25439.7875
1894.09304	25369.2875
1897.21921	25361.3875
1900.34335	25336.7875
1903.46544	25272.2875
1906.58551	25261.6875
1909.70353	25230.9875
1912.81953	25215.2875
1915.93349	25200.5875
1919.04543	25101.0875
1922.15534	25077.8875
1925.26322	24994.0875
1928.36908	24981.0875
1931.47292	24915.0875
1934.57473	24797.8875
1937.67453	24768.1875
1940.77232	24690.5875
1943.86808	24615.2875
1946.96184	24590.8875
1950.05358	24524.7875
1953.14331	24433.7875
1956.23103	24356.6875
1959.31675	24316.8875
1962.40046	24254.7875
1965.48217	24213.2875
1968.56188	24137.3875
1971.63959	24075.4875
1974.7153	23991.7875
1977.78901	23943.4875
1980.86073	23838.6875
1983.93046	23767.4875
1986.99819	23710.2875
1990.06394	23608.4875
1993.1277	23518.5875
1996.18947	23478.2875
1999.24925	23385.6875
2002.30706	23365.9875
2005.36288	23309.0875
2008.41672	23234.6875
2011.46859	23142.7875
2014.51848	23077.0875
2017.56639	23056.6875
2020.61233	22935.6875
2023.6563	22902.5875
2026.6983	22780.0875
2029.73833	22689.4875
2032.7764	22642.5875
2035.8125	22667.5875
2038.84664	22604.5875
2041.87881	22549.8875
2044.90903	22493.4875
2047.93729	22429.0875
2050.96359	22421.1875
2053.98794	22380.9875
2057.01034	22303.5875
2060.03078	22308.6875
2063.04927	22327.2875
2066.06582	22280.5875
2069.08042	22273.7875
2072.09307	22255.2875
2075.10378	22209.4875
2078.11255	22197.9875
2081.11938	22252.8875
2084.12426	22253.6875
2087.12722	22196.9875
2090.12824	22195.7875
2093.12732	22194.9875
2096.12447	22222.1875
2099.11969	22213.3875
2102.11299	22241.5875
2105.10435	22229.6875
2108.09379	22225.6875
2111.08131	22264.1875
2114.0669	22228.5875
2117.05057	22226.4875
2120.03233	22283.8875
2123.01216	22311.9875
2125.99008	22340.0875
2128.96609	22354.8875
2131.94018	22388.2875
2134.91236	22397.2875
2137.88263	22425.2875
2140.851	22393.1875
2143.81746	22412.9875
2146.78201	22442.5875
2149.74466	22412.6875
2152.7054	22401.6875
2155.66425	22342.5875
2158.6212	22412.2875
2161.57625	22380.7875
2164.52941	22330.8875
2167.48067	22327.1875
2170.43004	22320.1875
2173.37752	22306.6875
2176.32311	22260.6875
2179.26681	22290.5875
2182.20863	22300.3875
2185.14856	22316.1875
2188.08661	22320.1875
2191.02278	22265.9875
2193.95707	22274.5875
2196.88948	22229.1875
2199.82001	22245.5875
2202.74867	22161.6875
2205.67545	22113.5875
2208.60037	22068.7875
2211.52341	22035.9875
2214.44458	22022.8875
2217.36388	22005.6875
2220.28132	21964.3875
2223.1969	21881.3875
2226.11061	21826.4875
2229.02246	21782.4875
2231.93245	21757.2875
2234.84058	21727.2875
2237.74686	21670.2875
2240.65128	21655.9875
2243.55385	21636.7875
2246.45456	21607.7875
2249.35343	21578.7875
2252.25044	21567.8875
2255.14561	21553.5875
2258.03893	21527.0875
2260.93041	21509.5875
2263.82004	21505.6875
2266.70783	21444.6875
2269.59378	21394.4875
2272.4779	21362.4875
2275.36017	21316.8875
2278.24061	21290.6875
2281.11922	21197.2875
2283.996	21220.6875
2286.87094	21160.8875
2289.74405	21103.7875
2292.61534	21086.3875
2295.4848	21045.8875
2298.35243	21060.1875
2301.21824	21017.1875
2304.08223	20982.5875
2306.94439	20961.3875
2309.80474	20967.2875
2312.66327	20910.5875
2315.51999	20895.2875
2318.37489	20887.0875
2321.22797	20832.5875
2324.07925	20827.4875
2326.92871	20782.3875
2329.77637	20764.2875
2332.62222	20751.6875
2335.46626	20697.6875
2338.3085	20748.6875
2341.14893	20682.6875
2343.98756	20627.8875
2346.8244	20665.5875
2349.65943	20678.4875
2352.49267	20634.0875
2355.32411	20657.5875
2358.15376	20675.1875
2360.98161	20681.3875
2363.80768	20690.3875
2366.63195	20677.4875
2369.45444	20657.1875
2372.27514	20669.5875
2375.09405	20636.0875
2377.91118	20571.0875
2380.72652	20493.2875
2383.54009	20424.8875
2386.35187	20413.7875
2389.16188	20381.9875
2391.97011	20328.7875
2394.77657	20268.4875
2397.58125	20213.6875
2400.38416	20197.7875
2403.18529	20146.7875
2405.98466	20144.1875
2408.78226	20103.8875
2411.57809	20113.6875
2414.37216	20091.9875
2417.16446	20055.6875
2419.955	20055.0875
2422.74378	20029.8875
2425.5308	19995.7875
2428.31606	19947.3875
2431.09956	19965.1875
2433.88131	19929.2875
2436.6613	19940.7875
2439.43954	19925.2875
2442.21603	19889.1875
2444.99077	19914.3875
2447.76377	19903.6875
2450.53501	19831.1875
2453.30451	19851.6875
2456.07226	19811.2875
2458.83827	19785.9875
2461.60254	19825.2875
2464.36507	19781.1875
2467.12586	19766.8875
2469.88492	19749.0875
2472.64224	19708.1875
2475.39782	19691.3875
2478.15167	19726.9875
2480.90379	19756.9875
2483.65417	19791.5875
2486.40283	19786.8875
2489.14976	19810.2875
2491.89497	19779.5875
2494.63845	19807.3875
2497.3802	19775.8875
2500.12024	19743.5875
2502.85855	19697.3875
2505.59514	19645.5875
2508.33002	19588.1875
2511.06318	19539.7875
2513.79462	19514.8875
2516.52435	19433.8875
2519.25237	19436.2875
2521.97867	19388.7875
2524.70327	19349.5875
2527.42616	19318.4875
2530.14734	19308.8875
2532.86681	19251.5875
2535.58458	19267.0875
2538.30065	19277.3875
2541.01501	19248.6875
2543.72768	19216.5875
2546.43864	19209.1875
2549.14791	19154.5875
2551.85548	19121.9875
2554.56136	19073.3875
2557.26554	19057.7875
2559.96803	19060.3875
2562.66883	19030.2875
2565.36794	18988.1875
2568.06536	18985.4875
2570.7611	18953.9875
2573.45514	18935.6875
2576.14751	18921.6875
2578.83819	18847.3875
2581.52719	18800.7875
2584.21451	18765.6875
2586.90015	18746.2875
2589.58411	18711.5875
2592.2664	18719.3875
2594.94701	18697.0875
2597.62594	18679.6875
2600.30321	18622.7875
2602.9788	18569.4875
2605.65273	18508.1875
2608.32498	18514.7875
2610.99557	18468.7875
2613.66449	18515.3875
2616.33175	18472.5875
2618.99734	18430.5875
2621.66128	18407.1875
2624.32355	18379.8875
2626.98416	18384.5875
2629.64311	18311.3875
2632.30041	18273.2875
2634.95605	18243.7875
2637.61004	18218.6875
2640.26238	18202.3875
2642.91306	18218.6875
2645.56209	18214.6875
2648.20948	18188.8875
2650.85521	18127.0875
2653.4993	18131.0875
2656.14175	18170.4875
2658.78255	18201.9875
2661.42171	18167.6875
2664.05923	18225.8875
2666.6951	18206.7875
2669.32934	18186.2875
2671.96194	18185.9875
2674.59291	18191.4875
2677.22224	18170.8875
2679.84993	18186.3875
2682.476	18156.8875
2685.10043	18194.0875
2687.72324	18135.5875
2690.34441	18164.7875
2692.96396	18118.3875
2695.58188	18135.2875
2698.19818	18111.6875
2700.81285	18128.5875
2703.4259	18117.2875
2706.03733	18195.4875
2708.64714	18179.0875
2711.25533	18181.1875
2713.86191	18127.9875
2716.46687	18140.1875
2719.07021	18100.5875
2721.67194	18160.2875
2724.27206	18133.2875
2726.87057	18145.1875
2729.46747	18117.9875
2732.06276	18153.9875
2734.65644	18128.8875
2737.24852	18113.5875
2739.83899	18058.5875
2742.42786	18030.0875
2745.01513	17970.6875
2747.60079	17988.6875
2750.18486	17961.7875
2752.76733	17976.3875
2755.3482	17935.6875
2757.92747	17896.7875
2760.50515	17859.6875
2763.08123	17850.5875
2765.65573	17809.0875
2768.22863	17822.8875
2770.79994	17742.4875
2773.36967	17748.7875
2775.9378	17707.5875
2778.50435	17675.8875
2781.06932	17677.9875
2783.6327	17657.3875
2786.1945	17671.7875
2788.75471	17629.3875
2791.31335	17578.6875
2793.87041	17533.9875
2796.42589	17474.0875
2798.97979	17517.9875
2801.53212	17509.8875
2804.08288	17486.9875
2806.63206	17417.7875
2809.17967	17413.1875
2811.72571	17355.1875
2814.27018	17332.6875
2816.81308	17316.2875
2819.35442	17284.8875
2821.89419	17262.3875
2824.43239	17225.4875
2826.96904	17201.3875
2829.50412	17221.0875
2832.03763	17138.2875
2834.56959	17143.7875
2837.1	17098.0875
2839.62884	17116.1875
2842.15613	17069.6875
2844.68186	17095.2875
2847.20604	17037.2875
2849.72867	17015.6875
2852.24974	17010.8875
2854.76927	17000.5875
2857.28724	16983.2875
2859.80367	17029.0875
2862.31855	16988.8875
2864.83189	16988.0875
2867.34368	16947.7875
2869.85393	16945.2875
2872.36264	16910.8875
2874.8698	16898.1875
2877.37543	16855.6875
2879.87952	16862.4875
2882.38207	16842.2875
2884.88308	16830.0875
2887.38256	16830.2875
2889.88051	16801.9875
2892.37692	16816.5875
2894.8718	16842.5875
2897.36515	16813.8875
2899.85698	16796.8875
2902.34727	16832.9875
2904.83604	16834.2875
2907.32328	16889.5875
2909.809	16873.4875
2912.29319	16872.4875
2914.77587	16873.2875
2917.25702	16886.7875
2919.73665	16870.3875
2922.21476	16845.6875
2924.69136	16821.3875
2927.16644	16825.7875
2929.64	16779.5875
2932.11205	16777.6875
2934.58258	16695.5875
2937.05161	16681.7875
2939.51912	16647.9875
2941.98513	16670.4875
2944.44962	16637.6875
2946.91261	16577.5875
2949.37409	16602.5875
2951.83407	16591.1875
2954.29254	16600.6875
2956.74951	16583.7875
2959.20498	16575.4875
2961.65895	16600.7875
2964.11142	16603.8875
2966.56239	16583.5875
2969.01186	16560.3875
2971.45984	16502.3875
2973.90632	16521.6875
2976.35131	16483.7875
2978.7948	16455.0875
2981.23681	16441.3875
2983.67732	16438.2875
2986.11635	16426.8875
2988.55388	16395.7875
2990.98993	16349.6875
2993.4245	16326.0875
2995.85758	16252.3875
2998.28917	16223.0875
3000.71928	16215.4875
3003.14791	16156.6875
3005.57506	16153.1875
3008.00073	16108.1875
3010.42493	16096.3875
3012.84764	16034.1875
3015.26888	16086.4875
3017.68865	16016.2875
3020.10694	15997.6875
3022.52376	15983.5875
3024.9391	15931.3875
3027.35298	15906.4875
3029.76539	15910.3875
3032.17632	15892.9875
3034.5858	15860.2875
3036.9938	15852.2875
3039.40034	15862.1875
3041.80542	15797.8875
3044.20903	15762.1875
3046.61118	15755.6875
3049.01187	15686.0875
3051.4111	15657.6875
3053.80888	15668.8875
3056.20519	15633.6875
3058.60005	15599.7875
3060.99345	15560.4875
3063.3854	15536.7875
3065.7759	15500.5875
3068.16494	15440.4875
3070.55254	15448.9875
3072.93868	15401.5875
3075.32338	15370.8875
3077.70662	15352.5875
3080.08842	15272.2875
3082.46878	15291.5875
3084.84769	15265.5875
3087.22515	15240.6875
3089.60118	15252.4875
3091.97576	15260.5875
3094.3489	15239.3875
3096.72061	15244.7875
3099.09087	15228.7875
3101.4597	15230.4875
3103.82709	15231.4875
3106.19305	15249.4875
3108.55757	15190.3875
3110.92066	15160.1875
3113.28232	15163.3875
3115.64255	15140.4875
3118.00134	15108.2875
3120.35871	15100.1875
3122.71466	15032.8875
3125.06917	15033.1875
3127.42226	14966.1875
3129.77393	14983.4875
3132.12417	14942.7875
3134.47299	14929.5875
3136.82039	14944.1875
3139.16636	14926.5875
3141.51092	14905.7875
3143.85406	14932.9875
3146.19579	14914.9875
3148.53609	14924.6875
3150.87499	14938.8875
3153.21246	14933.5875
3155.54853	14936.9875
3157.88318	14922.9875
3160.21642	14961.1875
3162.54826	14959.3875
3164.87868	14960.7875
3167.2077	14975.4875
3169.5353	14958.7875
3171.86151	14942.6875
3174.18631	14900.1875
3176.5097	14868.1875
3178.83169	14856.9875
3181.15228	14878.6875
3183.47147	14839.6875
3185.78926	14801.6875
3188.10565	14782.8875
3190.42065	14776.6875
3192.73424	14767.9875
3195.04645	14737.0875
3197.35725	14719.2875
3199.66667	14722.1875
3201.97469	14726.5875
3204.28132	14694.2875
3206.58656	14719.2875
3208.8904	14689.8875
3211.19287	14733.1875
3213.49394	14723.7875
3215.79363	14728.8875
3218.09193	14759.2875
3220.38884	14740.6875
3222.68438	14757.7875
3224.97853	14771.5875
3227.2713	14755.0875
3229.56269	14764.6875
3231.8527	14733.7875
3234.14133	14726.1875
3236.42858	14658.3875
3238.71446	14662.3875
3240.99896	14618.5875
3243.28209	14608.8875
3245.56384	14565.2875
3247.84423	14543.2875
3250.12324	14535.5875
3252.40088	14494.8875
3254.67715	14495.8875
3256.95205	14483.1875
3259.22558	14474.7875
3261.49775	14471.7875
3263.76855	14495.9875
3266.03799	14454.4875
3268.30606	14432.9875
3270.57277	14407.7875
3272.83812	14355.5875
3275.10211	14342.8875
3277.36474	14288.9875
3279.62601	14312.9875
3281.88593	14288.3875
3284.14448	14304.7875
3286.40168	14332.5875
3288.65753	14303.5875
3290.91202	14279.3875
3293.16516	14253.8875
3295.41695	14224.7875
3297.66738	14179.9875
3299.91647	14114.9875
3302.16421	14033.1875
3304.4106	13980.1875
3306.65564	13882.2875
3308.89933	13793.9875
3311.14169	13692.6875
3313.38269	13598.2875
3315.62236	13557.6875
3317.86068	13432.3875
3320.09766	13335.9875
3322.3333	13254.7875
3324.5676	13216.5875
3326.80056	13046.9875
3329.03219	12967.0875
3331.26248	3.8875
3333.49143	-0.0125
3335.71905	1.3875
