Data from AgNPs_UA_1uM_CRN_0uM_R6G_10uM_Q_RamanShift__19__12-32-55-887.txt Node

Date: Wed Jul 13 12:32:55 BST 2022
User: TCL
Spectrometer: QEP01345
Trigger mode: 4
Integration Time (sec): 7.000000E0
Scans to average: 10
Electric dark correction enabled: true
Nonlinearity correction enabled: false
Boxcar width: 0
XAxis mode: Raman Shifts
Number of Pixels in Spectrum: 1044
>>>>>Begin Spectral Data<<<<<
46.04893	-1.4125
50.45542	-1.5125
54.85868	-1.7125
59.25871	0.1875
63.6555	85.6875
68.04907	93.1875
72.43941	96.3875
76.82654	99.7875
81.21044	105.0875
85.59113	105.5875
89.96862	110.6875
94.34289	117.4875
98.71396	115.2875
103.08183	119.5875
107.4465	130.3875
111.80798	125.1875
116.16626	129.2875
120.52136	136.2875
124.87327	140.9875
129.222	149.9875
133.56755	155.6875
137.90993	166.5875
142.24913	182.5875
146.58517	203.6875
150.91804	232.6875
155.24774	276.8875
159.57429	339.9875
163.89768	435.9875
168.21792	572.8875
172.53501	775.7875
176.84895	1085.1875
181.15975	1507.5875
185.46741	2125.1875
189.77193	2913.4875
194.07331	3855.7875
198.37157	4955.2875
202.6667	6083.1875
206.9587	7225.0875
211.24758	8325.1875
215.53334	9465.7875
219.81599	10672.2875
224.09553	12036.8875
228.37195	13533.0875
232.64527	15185.5875
236.91549	16875.5875
241.18261	18585.4875
245.44663	20120.9875
249.70755	21408.7875
253.96539	22579.3875
258.22014	23506.3875
262.4718	24355.4875
266.72039	24843.0875
270.96589	25057.1875
275.20832	25025.0875
279.44768	24778.5875
283.68397	24530.1875
287.91719	24316.5875
292.14735	24168.2875
296.37445	24187.4875
300.59849	24345.1875
304.81948	24564.5875
309.03742	24681.8875
313.25231	24651.5875
317.46415	24266.5875
321.67296	23758.1875
325.87872	23339.0875
330.08145	23167.0875
334.28114	23242.0875
338.47781	23478.3875
342.67145	23836.4875
346.86207	24263.8875
351.04966	24852.6875
355.23424	25392.9875
359.4158	25855.2875
363.59435	26180.0875
367.76989	26358.9875
371.94243	26511.7875
376.11196	26609.8875
380.27849	26702.3875
384.44203	26873.7875
388.60257	27010.2875
392.76012	27154.5875
396.91468	27481.2875
401.06626	27853.6875
405.21485	28181.3875
409.36047	28006.9875
413.50311	27627.5875
417.64277	27451.9875
421.77947	27509.5875
425.9132	27436.9875
430.04396	27584.9875
434.17176	27760.3875
438.2966	28171.0875
442.41849	28810.5875
446.53742	29606.0875
450.6534	30504.8875
454.76644	31028.8875
458.87653	31033.6875
462.98368	30599.3875
467.08789	30055.4875
471.18916	29497.8875
475.2875	28953.4875
479.38291	28562.1875
483.4754	28353.7875
487.56496	28062.5875
491.6516	27816.7875
495.73531	27643.7875
499.81612	27657.8875
503.89401	27782.3875
507.96899	27938.7875
512.04106	27973.7875
516.11023	27925.9875
520.1765	27877.4875
524.23987	27814.7875
528.30034	27766.2875
532.35792	27572.1875
536.41261	27227.3875
540.46441	26853.0875
544.51333	26806.3875
548.55936	27059.7875
552.60252	27588.8875
556.64279	28221.3875
560.6802	28561.7875
564.71473	28834.5875
568.7464	29299.0875
572.7752	29894.0875
576.80114	30288.3875
580.82422	30831.4875
584.84444	31652.7875
588.86181	32710.7875
592.87633	33965.5875
596.888	34473.6875
600.89682	34233.5875
604.9028	34914.5875
608.90594	37628.9875
612.90624	39792.0875
616.90371	36601.5875
620.89834	31180.2875
624.89015	29292.9875
628.87913	29184.0875
632.86528	29159.5875
636.84862	28816.8875
640.82913	28270.4875
644.80683	27595.2875
648.78172	27138.8875
652.75379	27233.1875
656.72306	27650.0875
660.68952	28037.4875
664.65319	27811.9875
668.61405	27344.0875
672.57211	27278.8875
676.52738	27257.0875
680.47986	27117.6875
684.42955	26931.5875
688.37646	26868.8875
692.32058	27092.4875
696.26192	27400.0875
700.20048	27771.2875
704.13626	27960.9875
708.06928	27829.7875
711.99952	27609.9875
715.927	27566.6875
719.85171	27673.1875
723.77365	27577.1875
727.69284	27292.6875
731.60928	27113.1875
735.52295	27174.0875
739.43388	27235.9875
743.34206	27362.8875
747.24749	27511.0875
751.15017	27689.7875
755.05012	28150.8875
758.94733	28904.6875
762.8418	30453.3875
766.73354	32837.2875
770.62254	34729.5875
774.50882	34859.9875
778.39237	33252.2875
782.27321	31082.2875
786.15132	29272.2875
790.02671	28203.7875
793.89938	27657.2875
797.76935	27495.6875
801.6366	27388.5875
805.50115	27317.8875
809.36299	27194.8875
813.22213	27028.4875
817.07857	26929.8875
820.93231	26835.8875
824.78336	26854.8875
828.63172	26835.4875
832.47738	26850.7875
836.32036	26911.7875
840.16066	27071.6875
843.99827	27186.5875
847.8332	27077.3875
851.66546	27046.8875
855.49504	27002.2875
859.32195	27023.8875
863.1462	26922.8875
866.96777	26843.8875
870.78668	26778.0875
874.60293	26806.3875
878.41652	26837.7875
882.22745	26985.9875
886.03573	27077.4875
889.84136	27039.5875
893.64433	26928.6875
897.44466	26828.4875
901.24235	26723.8875
905.0374	26635.1875
908.8298	26609.0875
912.61957	26652.2875
916.40671	26812.8875
920.19121	27192.1875
923.97308	27575.7875
927.75233	27787.4875
931.52895	27742.9875
935.30295	27363.8875
939.07433	26783.1875
942.84309	26449.1875
946.60924	26364.1875
950.37278	26303.4875
954.13371	26233.1875
957.89203	26043.3875
961.64774	25952.3875
965.40086	25906.2875
969.15137	25831.3875
972.89929	25756.4875
976.64461	25685.1875
980.38733	25780.9875
984.12747	25955.2875
987.86502	26225.3875
991.59999	26582.7875
995.33237	27222.4875
999.06217	28108.9875
1002.78939	28997.9875
1006.51404	29424.9875
1010.23611	29576.9875
1013.95561	29803.3875
1017.67255	29788.1875
1021.38692	29403.3875
1025.09872	29153.7875
1028.80796	29393.4875
1032.51465	30288.5875
1036.21877	30954.3875
1039.92035	30854.1875
1043.61937	30268.9875
1047.31584	29446.8875
1051.00976	28694.9875
1054.70114	28321.7875
1058.38998	28330.6875
1062.07627	28405.7875
1065.76003	28458.8875
1069.44126	28618.9875
1073.11995	28953.8875
1076.79611	29352.7875
1080.46974	29702.0875
1084.14085	30051.8875
1087.80943	30437.1875
1091.47549	30539.1875
1095.13903	30271.4875
1098.80005	29756.1875
1102.45857	29265.9875
1106.11456	28994.4875
1109.76805	28970.9875
1113.41903	29148.5875
1117.06751	29437.3875
1120.71348	29828.1875
1124.35696	30138.8875
1127.99793	30459.8875
1131.63641	30393.8875
1135.2724	30091.5875
1138.90589	29766.4875
1142.5369	29612.0875
1146.16542	29602.8875
1149.79145	29648.5875
1153.415	29868.2875
1157.03607	30136.5875
1160.65467	30790.2875
1164.27079	31856.6875
1167.88443	33450.1875
1171.49561	35593.1875
1175.10432	38453.1875
1178.71056	42046.8875
1182.31434	44928.6875
1185.91565	45940.8875
1189.51451	44937.3875
1193.11091	42814.4875
1196.70485	40627.1875
1200.29634	38844.0875
1203.88538	37578.9875
1207.47197	36611.4875
1211.05612	36007.5875
1214.63782	35570.4875
1218.21708	35511.8875
1221.79391	35793.7875
1225.36829	36132.2875
1228.94024	35715.3875
1232.50976	34776.6875
1236.07685	33907.7875
1239.6415	33371.8875
1243.20374	33212.9875
1246.76355	33417.8875
1250.32093	33847.7875
1253.8759	34546.0875
1257.42845	35463.0875
1260.97859	36445.4875
1264.52631	37463.1875
1268.07163	38516.5875
1271.61453	39699.2875
1275.15503	40881.7875
1278.69312	42119.1875
1282.22882	43115.3875
1285.76211	44091.2875
1289.29301	45055.3875
1292.82151	46334.5875
1296.34761	48152.0875
1299.87133	50666.9875
1303.39266	54000.6875
1306.9116	58137.8875
1310.42815	62485.7875
1313.94233	65180.4875
1317.45412	65116.2875
1320.96354	62971.7875
1324.47058	60348.4875
1327.97525	57942.2875
1331.47754	56076.5875
1334.97747	54929.7875
1338.47502	54225.4875
1341.97022	53787.3875
1345.46305	53423.1875
1348.95352	53223.3875
1352.44163	53613.5875
1355.92738	55488.3875
1359.41078	58846.4875
1362.89183	61675.2875
1366.37053	60402.6875
1369.84688	54946.0875
1373.32088	48712.8875
1376.79254	44583.4875
1380.26186	42924.5875
1383.72883	42586.0875
1387.19347	42440.7875
1390.65578	41870.1875
1394.11575	41757.0875
1397.57339	42364.2875
1401.0287	43267.1875
1404.48168	44071.8875
1407.93234	44152.2875
1411.38068	43559.1875
1414.82669	42339.4875
1418.27039	40940.6875
1421.71177	39539.2875
1425.15083	38423.8875
1428.58758	37976.2875
1432.02203	38384.0875
1435.45416	39359.1875
1438.88399	40430.3875
1442.31151	41169.1875
1445.73673	41661.9875
1449.15965	41905.6875
1452.58027	42029.0875
1455.9986	41834.3875
1459.41463	41981.0875
1462.82837	42657.4875
1466.23982	43621.1875
1469.64898	44414.0875
1473.05586	44919.9875
1476.46045	44973.0875
1479.86276	44761.8875
1483.26279	44291.3875
1486.66054	43992.4875
1490.05602	44060.8875
1493.44922	44209.0875
1496.84016	44534.1875
1500.22882	45443.5875
1503.61521	46812.1875
1506.99934	48778.4875
1510.38121	50392.4875
1513.76081	50829.5875
1517.13816	49471.1875
1520.51324	47063.2875
1523.88607	44860.0875
1527.25665	43676.9875
1530.62498	43089.6875
1533.99105	42802.1875
1537.35488	42502.2875
1540.71647	42059.3875
1544.07581	41434.6875
1547.4329	40884.4875
1550.78776	40245.2875
1554.14038	39730.0875
1557.49077	39436.9875
1560.83892	39327.3875
1564.18484	39359.0875
1567.52853	39529.5875
1570.86999	39897.6875
1574.20922	40270.7875
1577.54624	40434.2875
1580.88103	40077.7875
1584.2136	39880.3875
1587.54395	40857.3875
1590.87208	43111.4875
1594.19801	46526.1875
1597.52172	50031.5875
1600.84321	51176.1875
1604.16251	49033.2875
1607.47959	45189.2875
1610.79447	41115.6875
1614.10715	37509.5875
1617.41763	34834.2875
1620.7259	33082.2875
1624.03199	32193.6875
1627.33587	32303.3875
1630.63757	33378.0875
1633.93707	35538.4875
1637.23439	39096.7875
1640.52951	44104.1875
1643.82246	49517.9875
1647.11321	53332.0875
1650.40179	53240.5875
1653.68819	48925.8875
1656.97241	42359.5875
1660.25446	36421.6875
1663.53433	32286.9875
1666.81203	29744.2875
1670.08756	28191.6875
1673.36092	27209.6875
1676.63211	26552.3875
1679.90115	26052.9875
1683.16801	25709.1875
1686.43272	25477.3875
1689.69527	25294.6875
1692.95567	25081.2875
1696.2139	25020.4875
1699.46999	24972.7875
1702.72392	24917.6875
1705.97571	24906.9875
1709.22535	24897.4875
1712.47284	24884.9875
1715.71819	24840.1875
1718.96139	24801.8875
1722.20246	24741.0875
1725.44139	24605.0875
1728.67818	24509.8875
1731.91284	24410.8875
1735.14537	24308.4875
1738.37576	24209.1875
1741.60403	24084.7875
1744.83017	24068.8875
1748.05418	24001.3875
1751.27607	23954.1875
1754.49584	23894.0875
1757.71349	23911.0875
1760.92903	23913.6875
1764.14244	23860.0875
1767.35375	23832.8875
1770.56294	23800.1875
1773.77002	23783.7875
1776.97499	23816.2875
1780.17785	23758.6875
1783.37861	23719.8875
1786.57727	23647.9875
1789.77382	23607.9875
1792.96828	23599.8875
1796.16064	23589.9875
1799.3509	23536.0875
1802.53907	23529.9875
1805.72514	23467.9875
1808.90913	23452.6875
1812.09102	23386.7875
1815.27083	23304.6875
1818.44856	23284.2875
1821.6242	23244.8875
1824.79776	23219.0875
1827.96924	23198.3875
1831.13864	23172.3875
1834.30597	23158.7875
1837.47122	23116.5875
1840.6344	23136.1875
1843.7955	23139.6875
1846.95454	23110.7875
1850.11151	23118.9875
1853.26642	23104.7875
1856.41926	23090.3875
1859.57004	23065.1875
1862.71876	23068.9875
1865.86542	23116.2875
1869.01003	23113.9875
1872.15258	23049.3875
1875.29308	23056.1875
1878.43152	22998.7875
1881.56792	23053.6875
1884.70227	23034.1875
1887.83457	23040.7875
1890.96482	23001.6875
1894.09304	22975.9875
1897.21921	22947.4875
1900.34335	22989.7875
1903.46544	22951.2875
1906.58551	22919.3875
1909.70353	22956.5875
1912.81953	22962.0875
1915.93349	22897.1875
1919.04543	22867.0875
1922.15534	22821.5875
1925.26322	22800.1875
1928.36908	22732.6875
1931.47292	22721.1875
1934.57473	22648.0875
1937.67453	22595.0875
1940.77232	22510.1875
1943.86808	22444.0875
1946.96184	22476.3875
1950.05358	22378.4875
1953.14331	22334.2875
1956.23103	22262.4875
1959.31675	22154.2875
1962.40046	22130.8875
1965.48217	22075.7875
1968.56188	21996.1875
1971.63959	21966.6875
1974.7153	21948.4875
1977.78901	21853.4875
1980.86073	21769.8875
1983.93046	21749.9875
1986.99819	21660.0875
1990.06394	21583.1875
1993.1277	21567.8875
1996.18947	21495.0875
1999.24925	21459.6875
2002.30706	21411.0875
2005.36288	21334.9875
2008.41672	21306.9875
2011.46859	21252.8875
2014.51848	21166.5875
2017.56639	21148.3875
2020.61233	21104.8875
2023.6563	21032.3875
2026.6983	21006.6875
2029.73833	20984.2875
2032.7764	20982.6875
2035.8125	20936.5875
2038.84664	20890.2875
2041.87881	20915.6875
2044.90903	20851.9875
2047.93729	20816.0875
2050.96359	20826.0875
2053.98794	20804.7875
2057.01034	20763.9875
2060.03078	20769.2875
2063.04927	20759.6875
2066.06582	20738.5875
2069.08042	20759.6875
2072.09307	20722.2875
2075.10378	20674.4875
2078.11255	20659.7875
2081.11938	20646.3875
2084.12426	20652.1875
2087.12722	20619.7875
2090.12824	20628.9875
2093.12732	20646.4875
2096.12447	20636.0875
2099.11969	20621.9875
2102.11299	20616.0875
2105.10435	20664.0875
2108.09379	20681.8875
2111.08131	20692.9875
2114.0669	20685.8875
2117.05057	20708.1875
2120.03233	20758.8875
2123.01216	20810.4875
2125.99008	20809.2875
2128.96609	20818.1875
2131.94018	20846.0875
2134.91236	20847.5875
2137.88263	20900.4875
2140.851	20905.0875
2143.81746	20929.3875
2146.78201	20943.8875
2149.74466	20966.2875
2152.7054	20999.0875
2155.66425	20962.0875
2158.6212	20967.0875
2161.57625	20913.4875
2164.52941	20959.4875
2167.48067	20954.7875
2170.43004	20964.7875
2173.37752	20950.4875
2176.32311	21018.5875
2179.26681	21017.6875
2182.20863	20982.2875
2185.14856	21018.9875
2188.08661	21047.8875
2191.02278	21034.3875
2193.95707	21036.5875
2196.88948	21051.2875
2199.82001	21048.0875
2202.74867	21015.2875
2205.67545	21053.1875
2208.60037	21024.4875
2211.52341	21014.3875
2214.44458	20980.4875
2217.36388	20941.7875
2220.28132	20944.7875
2223.1969	20905.9875
2226.11061	20932.1875
2229.02246	20870.4875
2231.93245	20827.8875
2234.84058	20797.5875
2237.74686	20758.6875
2240.65128	20755.1875
2243.55385	20745.9875
2246.45456	20731.0875
2249.35343	20692.3875
2252.25044	20692.9875
2255.14561	20614.7875
2258.03893	20614.7875
2260.93041	20581.0875
2263.82004	20532.8875
2266.70783	20506.2875
2269.59378	20462.2875
2272.4779	20445.6875
2275.36017	20390.0875
2278.24061	20327.1875
2281.11922	20281.1875
2283.996	20304.8875
2286.87094	20236.9875
2289.74405	20264.8875
2292.61534	20229.4875
2295.4848	20199.9875
2298.35243	20225.3875
2301.21824	20250.6875
2304.08223	20275.4875
2306.94439	20280.8875
2309.80474	20282.4875
2312.66327	20362.2875
2315.51999	20343.6875
2318.37489	20337.1875
2321.22797	20323.9875
2324.07925	20290.5875
2326.92871	20298.4875
2329.77637	20269.6875
2332.62222	20267.2875
2335.46626	20259.5875
2338.3085	20269.4875
2341.14893	20270.8875
2343.98756	20260.7875
2346.8244	20238.5875
2349.65943	20290.6875
2352.49267	20303.5875
2355.32411	20347.0875
2358.15376	20325.2875
2360.98161	20304.4875
2363.80768	20243.4875
2366.63195	20249.5875
2369.45444	20231.2875
2372.27514	20195.8875
2375.09405	20144.4875
2377.91118	20142.3875
2380.72652	20071.6875
2383.54009	20039.8875
2386.35187	19997.9875
2389.16188	19979.1875
2391.97011	19924.9875
2394.77657	19955.1875
2397.58125	19932.0875
2400.38416	19893.7875
2403.18529	19836.1875
2405.98466	19836.2875
2408.78226	19783.1875
2411.57809	19780.8875
2414.37216	19757.8875
2417.16446	19762.3875
2419.955	19699.2875
2422.74378	19687.1875
2425.5308	19681.5875
2428.31606	19697.1875
2431.09956	19726.4875
2433.88131	19698.6875
2436.6613	19707.7875
2439.43954	19684.6875
2442.21603	19656.6875
2444.99077	19695.7875
2447.76377	19707.4875
2450.53501	19694.3875
2453.30451	19699.5875
2456.07226	19629.7875
2458.83827	19633.5875
2461.60254	19656.0875
2464.36507	19643.0875
2467.12586	19670.8875
2469.88492	19663.2875
2472.64224	19694.1875
2475.39782	19667.4875
2478.15167	19709.2875
2480.90379	19680.4875
2483.65417	19714.6875
2486.40283	19692.9875
2489.14976	19780.1875
2491.89497	19760.3875
2494.63845	19773.8875
2497.3802	19791.1875
2500.12024	19788.4875
2502.85855	19767.1875
2505.59514	19765.0875
2508.33002	19741.7875
2511.06318	19720.7875
2513.79462	19676.8875
2516.52435	19665.8875
2519.25237	19673.3875
2521.97867	19648.2875
2524.70327	19658.8875
2527.42616	19637.3875
2530.14734	19644.6875
2532.86681	19659.5875
2535.58458	19670.7875
2538.30065	19665.5875
2541.01501	19665.5875
2543.72768	19643.0875
2546.43864	19657.6875
2549.14791	19628.8875
2551.85548	19638.8875
2554.56136	19565.3875
2557.26554	19556.0875
2559.96803	19561.3875
2562.66883	19520.0875
2565.36794	19492.8875
2568.06536	19465.5875
2570.7611	19488.1875
2573.45514	19512.2875
2576.14751	19506.6875
2578.83819	19484.1875
2581.52719	19484.0875
2584.21451	19487.0875
2586.90015	19506.4875
2589.58411	19499.2875
2592.2664	19488.2875
2594.94701	19459.9875
2597.62594	19448.9875
2600.30321	19419.2875
2602.9788	19430.3875
2605.65273	19417.2875
2608.32498	19425.4875
2610.99557	19409.1875
2613.66449	19445.5875
2616.33175	19463.8875
2618.99734	19474.8875
2621.66128	19458.3875
2624.32355	19466.4875
2626.98416	19493.5875
2629.64311	19504.6875
2632.30041	19521.2875
2634.95605	19502.8875
2637.61004	19480.8875
2640.26238	19445.2875
2642.91306	19396.6875
2645.56209	19361.9875
2648.20948	19326.8875
2650.85521	19347.1875
2653.4993	19332.9875
2656.14175	19329.7875
2658.78255	19383.8875
2661.42171	19414.8875
2664.05923	19413.6875
2666.6951	19430.0875
2669.32934	19458.7875
2671.96194	19399.2875
2674.59291	19443.7875
2677.22224	19473.4875
2679.84993	19454.1875
2682.476	19435.4875
2685.10043	19473.9875
2687.72324	19407.1875
2690.34441	19393.8875
2692.96396	19381.6875
2695.58188	19395.8875
2698.19818	19373.6875
2700.81285	19385.2875
2703.4259	19357.8875
2706.03733	19382.3875
2708.64714	19418.6875
2711.25533	19447.9875
2713.86191	19444.1875
2716.46687	19466.3875
2719.07021	19481.4875
2721.67194	19496.6875
2724.27206	19489.5875
2726.87057	19547.0875
2729.46747	19592.1875
2732.06276	19553.6875
2734.65644	19587.0875
2737.24852	19595.2875
2739.83899	19534.0875
2742.42786	19546.4875
2745.01513	19517.9875
2747.60079	19513.4875
2750.18486	19484.3875
2752.76733	19454.9875
2755.3482	19475.7875
2757.92747	19528.7875
2760.50515	19488.5875
2763.08123	19500.9875
2765.65573	19473.9875
2768.22863	19483.2875
2770.79994	19479.7875
2773.36967	19494.0875
2775.9378	19447.6875
2778.50435	19497.3875
2781.06932	19488.7875
2783.6327	19479.3875
2786.1945	19453.8875
2788.75471	19424.1875
2791.31335	19409.5875
2793.87041	19455.7875
2796.42589	19363.2875
2798.97979	19376.1875
2801.53212	19302.4875
2804.08288	19300.7875
2806.63206	19241.3875
2809.17967	19211.6875
2811.72571	19169.0875
2814.27018	19178.6875
2816.81308	19190.3875
2819.35442	19114.3875
2821.89419	19104.3875
2824.43239	19119.0875
2826.96904	19074.8875
2829.50412	19073.0875
2832.03763	19042.1875
2834.56959	19036.2875
2837.1	18990.8875
2839.62884	19018.9875
2842.15613	19011.0875
2844.68186	19020.5875
2847.20604	18988.3875
2849.72867	18997.3875
2852.24974	19015.8875
2854.76927	19005.0875
2857.28724	18972.9875
2859.80367	18998.3875
2862.31855	18945.7875
2864.83189	18959.7875
2867.34368	18910.7875
2869.85393	18902.1875
2872.36264	18868.0875
2874.8698	18923.4875
2877.37543	18868.2875
2879.87952	18855.2875
2882.38207	18894.1875
2884.88308	18856.3875
2887.38256	18879.2875
2889.88051	18872.0875
2892.37692	18870.6875
2894.8718	18924.3875
2897.36515	18961.5875
2899.85698	18952.8875
2902.34727	19036.6875
2904.83604	19039.0875
2907.32328	19050.2875
2909.809	19116.0875
2912.29319	19110.4875
2914.77587	19136.6875
2917.25702	19132.2875
2919.73665	19136.1875
2922.21476	19123.9875
2924.69136	19079.9875
2927.16644	19090.0875
2929.64	19049.4875
2932.11205	19039.4875
2934.58258	18978.9875
2937.05161	19021.7875
2939.51912	19040.3875
2941.98513	19007.7875
2944.44962	18988.8875
2946.91261	18929.8875
2949.37409	18958.4875
2951.83407	19000.2875
2954.29254	18967.7875
2956.74951	18996.8875
2959.20498	18995.7875
2961.65895	18969.0875
2964.11142	18975.7875
2966.56239	18968.3875
2969.01186	19036.3875
2971.45984	18967.0875
2973.90632	18963.0875
2976.35131	18887.9875
2978.7948	18878.9875
2981.23681	18809.7875
2983.67732	18808.6875
2986.11635	18747.8875
2988.55388	18722.2875
2990.98993	18662.7875
2993.4245	18614.7875
2995.85758	18583.0875
2998.28917	18570.1875
3000.71928	18555.2875
3003.14791	18485.2875
3005.57506	18499.9875
3008.00073	18484.3875
3010.42493	18450.4875
3012.84764	18446.5875
3015.26888	18409.7875
3017.68865	18358.6875
3020.10694	18370.4875
3022.52376	18334.1875
3024.9391	18322.2875
3027.35298	18318.8875
3029.76539	18305.5875
3032.17632	18319.4875
3034.5858	18290.3875
3036.9938	18262.3875
3039.40034	18272.4875
3041.80542	18242.9875
3044.20903	18195.8875
3046.61118	18250.3875
3049.01187	18161.2875
3051.4111	18211.9875
3053.80888	18166.3875
3056.20519	18167.7875
3058.60005	18141.8875
3060.99345	18092.0875
3063.3854	18069.9875
3065.7759	17986.0875
3068.16494	17972.3875
3070.55254	17899.5875
3072.93868	17843.3875
3075.32338	17817.6875
3077.70662	17827.3875
3080.08842	17798.4875
3082.46878	17784.7875
3084.84769	17749.4875
3087.22515	17722.0875
3089.60118	17766.8875
3091.97576	17749.5875
3094.3489	17792.7875
3096.72061	17760.5875
3099.09087	17767.6875
3101.4597	17788.7875
3103.82709	17789.0875
3106.19305	17784.4875
3108.55757	17759.3875
3110.92066	17720.9875
3113.28232	17690.8875
3115.64255	17707.3875
3118.00134	17671.9875
3120.35871	17672.6875
3122.71466	17629.4875
3125.06917	17594.6875
3127.42226	17571.2875
3129.77393	17621.4875
3132.12417	17521.8875
3134.47299	17521.3875
3136.82039	17488.8875
3139.16636	17544.6875
3141.51092	17537.0875
3143.85406	17521.5875
3146.19579	17502.0875
3148.53609	17533.6875
3150.87499	17520.0875
3153.21246	17519.8875
3155.54853	17569.9875
3157.88318	17514.7875
3160.21642	17591.2875
3162.54826	17576.3875
3164.87868	17578.0875
3167.2077	17563.1875
3169.5353	17590.3875
3171.86151	17578.7875
3174.18631	17577.5875
3176.5097	17567.5875
3178.83169	17552.3875
3181.15228	17545.3875
3183.47147	17512.5875
3185.78926	17500.3875
3188.10565	17466.2875
3190.42065	17482.5875
3192.73424	17536.6875
3195.04645	17480.3875
3197.35725	17492.9875
3199.66667	17460.5875
3201.97469	17459.5875
3204.28132	17474.3875
3206.58656	17509.4875
3208.8904	17446.2875
3211.19287	17518.9875
3213.49394	17458.3875
3215.79363	17479.7875
3218.09193	17541.2875
3220.38884	17538.4875
3222.68438	17562.1875
3224.97853	17526.4875
3227.2713	17526.1875
3229.56269	17536.3875
3231.8527	17511.9875
3234.14133	17518.4875
3236.42858	17495.6875
3238.71446	17507.2875
3240.99896	17443.3875
3243.28209	17421.7875
3245.56384	17394.1875
3247.84423	17391.8875
3250.12324	17379.8875
3252.40088	17357.4875
3254.67715	17338.6875
3256.95205	17349.3875
3259.22558	17358.2875
3261.49775	17370.2875
3263.76855	17318.0875
3266.03799	17340.1875
3268.30606	17314.2875
3270.57277	17308.5875
3272.83812	17275.8875
3275.10211	17245.2875
3277.36474	17187.3875
3279.62601	17246.3875
3281.88593	17191.9875
3284.14448	17229.4875
3286.40168	17213.6875
3288.65753	17237.4875
3290.91202	17189.9875
3293.16516	17202.6875
3295.41695	17172.2875
3297.66738	17074.3875
3299.91647	17021.6875
3302.16421	16900.6875
3304.4106	16857.1875
3306.65564	16774.2875
3308.89933	16672.6875
3311.14169	16588.7875
3313.38269	16489.5875
3315.62236	16399.9875
3317.86068	16226.7875
3320.09766	16112.5875
3322.3333	16020.1875
3324.5676	15945.0875
3326.80056	15739.5875
3329.03219	15653.3875
3331.26248	3.9875
3333.49143	1.3875
3335.71905	-0.3125
