Data from AgNPs_UA_20uM_CRN_0uM_R6G_10uM_Q_RamanShift__22__13-02-02-030.txt Node

Date: Mon Jul 18 13:02:02 BST 2022
User: TCL
Spectrometer: QEP01345
Trigger mode: 4
Integration Time (sec): 7.000000E0
Scans to average: 10
Electric dark correction enabled: true
Nonlinearity correction enabled: false
Boxcar width: 0
XAxis mode: Raman Shifts
Number of Pixels in Spectrum: 1044
>>>>>Begin Spectral Data<<<<<
46.04893	-0.975
50.45542	-1.475
54.85868	-0.375
59.25871	-1.175
63.6555	126.125
68.04907	132.125
72.43941	139.325
76.82654	141.625
81.21044	152.025
85.59113	153.025
89.96862	157.525
94.34289	163.625
98.71396	172.825
103.08183	177.225
107.4465	176.825
111.80798	185.425
116.16626	191.625
120.52136	201.025
124.87327	205.025
129.222	216.225
133.56755	228.625
137.90993	250.525
142.24913	275.325
146.58517	312.525
150.91804	363.525
155.24774	431.625
159.57429	541.225
163.89768	703.325
168.21792	928.725
172.53501	1256.925
176.84895	1751.925
181.15975	2459.025
185.46741	3470.325
189.77193	4751.725
194.07331	6324.325
198.37157	8104.425
202.6667	9966.425
206.9587	11810.425
211.24758	13627.525
215.53334	15457.325
219.81599	17451.725
224.09553	19670.025
228.37195	22145.925
232.64527	24856.425
236.91549	27630.525
241.18261	30377.625
245.44663	32875.525
249.70755	35120.425
253.96539	37052.125
258.22014	38706.725
262.4718	40057.025
266.72039	41043.125
270.96589	41538.525
275.20832	41578.025
279.44768	41300.825
283.68397	40876.125
287.91719	40576.825
292.14735	40460.425
296.37445	40504.525
300.59849	40816.025
304.81948	41135.125
309.03742	41265.725
313.25231	40919.425
317.46415	40047.725
321.67296	38886.025
325.87872	38051.625
330.08145	37704.125
334.28114	37820.425
338.47781	38236.325
342.67145	38810.925
346.86207	39556.225
351.04966	40513.425
355.23424	41542.625
359.4158	42460.425
363.59435	43077.125
367.76989	43505.425
371.94243	43722.725
376.11196	43850.225
380.27849	44024.925
384.44203	44232.725
388.60257	44356.425
392.76012	44565.925
396.91468	45047.825
401.06626	45730.225
405.21485	46155.025
409.36047	45860.625
413.50311	45084.025
417.64277	44505.125
421.77947	44315.125
425.9132	44440.325
430.04396	44725.025
434.17176	45156.125
438.2966	45779.425
442.41849	46821.925
446.53742	48194.825
450.6534	49686.925
454.76644	50656.225
458.87653	50805.825
462.98368	50303.925
467.08789	49566.625
471.18916	48659.525
475.2875	47909.925
479.38291	47281.825
483.4754	46718.525
487.56496	46096.125
491.6516	45562.925
495.73531	45213.425
499.81612	45077.225
503.89401	45334.525
507.96899	45481.425
512.04106	45552.625
516.11023	45581.525
520.1765	45531.125
524.23987	45440.225
528.30034	45249.225
532.35792	44935.125
536.41261	44481.825
540.46441	44056.325
544.51333	44199.325
548.55936	44730.225
552.60252	45597.325
556.64279	46542.625
560.6802	47074.025
564.71473	47472.225
568.7464	48205.025
572.7752	48922.525
576.80114	49205.725
580.82422	49443.125
584.84444	50064.225
588.86181	50957.925
592.87633	52152.125
596.888	52866.425
600.89682	53309.025
604.9028	55820.025
608.90594	61959.925
612.90624	67025.925
616.90371	61425.225
620.89834	51378.325
624.89015	47766.525
628.87913	47536.825
632.86528	47368.325
636.84862	46859.425
640.82913	46028.125
644.80683	44703.925
648.78172	43940.425
652.75379	44018.625
656.72306	44790.925
660.68952	45750.925
664.65319	45346.625
668.61405	44550.525
672.57211	44393.525
676.52738	44374.725
680.47986	44278.025
684.42955	44148.725
688.37646	44175.225
692.32058	44439.725
696.26192	44820.225
700.20048	45309.625
704.13626	45524.825
708.06928	45276.325
711.99952	45003.925
715.927	44795.025
719.85171	44937.825
723.77365	44815.725
727.69284	44439.725
731.60928	44180.325
735.52295	44242.825
739.43388	44407.025
743.34206	44614.325
747.24749	44762.625
751.15017	45091.225
755.05012	45755.825
758.94733	47314.325
762.8418	50284.825
766.73354	54666.625
770.62254	58322.025
774.50882	58946.825
778.39237	55959.525
782.27321	51471.625
786.15132	47869.225
790.02671	45867.125
793.89938	44854.125
797.76935	44536.225
801.6366	44420.425
805.50115	44280.825
809.36299	44038.125
813.22213	43714.225
817.07857	43598.025
820.93231	43567.225
824.78336	43587.825
828.63172	43629.925
832.47738	43739.925
836.32036	43820.225
840.16066	44031.325
843.99827	44188.825
847.8332	44065.625
851.66546	43903.925
855.49504	43900.225
859.32195	43853.325
863.1462	43616.325
866.96777	43516.725
870.78668	43467.025
874.60293	43418.325
878.41652	43527.725
882.22745	43671.925
886.03573	43760.325
889.84136	43737.125
893.64433	43562.425
897.44466	43370.025
901.24235	43187.425
905.0374	43106.925
908.8298	43085.525
912.61957	43114.925
916.40671	43492.725
920.19121	44065.825
923.97308	44622.825
927.75233	44947.725
931.52895	44923.925
935.30295	44397.325
939.07433	43541.825
942.84309	43021.925
946.60924	42781.925
950.37278	42645.125
954.13371	42407.725
957.89203	42217.725
961.64774	42075.525
965.40086	41944.425
969.15137	41835.525
972.89929	41773.225
976.64461	41735.925
980.38733	41858.825
984.12747	42132.825
987.86502	42560.625
991.59999	43138.825
995.33237	44061.525
999.06217	45683.125
1002.78939	47291.025
1006.51404	48029.025
1010.23611	48248.125
1013.95561	48513.125
1017.67255	48637.425
1021.38692	48290.525
1025.09872	48127.625
1028.80796	48956.025
1032.51465	50615.925
1036.21877	51880.225
1039.92035	51753.825
1043.61937	50625.525
1047.31584	48991.525
1051.00976	47484.725
1054.70114	46747.725
1058.38998	46642.525
1062.07627	46692.025
1065.76003	46703.725
1069.44126	46956.525
1073.11995	47373.725
1076.79611	47809.725
1080.46974	48201.225
1084.14085	48773.525
1087.80943	49329.325
1091.47549	49478.225
1095.13903	48986.125
1098.80005	48032.425
1102.45857	47367.825
1106.11456	47140.925
1109.76805	47366.525
1113.41903	47925.925
1117.06751	48629.525
1120.71348	49348.325
1124.35696	50009.625
1127.99793	50505.825
1131.63641	50450.025
1135.2724	49744.425
1138.90589	49191.825
1142.5369	48791.325
1146.16542	48660.425
1149.79145	48776.425
1153.415	49141.625
1157.03607	49799.025
1160.65467	50908.325
1164.27079	52785.725
1167.88443	55321.825
1171.49561	58900.725
1175.10432	63815.425
1178.71056	69762.525
1182.31434	74886.825
1185.91565	76997.325
1189.51451	76001.425
1193.11091	72838.125
1196.70485	69092.925
1200.29634	66009.725
1203.88538	63488.025
1207.47197	61332.225
1211.05612	59519.425
1214.63782	58645.625
1218.21708	58724.425
1221.79391	59057.825
1225.36829	59256.125
1228.94024	58606.025
1232.50976	57298.525
1236.07685	56326.825
1239.6415	56008.225
1243.20374	56082.425
1246.76355	56490.425
1250.32093	57385.625
1253.8759	58635.425
1257.42845	60156.525
1260.97859	61622.225
1264.52631	63113.725
1268.07163	64643.025
1271.61453	66364.025
1275.15503	68400.325
1278.69312	70508.825
1282.22882	72086.225
1285.76211	73504.825
1289.29301	75033.825
1292.82151	76907.725
1296.34761	79685.125
1299.87133	83777.425
1303.39266	89311.025
1306.9116	96102.225
1310.42815	102756.425
1313.94233	106460.925
1317.45412	105889.725
1320.96354	102386.925
1324.47058	98348.525
1327.97525	94720.725
1331.47754	92173.125
1334.97747	91364.825
1338.47502	91592.225
1341.97022	92324.425
1345.46305	92730.525
1348.95352	92793.125
1352.44163	93441.125
1355.92738	96328.225
1359.41078	101929.125
1362.89183	106280.225
1366.37053	102867.125
1369.84688	92849.625
1373.32088	82645.025
1376.79254	75998.025
1380.26186	72958.725
1383.72883	71779.225
1387.19347	71079.425
1390.65578	70191.125
1394.11575	69988.825
1397.57339	70584.325
1401.0287	71808.125
1404.48168	73076.725
1407.93234	73729.925
1411.38068	73532.325
1414.82669	72408.725
1418.27039	70225.725
1421.71177	67904.525
1425.15083	65867.125
1428.58758	64768.025
1432.02203	65000.525
1435.45416	66118.225
1438.88399	67253.925
1442.31151	68232.625
1445.73673	69031.925
1449.15965	69657.625
1452.58027	69949.925
1455.9986	69896.925
1459.41463	70061.325
1462.82837	70957.725
1466.23982	72261.625
1469.64898	73593.625
1473.05586	74398.925
1476.46045	74773.325
1479.86276	74686.225
1483.26279	74560.925
1486.66054	74622.925
1490.05602	75144.525
1493.44922	75895.425
1496.84016	77147.925
1500.22882	79246.225
1503.61521	82515.025
1506.99934	86453.925
1510.38121	89485.225
1513.76081	89788.125
1517.13816	86726.025
1520.51324	82059.925
1523.88607	77967.025
1527.25665	75570.325
1530.62498	74455.225
1533.99105	73820.425
1537.35488	73311.225
1540.71647	72797.325
1544.07581	72080.025
1547.4329	70995.525
1550.78776	69911.825
1554.14038	69139.625
1557.49077	68725.525
1560.83892	68539.125
1564.18484	68642.425
1567.52853	68881.025
1570.86999	69254.025
1574.20922	69855.025
1577.54624	70147.425
1580.88103	69475.225
1584.2136	69102.325
1587.54395	70301.225
1590.87208	73393.825
1594.19801	78453.825
1597.52172	83549.225
1600.84321	85374.125
1604.16251	82400.625
1607.47959	76625.225
1610.79447	70265.925
1614.10715	64552.825
1617.41763	60218.525
1620.7259	57233.425
1624.03199	55869.525
1627.33587	56074.625
1630.63757	57677.025
1633.93707	61005.625
1637.23439	66019.225
1640.52951	72442.425
1643.82246	79414.125
1647.11321	84338.425
1650.40179	84499.325
1653.68819	78592.225
1656.97241	69253.925
1660.25446	60377.325
1663.53433	54043.925
1666.81203	50124.425
1670.08756	47522.325
1673.36092	45866.525
1676.63211	44812.825
1679.90115	43988.125
1683.16801	43373.025
1686.43272	42871.825
1689.69527	42534.825
1692.95567	42247.825
1696.2139	42057.225
1699.46999	41905.725
1702.72392	41839.525
1705.97571	41739.125
1709.22535	41663.725
1712.47284	41692.225
1715.71819	41637.525
1718.96139	41529.725
1722.20246	41363.425
1725.44139	41236.025
1728.67818	41002.425
1731.91284	40830.725
1735.14537	40680.825
1738.37576	40494.225
1741.60403	40358.325
1744.83017	40267.725
1748.05418	40185.925
1751.27607	40076.525
1754.49584	40045.825
1757.71349	39992.725
1760.92903	40000.525
1764.14244	39913.325
1767.35375	39877.825
1770.56294	39853.625
1773.77002	39837.525
1776.97499	39820.425
1780.17785	39676.725
1783.37861	39694.725
1786.57727	39584.225
1789.77382	39509.625
1792.96828	39530.325
1796.16064	39448.425
1799.3509	39413.825
1802.53907	39309.625
1805.72514	39257.025
1808.90913	39213.825
1812.09102	39168.325
1815.27083	39025.625
1818.44856	39046.025
1821.6242	39018.725
1824.79776	38920.125
1827.96924	38861.325
1831.13864	38816.125
1834.30597	38817.925
1837.47122	38830.525
1840.6344	38778.925
1843.7955	38757.225
1846.95454	38720.225
1850.11151	38764.925
1853.26642	38771.325
1856.41926	38778.125
1859.57004	38787.625
1862.71876	38789.325
1865.86542	38831.125
1869.01003	38839.625
1872.15258	38752.425
1875.29308	38796.125
1878.43152	38761.725
1881.56792	38686.525
1884.70227	38699.925
1887.83457	38707.725
1890.96482	38684.825
1894.09304	38654.225
1897.21921	38726.425
1900.34335	38636.725
1903.46544	38523.325
1906.58551	38552.325
1909.70353	38527.925
1912.81953	38527.625
1915.93349	38522.125
1919.04543	38410.025
1922.15534	38328.225
1925.26322	38317.725
1928.36908	38323.225
1931.47292	38231.025
1934.57473	38128.825
1937.67453	38058.325
1940.77232	37937.425
1943.86808	37770.425
1946.96184	37679.625
1950.05358	37534.925
1953.14331	37440.725
1956.23103	37295.925
1959.31675	37179.425
1962.40046	37072.225
1965.48217	36991.525
1968.56188	36958.325
1971.63959	36803.325
1974.7153	36720.225
1977.78901	36662.125
1980.86073	36519.225
1983.93046	36492.825
1986.99819	36333.225
1990.06394	36268.825
1993.1277	36158.525
1996.18947	36056.925
1999.24925	36017.425
2002.30706	35885.325
2005.36288	35839.925
2008.41672	35810.925
2011.46859	35720.425
2014.51848	35638.925
2017.56639	35554.025
2020.61233	35505.725
2023.6563	35502.325
2026.6983	35321.025
2029.73833	35248.025
2032.7764	35261.525
2035.8125	35146.725
2038.84664	35142.425
2041.87881	35111.925
2044.90903	34982.525
2047.93729	34953.925
2050.96359	34980.825
2053.98794	34886.225
2057.01034	34895.525
2060.03078	34902.425
2063.04927	34897.125
2066.06582	34896.925
2069.08042	34883.725
2072.09307	34820.625
2075.10378	34849.725
2078.11255	34814.925
2081.11938	34778.425
2084.12426	34746.025
2087.12722	34706.625
2090.12824	34736.425
2093.12732	34722.425
2096.12447	34709.525
2099.11969	34716.925
2102.11299	34767.525
2105.10435	34766.725
2108.09379	34752.325
2111.08131	34821.125
2114.0669	34773.925
2117.05057	34782.425
2120.03233	34832.925
2123.01216	34856.625
2125.99008	34897.825
2128.96609	35006.325
2131.94018	35101.625
2134.91236	35144.625
2137.88263	35123.725
2140.851	35173.025
2143.81746	35241.525
2146.78201	35181.525
2149.74466	35255.625
2152.7054	35219.425
2155.66425	35198.925
2158.6212	35210.125
2161.57625	35142.925
2164.52941	35209.625
2167.48067	35282.425
2170.43004	35267.425
2173.37752	35204.825
2176.32311	35200.725
2179.26681	35211.425
2182.20863	35173.125
2185.14856	35253.225
2188.08661	35238.025
2191.02278	35227.125
2193.95707	35304.225
2196.88948	35252.025
2199.82001	35284.325
2202.74867	35252.725
2205.67545	35275.925
2208.60037	35246.025
2211.52341	35186.225
2214.44458	35227.325
2217.36388	35198.225
2220.28132	35200.025
2223.1969	35093.825
2226.11061	35079.825
2229.02246	34937.825
2231.93245	34893.925
2234.84058	34874.425
2237.74686	34770.325
2240.65128	34731.125
2243.55385	34703.725
2246.45456	34669.525
2249.35343	34613.225
2252.25044	34590.525
2255.14561	34532.425
2258.03893	34540.425
2260.93041	34452.025
2263.82004	34373.725
2266.70783	34344.925
2269.59378	34268.325
2272.4779	34235.225
2275.36017	34177.425
2278.24061	34138.325
2281.11922	34080.725
2283.996	34073.125
2286.87094	34041.025
2289.74405	33974.725
2292.61534	34007.025
2295.4848	33993.125
2298.35243	34075.025
2301.21824	34084.125
2304.08223	34103.725
2306.94439	34040.225
2309.80474	34057.825
2312.66327	34145.925
2315.51999	34131.025
2318.37489	34225.925
2321.22797	34195.025
2324.07925	34153.725
2326.92871	34146.225
2329.77637	34147.525
2332.62222	34118.025
2335.46626	34074.425
2338.3085	34063.525
2341.14893	34058.425
2343.98756	34077.625
2346.8244	34185.925
2349.65943	34332.825
2352.49267	34315.225
2355.32411	34270.625
2358.15376	34199.525
2360.98161	34160.125
2363.80768	34161.825
2366.63195	34141.125
2369.45444	34077.325
2372.27514	34021.225
2375.09405	33893.625
2377.91118	33781.225
2380.72652	33657.025
2383.54009	33647.525
2386.35187	33617.625
2389.16188	33587.125
2391.97011	33550.525
2394.77657	33530.125
2397.58125	33472.825
2400.38416	33444.925
2403.18529	33389.025
2405.98466	33386.225
2408.78226	33270.025
2411.57809	33247.025
2414.37216	33133.625
2417.16446	33070.325
2419.955	32996.225
2422.74378	33011.725
2425.5308	32974.325
2428.31606	33022.625
2431.09956	32931.725
2433.88131	32942.625
2436.6613	32950.225
2439.43954	32988.825
2442.21603	32989.525
2444.99077	32949.825
2447.76377	32948.325
2450.53501	32909.825
2453.30451	32937.425
2456.07226	32955.825
2458.83827	32893.725
2461.60254	32945.325
2464.36507	32919.025
2467.12586	32873.125
2469.88492	32886.625
2472.64224	32943.625
2475.39782	32956.225
2478.15167	33012.025
2480.90379	33017.025
2483.65417	33115.625
2486.40283	33164.825
2489.14976	33196.025
2491.89497	33140.925
2494.63845	33204.925
2497.3802	33250.625
2500.12024	33234.925
2502.85855	33191.625
2505.59514	33145.125
2508.33002	33065.625
2511.06318	33063.125
2513.79462	33020.625
2516.52435	32989.925
2519.25237	32952.225
2521.97867	32963.125
2524.70327	32940.325
2527.42616	32955.325
2530.14734	32922.725
2532.86681	32863.825
2535.58458	32943.725
2538.30065	32917.325
2541.01501	32994.725
2543.72768	32975.225
2546.43864	32892.325
2549.14791	32846.425
2551.85548	32871.525
2554.56136	32849.725
2557.26554	32732.525
2559.96803	32708.925
2562.66883	32626.925
2565.36794	32693.825
2568.06536	32663.225
2570.7611	32618.925
2573.45514	32542.125
2576.14751	32609.425
2578.83819	32576.525
2581.52719	32576.925
2584.21451	32619.525
2586.90015	32572.525
2589.58411	32595.425
2592.2664	32606.825
2594.94701	32610.625
2597.62594	32647.925
2600.30321	32585.625
2602.9788	32562.825
2605.65273	32523.825
2608.32498	32512.225
2610.99557	32538.225
2613.66449	32556.325
2616.33175	32531.825
2618.99734	32600.225
2621.66128	32601.125
2624.32355	32633.725
2626.98416	32651.925
2629.64311	32599.125
2632.30041	32654.225
2634.95605	32613.225
2637.61004	32580.725
2640.26238	32548.025
2642.91306	32490.025
2645.56209	32444.325
2648.20948	32404.025
2650.85521	32398.025
2653.4993	32371.125
2656.14175	32385.725
2658.78255	32409.525
2661.42171	32452.625
2664.05923	32541.825
2666.6951	32528.725
2669.32934	32542.425
2671.96194	32523.125
2674.59291	32558.725
2677.22224	32502.725
2679.84993	32500.125
2682.476	32538.525
2685.10043	32508.525
2687.72324	32461.825
2690.34441	32394.925
2692.96396	32437.025
2695.58188	32445.125
2698.19818	32392.525
2700.81285	32391.125
2703.4259	32327.525
2706.03733	32384.225
2708.64714	32344.525
2711.25533	32401.525
2713.86191	32398.925
2716.46687	32494.325
2719.07021	32476.825
2721.67194	32539.525
2724.27206	32568.925
2726.87057	32578.625
2729.46747	32569.425
2732.06276	32639.525
2734.65644	32628.625
2737.24852	32671.025
2739.83899	32575.125
2742.42786	32571.325
2745.01513	32512.025
2747.60079	32552.925
2750.18486	32513.125
2752.76733	32561.225
2755.3482	32533.825
2757.92747	32522.925
2760.50515	32533.125
2763.08123	32489.025
2765.65573	32430.725
2768.22863	32511.425
2770.79994	32462.025
2773.36967	32479.325
2775.9378	32451.825
2778.50435	32426.225
2781.06932	32361.325
2783.6327	32352.625
2786.1945	32354.125
2788.75471	32377.925
2791.31335	32307.925
2793.87041	32306.025
2796.42589	32225.625
2798.97979	32220.825
2801.53212	32185.925
2804.08288	32207.825
2806.63206	32101.125
2809.17967	32093.225
2811.72571	31974.825
2814.27018	31951.225
2816.81308	31866.225
2819.35442	31876.625
2821.89419	31821.825
2824.43239	31871.125
2826.96904	31882.225
2829.50412	31887.025
2832.03763	31802.225
2834.56959	31794.225
2837.1	31727.625
2839.62884	31723.325
2842.15613	31652.325
2844.68186	31631.325
2847.20604	31607.525
2849.72867	31612.325
2852.24974	31598.625
2854.76927	31611.025
2857.28724	31603.725
2859.80367	31601.325
2862.31855	31525.125
2864.83189	31486.725
2867.34368	31411.825
2869.85393	31450.225
2872.36264	31396.825
2874.8698	31373.725
2877.37543	31388.525
2879.87952	31371.525
2882.38207	31352.925
2884.88308	31399.625
2887.38256	31451.825
2889.88051	31482.725
2892.37692	31508.225
2894.8718	31456.325
2897.36515	31495.925
2899.85698	31541.225
2902.34727	31590.725
2904.83604	31651.325
2907.32328	31732.925
2909.809	31801.825
2912.29319	31844.125
2914.77587	31779.725
2917.25702	31852.925
2919.73665	31803.325
2922.21476	31804.525
2924.69136	31718.825
2927.16644	31678.325
2929.64	31654.325
2932.11205	31614.525
2934.58258	31465.025
2937.05161	31450.625
2939.51912	31474.725
2941.98513	31442.925
2944.44962	31431.025
2946.91261	31369.325
2949.37409	31511.325
2951.83407	31463.925
2954.29254	31487.325
2956.74951	31531.025
2959.20498	31495.025
2961.65895	31470.125
2964.11142	31487.725
2966.56239	31448.625
2969.01186	31412.125
2971.45984	31310.225
2973.90632	31402.025
2976.35131	31270.825
2978.7948	31286.525
2981.23681	31211.225
2983.67732	31164.625
2986.11635	31120.625
2988.55388	31018.225
2990.98993	30953.925
2993.4245	30898.125
2995.85758	30827.425
2998.28917	30746.225
3000.71928	30679.725
3003.14791	30615.325
3005.57506	30535.225
3008.00073	30430.125
3010.42493	30425.325
3012.84764	30376.525
3015.26888	30362.825
3017.68865	30322.625
3020.10694	30247.725
3022.52376	30220.025
3024.9391	30243.725
3027.35298	30228.625
3029.76539	30201.925
3032.17632	30159.025
3034.5858	30147.125
3036.9938	30102.425
3039.40034	30113.825
3041.80542	30126.625
3044.20903	30021.625
3046.61118	30000.025
3049.01187	29914.025
3051.4111	29964.825
3053.80888	29923.225
3056.20519	29881.725
3058.60005	29821.525
3060.99345	29801.325
3063.3854	29663.225
3065.7759	29603.125
3068.16494	29508.825
3070.55254	29441.625
3072.93868	29411.625
3075.32338	29266.625
3077.70662	29197.925
3080.08842	29133.025
3082.46878	29177.525
3084.84769	29117.725
3087.22515	29218.925
3089.60118	29163.625
3091.97576	29111.125
3094.3489	29080.625
3096.72061	29088.525
3099.09087	29140.325
3101.4597	29060.525
3103.82709	29103.725
3106.19305	29069.825
3108.55757	29107.825
3110.92066	29094.025
3113.28232	29081.425
3115.64255	28984.925
3118.00134	28904.825
3120.35871	28871.825
3122.71466	28774.725
3125.06917	28760.825
3127.42226	28654.525
3129.77393	28685.025
3132.12417	28619.725
3134.47299	28610.525
3136.82039	28509.225
3139.16636	28564.325
3141.51092	28535.225
3143.85406	28579.025
3146.19579	28529.625
3148.53609	28571.025
3150.87499	28593.325
3153.21246	28611.225
3155.54853	28689.325
3157.88318	28610.325
3160.21642	28585.025
3162.54826	28631.825
3164.87868	28678.525
3167.2077	28750.225
3169.5353	28714.925
3171.86151	28692.025
3174.18631	28615.425
3176.5097	28604.625
3178.83169	28543.325
3181.15228	28610.825
3183.47147	28530.225
3185.78926	28499.425
3188.10565	28463.225
3190.42065	28426.925
3192.73424	28390.025
3195.04645	28379.425
3197.35725	28418.925
3199.66667	28383.225
3201.97469	28386.525
3204.28132	28395.225
3206.58656	28440.925
3208.8904	28420.125
3211.19287	28400.625
3213.49394	28396.725
3215.79363	28413.225
3218.09193	28466.925
3220.38884	28476.425
3222.68438	28552.025
3224.97853	28464.125
3227.2713	28485.125
3229.56269	28482.225
3231.8527	28463.125
3234.14133	28422.325
3236.42858	28418.125
3238.71446	28410.925
3240.99896	28304.225
3243.28209	28323.125
3245.56384	28212.425
3247.84423	28177.025
3250.12324	28160.025
3252.40088	28163.025
3254.67715	28153.525
3256.95205	28108.825
3259.22558	28127.025
3261.49775	28133.025
3263.76855	28133.525
3266.03799	28064.425
3268.30606	28030.025
3270.57277	28016.325
3272.83812	27992.725
3275.10211	27939.325
3277.36474	27839.425
3279.62601	27867.425
3281.88593	27845.625
3284.14448	27897.325
3286.40168	27910.725
3288.65753	27892.825
3290.91202	27864.725
3293.16516	27849.725
3295.41695	27811.225
3297.66738	27708.025
3299.91647	27541.925
3302.16421	27414.225
3304.4106	27331.125
3306.65564	27155.325
3308.89933	26928.425
3311.14169	26775.925
3313.38269	26592.925
3315.62236	26482.025
3317.86068	26288.225
3320.09766	26201.625
3322.3333	26030.125
3324.5676	25877.725
3326.80056	25502.025
3329.03219	25383.225
3331.26248	6.225
3333.49143	-0.375
3335.71905	-0.075
