Data from AgNPs_UA_50uM_CRN_0uM_R6G_10uM_Q_RamanShift__9__12-21-41-762.txt Node

Date: Tue Jul 26 12:21:41 BST 2022
User: TCL
Spectrometer: QEP01345
Trigger mode: 4
Integration Time (sec): 7.000000E0
Scans to average: 10
Electric dark correction enabled: true
Nonlinearity correction enabled: false
Boxcar width: 0
XAxis mode: Raman Shifts
Number of Pixels in Spectrum: 1044
>>>>>Begin Spectral Data<<<<<
46.04893	-0.7125
50.45542	-0.0125
54.85868	-0.4125
59.25871	-1.5125
63.6555	110.5875
68.04907	117.4875
72.43941	121.4875
76.82654	132.2875
81.21044	132.4875
85.59113	134.2875
89.96862	143.8875
94.34289	144.1875
98.71396	153.0875
103.08183	157.5875
107.4465	159.4875
111.80798	167.0875
116.16626	166.6875
120.52136	177.8875
124.87327	180.4875
129.222	189.7875
133.56755	203.4875
137.90993	219.3875
142.24913	227.4875
146.58517	263.5875
150.91804	295.3875
155.24774	352.6875
159.57429	429.5875
163.89768	556.5875
168.21792	727.6875
172.53501	992.1875
176.84895	1378.1875
181.15975	1929.3875
185.46741	2706.1875
189.77193	3736.7875
194.07331	4995.9875
198.37157	6456.6875
202.6667	7985.7875
206.9587	9499.2875
211.24758	11029.5875
215.53334	12571.2875
219.81599	14175.0875
224.09553	15943.3875
228.37195	17907.0875
232.64527	20063.2875
236.91549	22289.9875
241.18261	24418.0875
245.44663	26283.3875
249.70755	27936.3875
253.96539	29351.6875
258.22014	30520.9875
262.4718	31504.6875
266.72039	32170.9875
270.96589	32534.0875
275.20832	32480.6875
279.44768	32235.1875
283.68397	31837.9875
287.91719	31508.6875
292.14735	31361.5875
296.37445	31469.8875
300.59849	31869.5875
304.81948	32355.0875
309.03742	32816.4875
313.25231	32827.7875
317.46415	32359.6875
321.67296	31421.4875
325.87872	30623.1875
330.08145	30191.3875
334.28114	30210.0875
338.47781	30527.1875
342.67145	31059.0875
346.86207	31702.8875
351.04966	32622.9875
355.23424	33497.7875
359.4158	34232.2875
363.59435	34708.5875
367.76989	35050.5875
371.94243	35210.9875
376.11196	35288.2875
380.27849	35366.7875
384.44203	35497.9875
388.60257	35753.4875
392.76012	35961.3875
396.91468	36421.3875
401.06626	36999.0875
405.21485	37393.5875
409.36047	37153.7875
413.50311	36390.8875
417.64277	35682.0875
421.77947	35289.2875
425.9132	35073.1875
430.04396	35042.6875
434.17176	35180.9875
438.2966	35446.9875
442.41849	35882.4875
446.53742	36436.7875
450.6534	37113.0875
454.76644	37561.5875
458.87653	37863.7875
462.98368	38015.1875
467.08789	37943.1875
471.18916	37613.2875
475.2875	37010.3875
479.38291	36474.5875
483.4754	36111.4875
487.56496	35859.3875
491.6516	35779.7875
495.73531	35709.1875
499.81612	35833.0875
503.89401	36175.3875
507.96899	36389.9875
512.04106	36394.5875
516.11023	36474.7875
520.1765	36452.3875
524.23987	36419.7875
528.30034	36261.5875
532.35792	36164.2875
536.41261	35972.4875
540.46441	35680.7875
544.51333	35602.3875
548.55936	35843.2875
552.60252	36393.3875
556.64279	36933.7875
560.6802	37369.7875
564.71473	37671.6875
568.7464	37973.2875
572.7752	38164.5875
576.80114	37975.1875
580.82422	38058.4875
584.84444	38284.1875
588.86181	38427.7875
592.87633	38498.6875
596.888	38731.4875
600.89682	39667.7875
604.9028	42255.1875
608.90594	48069.1875
612.90624	53986.0875
616.90371	51210.5875
620.89834	42231.1875
624.89015	38051.3875
628.87913	37552.0875
632.86528	38171.5875
636.84862	38718.6875
640.82913	38364.5875
644.80683	37232.3875
648.78172	36459.6875
652.75379	36417.6875
656.72306	37027.9875
660.68952	37917.3875
664.65319	37836.8875
668.61405	37375.7875
672.57211	37528.3875
676.52738	37679.7875
680.47986	37245.4875
684.42955	36755.7875
688.37646	36552.2875
692.32058	36837.7875
696.26192	37325.4875
700.20048	37909.3875
704.13626	38131.7875
708.06928	37913.6875
711.99952	37545.0875
715.927	37359.4875
719.85171	37492.9875
723.77365	37451.8875
727.69284	37203.2875
731.60928	36870.1875
735.52295	36782.4875
739.43388	36795.6875
743.34206	36879.1875
747.24749	37054.4875
751.15017	37096.7875
755.05012	37454.7875
758.94733	38382.6875
762.8418	40583.5875
766.73354	44098.4875
770.62254	47281.5875
774.50882	48389.1875
778.39237	47269.8875
782.27321	44587.2875
786.15132	41590.1875
790.02671	39394.9875
793.89938	38071.2875
797.76935	37477.5875
801.6366	37072.3875
805.50115	36842.7875
809.36299	36781.2875
813.22213	36609.7875
817.07857	36542.6875
820.93231	36525.3875
824.78336	36569.9875
828.63172	36587.2875
832.47738	36541.6875
836.32036	36516.6875
840.16066	36413.8875
843.99827	36382.7875
847.8332	36379.4875
851.66546	36420.7875
855.49504	36522.2875
859.32195	36595.7875
863.1462	36612.8875
866.96777	36556.4875
870.78668	36605.2875
874.60293	36697.8875
878.41652	36779.7875
882.22745	36929.7875
886.03573	37121.7875
889.84136	37145.7875
893.64433	36991.3875
897.44466	36953.4875
901.24235	36809.5875
905.0374	36763.8875
908.8298	36638.7875
912.61957	36596.5875
916.40671	36610.2875
920.19121	36722.1875
923.97308	36923.8875
927.75233	37067.7875
931.52895	37124.8875
935.30295	36934.9875
939.07433	36513.5875
942.84309	36111.4875
946.60924	35835.3875
950.37278	35793.6875
954.13371	35797.6875
957.89203	35827.5875
961.64774	35821.2875
965.40086	35786.3875
969.15137	35749.5875
972.89929	35709.2875
976.64461	35735.5875
980.38733	35707.0875
984.12747	35796.1875
987.86502	35837.1875
991.59999	36006.9875
995.33237	36217.0875
999.06217	36447.3875
1002.78939	36888.7875
1006.51404	37358.0875
1010.23611	38023.9875
1013.95561	38356.6875
1017.67255	38485.1875
1021.38692	38380.0875
1025.09872	38009.8875
1028.80796	37627.7875
1032.51465	37301.9875
1036.21877	37230.8875
1039.92035	37369.8875
1043.61937	37519.2875
1047.31584	37681.0875
1051.00976	37896.0875
1054.70114	38068.7875
1058.38998	38276.8875
1062.07627	38607.7875
1065.76003	38955.2875
1069.44126	39425.5875
1073.11995	40238.9875
1076.79611	41133.6875
1080.46974	41777.9875
1084.14085	42105.2875
1087.80943	42269.9875
1091.47549	42507.5875
1095.13903	42585.1875
1098.80005	42520.7875
1102.45857	42536.2875
1106.11456	42284.0875
1109.76805	41609.6875
1113.41903	41218.3875
1117.06751	41319.9875
1120.71348	41749.9875
1124.35696	42328.9875
1127.99793	42710.6875
1131.63641	42649.7875
1135.2724	41929.8875
1138.90589	41353.6875
1142.5369	41007.5875
1146.16542	40708.9875
1149.79145	40452.4875
1153.415	40199.7875
1157.03607	40078.5875
1160.65467	40463.7875
1164.27079	41209.0875
1167.88443	42360.7875
1171.49561	44126.8875
1175.10432	46605.1875
1178.71056	49974.1875
1182.31434	52928.7875
1185.91565	54569.0875
1189.51451	54833.8875
1193.11091	54318.8875
1196.70485	53154.2875
1200.29634	51705.6875
1203.88538	50049.4875
1207.47197	48214.9875
1211.05612	46624.6875
1214.63782	45231.2875
1218.21708	44177.2875
1221.79391	43361.9875
1225.36829	42984.2875
1228.94024	42775.7875
1232.50976	42783.9875
1236.07685	42902.8875
1239.6415	42913.7875
1243.20374	43109.5875
1246.76355	43333.5875
1250.32093	43535.8875
1253.8759	44072.2875
1257.42845	45028.8875
1260.97859	46287.0875
1264.52631	47536.9875
1268.07163	48479.8875
1271.61453	49201.1875
1275.15503	49544.7875
1278.69312	49716.9875
1282.22882	49856.6875
1285.76211	50237.1875
1289.29301	50989.0875
1292.82151	51831.5875
1296.34761	53039.6875
1299.87133	54589.9875
1303.39266	56900.3875
1306.9116	60158.1875
1310.42815	63625.5875
1313.94233	65355.5875
1317.45412	64490.2875
1320.96354	62529.6875
1324.47058	60692.8875
1327.97525	58794.7875
1331.47754	57531.0875
1334.97747	57089.4875
1338.47502	57487.2875
1341.97022	58777.4875
1345.46305	61024.1875
1348.95352	63803.7875
1352.44163	66546.4875
1355.92738	68795.2875
1359.41078	71663.8875
1362.89183	74212.1875
1366.37053	72298.9875
1369.84688	65410.5875
1373.32088	58079.6875
1376.79254	53364.0875
1380.26186	50923.8875
1383.72883	49540.2875
1387.19347	48492.2875
1390.65578	47322.9875
1394.11575	46135.2875
1397.57339	45156.1875
1401.0287	44599.1875
1404.48168	44468.1875
1407.93234	44590.7875
1411.38068	44921.6875
1414.82669	45066.4875
1418.27039	44868.1875
1421.71177	44522.9875
1425.15083	44095.4875
1428.58758	43782.0875
1432.02203	43712.1875
1435.45416	43922.5875
1438.88399	44069.8875
1442.31151	44112.3875
1445.73673	44179.6875
1449.15965	44361.6875
1452.58027	44512.0875
1455.9986	44391.2875
1459.41463	44565.9875
1462.82837	45122.5875
1466.23982	45881.4875
1469.64898	46673.9875
1473.05586	47410.7875
1476.46045	47810.8875
1479.86276	48179.8875
1483.26279	48608.6875
1486.66054	49352.9875
1490.05602	50342.4875
1493.44922	51926.6875
1496.84016	54372.2875
1500.22882	58020.1875
1503.61521	62606.3875
1506.99934	67104.9875
1510.38121	69686.4875
1513.76081	69103.8875
1517.13816	65447.9875
1520.51324	60391.3875
1523.88607	55976.6875
1527.25665	53115.7875
1530.62498	51547.4875
1533.99105	50588.4875
1537.35488	49771.5875
1540.71647	49117.6875
1544.07581	48462.9875
1547.4329	47964.5875
1550.78776	47508.1875
1554.14038	47100.6875
1557.49077	47052.2875
1560.83892	47352.7875
1564.18484	48132.3875
1567.52853	49053.6875
1570.86999	49797.9875
1574.20922	50157.7875
1577.54624	50101.7875
1580.88103	48735.1875
1584.2136	47047.8875
1587.54395	45971.5875
1590.87208	46023.0875
1594.19801	47272.5875
1597.52172	48986.2875
1600.84321	49849.6875
1604.16251	49282.7875
1607.47959	48248.8875
1610.79447	46632.7875
1614.10715	44507.5875
1617.41763	42181.4875
1620.7259	40515.6875
1624.03199	39511.9875
1627.33587	39177.2875
1630.63757	39493.2875
1633.93707	40496.2875
1637.23439	42560.3875
1640.52951	45736.7875
1643.82246	50027.8875
1647.11321	54484.4875
1650.40179	56738.2875
1653.68819	55020.5875
1656.97241	50106.1875
1660.25446	44745.2875
1663.53433	40654.2875
1666.81203	38112.9875
1670.08756	36492.0875
1673.36092	35510.0875
1676.63211	34780.1875
1679.90115	34256.8875
1683.16801	33841.0875
1686.43272	33523.2875
1689.69527	33361.6875
1692.95567	33154.3875
1696.2139	33032.0875
1699.46999	32949.6875
1702.72392	32840.9875
1705.97571	32800.9875
1709.22535	32740.1875
1712.47284	32710.1875
1715.71819	32660.8875
1718.96139	32541.1875
1722.20246	32468.7875
1725.44139	32318.7875
1728.67818	32266.5875
1731.91284	32084.4875
1735.14537	31897.1875
1738.37576	31803.8875
1741.60403	31656.1875
1744.83017	31559.0875
1748.05418	31391.0875
1751.27607	31381.6875
1754.49584	31330.3875
1757.71349	31247.4875
1760.92903	31196.1875
1764.14244	31094.3875
1767.35375	31099.5875
1770.56294	31039.3875
1773.77002	31001.8875
1776.97499	30987.6875
1780.17785	30879.4875
1783.37861	30880.5875
1786.57727	30824.5875
1789.77382	30783.1875
1792.96828	30692.7875
1796.16064	30623.4875
1799.3509	30587.1875
1802.53907	30554.9875
1805.72514	30431.3875
1808.90913	30347.9875
1812.09102	30268.3875
1815.27083	30154.6875
1818.44856	30105.2875
1821.6242	30048.3875
1824.79776	29986.2875
1827.96924	29880.8875
1831.13864	29839.5875
1834.30597	29835.2875
1837.47122	29786.5875
1840.6344	29763.4875
1843.7955	29726.2875
1846.95454	29677.3875
1850.11151	29610.2875
1853.26642	29561.2875
1856.41926	29529.5875
1859.57004	29503.9875
1862.71876	29474.6875
1865.86542	29453.6875
1869.01003	29414.2875
1872.15258	29406.9875
1875.29308	29360.8875
1878.43152	29266.7875
1881.56792	29222.2875
1884.70227	29191.6875
1887.83457	29149.6875
1890.96482	29098.4875
1894.09304	29014.8875
1897.21921	28972.9875
1900.34335	28965.1875
1903.46544	28877.4875
1906.58551	28869.6875
1909.70353	28847.1875
1912.81953	28843.3875
1915.93349	28756.6875
1919.04543	28719.1875
1922.15534	28607.8875
1925.26322	28557.2875
1928.36908	28501.0875
1931.47292	28424.5875
1934.57473	28307.4875
1937.67453	28287.1875
1940.77232	28218.2875
1943.86808	28139.2875
1946.96184	28081.1875
1950.05358	27907.8875
1953.14331	27851.7875
1956.23103	27816.4875
1959.31675	27697.9875
1962.40046	27597.9875
1965.48217	27480.1875
1968.56188	27428.2875
1971.63959	27324.6875
1974.7153	27261.6875
1977.78901	27261.5875
1980.86073	27120.0875
1983.93046	27040.4875
1986.99819	26917.4875
1990.06394	26864.1875
1993.1277	26802.6875
1996.18947	26724.1875
1999.24925	26625.6875
2002.30706	26503.5875
2005.36288	26436.6875
2008.41672	26381.4875
2011.46859	26259.3875
2014.51848	26202.5875
2017.56639	26089.7875
2020.61233	26018.1875
2023.6563	25909.0875
2026.6983	25861.9875
2029.73833	25787.7875
2032.7764	25752.3875
2035.8125	25687.4875
2038.84664	25597.0875
2041.87881	25588.0875
2044.90903	25509.9875
2047.93729	25423.9875
2050.96359	25424.0875
2053.98794	25373.1875
2057.01034	25376.3875
2060.03078	25326.8875
2063.04927	25279.4875
2066.06582	25276.9875
2069.08042	25201.0875
2072.09307	25169.2875
2075.10378	25161.6875
2078.11255	25087.7875
2081.11938	25100.3875
2084.12426	25107.8875
2087.12722	25073.6875
2090.12824	25077.4875
2093.12732	25098.0875
2096.12447	25023.7875
2099.11969	25018.4875
2102.11299	25022.2875
2105.10435	25064.7875
2108.09379	25084.4875
2111.08131	25057.2875
2114.0669	25037.1875
2117.05057	25072.6875
2120.03233	25167.6875
2123.01216	25165.1875
2125.99008	25179.4875
2128.96609	25167.9875
2131.94018	25156.6875
2134.91236	25191.9875
2137.88263	25179.0875
2140.851	25169.4875
2143.81746	25171.9875
2146.78201	25150.5875
2149.74466	25221.5875
2152.7054	25234.1875
2155.66425	25190.4875
2158.6212	25196.0875
2161.57625	25144.5875
2164.52941	25115.9875
2167.48067	25082.9875
2170.43004	25038.6875
2173.37752	25067.2875
2176.32311	25004.4875
2179.26681	25002.3875
2182.20863	24968.8875
2185.14856	24988.0875
2188.08661	24946.4875
2191.02278	24885.7875
2193.95707	24871.6875
2196.88948	24888.7875
2199.82001	24875.2875
2202.74867	24836.1875
2205.67545	24810.2875
2208.60037	24793.1875
2211.52341	24713.4875
2214.44458	24650.7875
2217.36388	24605.5875
2220.28132	24570.6875
2223.1969	24475.8875
2226.11061	24461.9875
2229.02246	24417.6875
2231.93245	24406.6875
2234.84058	24312.3875
2237.74686	24242.6875
2240.65128	24261.0875
2243.55385	24195.2875
2246.45456	24113.9875
2249.35343	24122.2875
2252.25044	24135.5875
2255.14561	24061.0875
2258.03893	24088.5875
2260.93041	24025.9875
2263.82004	23965.0875
2266.70783	23913.3875
2269.59378	23846.3875
2272.4779	23826.5875
2275.36017	23763.0875
2278.24061	23696.3875
2281.11922	23621.6875
2283.996	23614.6875
2286.87094	23543.0875
2289.74405	23468.9875
2292.61534	23421.4875
2295.4848	23346.1875
2298.35243	23360.1875
2301.21824	23363.1875
2304.08223	23369.0875
2306.94439	23321.8875
2309.80474	23295.1875
2312.66327	23284.1875
2315.51999	23173.5875
2318.37489	23230.3875
2321.22797	23227.6875
2324.07925	23111.0875
2326.92871	23034.8875
2329.77637	23009.1875
2332.62222	22951.4875
2335.46626	22952.4875
2338.3085	22887.6875
2341.14893	22847.6875
2343.98756	22874.0875
2346.8244	22922.8875
2349.65943	22921.1875
2352.49267	22876.6875
2355.32411	22821.1875
2358.15376	22813.9875
2360.98161	22811.8875
2363.80768	22809.3875
2366.63195	22800.9875
2369.45444	22786.2875
2372.27514	22741.2875
2375.09405	22705.4875
2377.91118	22737.8875
2380.72652	22651.8875
2383.54009	22622.1875
2386.35187	22538.2875
2389.16188	22428.6875
2391.97011	22402.0875
2394.77657	22380.0875
2397.58125	22294.6875
2400.38416	22264.7875
2403.18529	22186.1875
2405.98466	22125.6875
2408.78226	22110.6875
2411.57809	22065.2875
2414.37216	22061.0875
2417.16446	22104.1875
2419.955	22093.7875
2422.74378	22104.6875
2425.5308	22021.6875
2428.31606	22025.9875
2431.09956	21982.2875
2433.88131	21960.6875
2436.6613	21967.2875
2439.43954	21920.0875
2442.21603	21938.3875
2444.99077	21824.2875
2447.76377	21863.2875
2450.53501	21819.6875
2453.30451	21811.7875
2456.07226	21751.4875
2458.83827	21697.3875
2461.60254	21724.0875
2464.36507	21619.3875
2467.12586	21618.6875
2469.88492	21630.4875
2472.64224	21659.5875
2475.39782	21625.4875
2478.15167	21612.2875
2480.90379	21574.7875
2483.65417	21576.1875
2486.40283	21619.4875
2489.14976	21587.2875
2491.89497	21574.3875
2494.63845	21578.2875
2497.3802	21522.3875
2500.12024	21515.7875
2502.85855	21435.5875
2505.59514	21430.1875
2508.33002	21413.3875
2511.06318	21331.5875
2513.79462	21300.8875
2516.52435	21269.1875
2519.25237	21229.2875
2521.97867	21226.3875
2524.70327	21139.8875
2527.42616	21125.2875
2530.14734	21136.9875
2532.86681	21102.7875
2535.58458	21079.0875
2538.30065	21024.6875
2541.01501	21003.4875
2543.72768	20995.4875
2546.43864	20979.4875
2549.14791	20901.7875
2551.85548	20889.0875
2554.56136	20813.5875
2557.26554	20849.8875
2559.96803	20796.6875
2562.66883	20726.2875
2565.36794	20713.4875
2568.06536	20665.7875
2570.7611	20637.2875
2573.45514	20591.2875
2576.14751	20547.0875
2578.83819	20516.2875
2581.52719	20508.1875
2584.21451	20411.6875
2586.90015	20395.8875
2589.58411	20341.6875
2592.2664	20324.9875
2594.94701	20302.3875
2597.62594	20245.2875
2600.30321	20181.7875
2602.9788	20146.7875
2605.65273	20142.2875
2608.32498	20145.5875
2610.99557	20131.9875
2613.66449	20079.9875
2616.33175	20071.8875
2618.99734	20107.2875
2621.66128	20081.6875
2624.32355	20018.4875
2626.98416	19985.5875
2629.64311	19910.5875
2632.30041	19869.5875
2634.95605	19861.2875
2637.61004	19868.8875
2640.26238	19822.3875
2642.91306	19837.1875
2645.56209	19813.0875
2648.20948	19784.1875
2650.85521	19713.9875
2653.4993	19711.5875
2656.14175	19708.9875
2658.78255	19692.8875
2661.42171	19674.7875
2664.05923	19688.1875
2666.6951	19762.6875
2669.32934	19748.9875
2671.96194	19748.2875
2674.59291	19738.4875
2677.22224	19706.0875
2679.84993	19744.9875
2682.476	19680.9875
2685.10043	19685.4875
2687.72324	19665.2875
2690.34441	19661.4875
2692.96396	19658.1875
2695.58188	19601.9875
2698.19818	19583.1875
2700.81285	19626.9875
2703.4259	19617.1875
2706.03733	19638.4875
2708.64714	19598.6875
2711.25533	19616.1875
2713.86191	19557.7875
2716.46687	19609.3875
2719.07021	19579.3875
2721.67194	19616.1875
2724.27206	19636.5875
2726.87057	19562.3875
2729.46747	19546.1875
2732.06276	19565.2875
2734.65644	19547.0875
2737.24852	19529.5875
2739.83899	19467.2875
2742.42786	19537.1875
2745.01513	19473.3875
2747.60079	19432.9875
2750.18486	19343.8875
2752.76733	19326.3875
2755.3482	19351.7875
2757.92747	19307.3875
2760.50515	19277.1875
2763.08123	19277.2875
2765.65573	19206.5875
2768.22863	19246.8875
2770.79994	19186.9875
2773.36967	19169.9875
2775.9378	19094.3875
2778.50435	19090.0875
2781.06932	19067.9875
2783.6327	19070.6875
2786.1945	19077.0875
2788.75471	19030.8875
2791.31335	18959.6875
2793.87041	18920.3875
2796.42589	18845.4875
2798.97979	18830.3875
2801.53212	18797.8875
2804.08288	18758.2875
2806.63206	18743.3875
2809.17967	18644.4875
2811.72571	18667.8875
2814.27018	18617.2875
2816.81308	18605.3875
2819.35442	18565.6875
2821.89419	18547.8875
2824.43239	18553.7875
2826.96904	18469.8875
2829.50412	18461.6875
2832.03763	18379.9875
2834.56959	18391.8875
2837.1	18327.6875
2839.62884	18313.7875
2842.15613	18295.0875
2844.68186	18250.2875
2847.20604	18252.3875
2849.72867	18220.0875
2852.24974	18205.4875
2854.76927	18182.5875
2857.28724	18149.3875
2859.80367	18199.6875
2862.31855	18138.7875
2864.83189	18118.5875
2867.34368	18083.6875
2869.85393	18087.6875
2872.36264	18061.8875
2874.8698	18017.7875
2877.37543	18007.5875
2879.87952	17978.2875
2882.38207	17957.3875
2884.88308	17920.7875
2887.38256	17963.6875
2889.88051	17937.3875
2892.37692	17898.8875
2894.8718	17885.7875
2897.36515	17862.0875
2899.85698	17810.3875
2902.34727	17914.1875
2904.83604	17941.7875
2907.32328	18004.1875
2909.809	17935.3875
2912.29319	17937.3875
2914.77587	17936.8875
2917.25702	17951.2875
2919.73665	17922.6875
2922.21476	17946.5875
2924.69136	17876.0875
2927.16644	17864.9875
2929.64	17847.5875
2932.11205	17812.8875
2934.58258	17756.7875
2937.05161	17793.8875
2939.51912	17768.1875
2941.98513	17739.4875
2944.44962	17689.6875
2946.91261	17657.5875
2949.37409	17650.9875
2951.83407	17627.2875
2954.29254	17642.8875
2956.74951	17662.0875
2959.20498	17623.6875
2961.65895	17576.9875
2964.11142	17575.3875
2966.56239	17555.4875
2969.01186	17571.8875
2971.45984	17564.5875
2973.90632	17554.9875
2976.35131	17529.3875
2978.7948	17495.7875
2981.23681	17426.5875
2983.67732	17431.0875
2986.11635	17385.7875
2988.55388	17326.7875
2990.98993	17302.4875
2993.4245	17285.0875
2995.85758	17241.5875
2998.28917	17220.3875
3000.71928	17189.4875
3003.14791	17131.1875
3005.57506	17123.2875
3008.00073	17066.5875
3010.42493	17039.4875
3012.84764	16994.1875
3015.26888	16986.1875
3017.68865	16953.1875
3020.10694	16897.5875
3022.52376	16831.9875
3024.9391	16840.9875
3027.35298	16800.3875
3029.76539	16783.6875
3032.17632	16720.3875
3034.5858	16728.4875
3036.9938	16696.2875
3039.40034	16676.2875
3041.80542	16649.9875
3044.20903	16616.1875
3046.61118	16584.5875
3049.01187	16554.0875
3051.4111	16552.8875
3053.80888	16535.4875
3056.20519	16488.9875
3058.60005	16431.5875
3060.99345	16401.3875
3063.3854	16336.8875
3065.7759	16312.0875
3068.16494	16275.7875
3070.55254	16251.2875
3072.93868	16225.9875
3075.32338	16173.0875
3077.70662	16145.1875
3080.08842	16078.6875
3082.46878	16111.4875
3084.84769	16036.8875
3087.22515	16075.4875
3089.60118	16042.5875
3091.97576	16047.3875
3094.3489	16028.8875
3096.72061	16028.1875
3099.09087	16002.8875
3101.4597	15944.5875
3103.82709	15969.8875
3106.19305	15970.4875
3108.55757	15944.8875
3110.92066	15891.6875
3113.28232	15881.6875
3115.64255	15839.1875
3118.00134	15831.3875
3120.35871	15822.6875
3122.71466	15752.8875
3125.06917	15689.0875
3127.42226	15689.0875
3129.77393	15650.5875
3132.12417	15651.5875
3134.47299	15631.1875
3136.82039	15598.6875
3139.16636	15606.4875
3141.51092	15597.7875
3143.85406	15595.3875
3146.19579	15569.3875
3148.53609	15591.7875
3150.87499	15629.2875
3153.21246	15611.5875
3155.54853	15634.4875
3157.88318	15595.0875
3160.21642	15610.1875
3162.54826	15615.5875
3164.87868	15596.3875
3167.2077	15587.5875
3169.5353	15582.5875
3171.86151	15554.1875
3174.18631	15559.5875
3176.5097	15539.7875
3178.83169	15515.4875
3181.15228	15496.9875
3183.47147	15416.3875
3185.78926	15380.5875
3188.10565	15350.1875
3190.42065	15343.1875
3192.73424	15350.4875
3195.04645	15317.9875
3197.35725	15316.9875
3199.66667	15284.2875
3201.97469	15294.4875
3204.28132	15284.4875
3206.58656	15296.3875
3208.8904	15309.6875
3211.19287	15305.4875
3213.49394	15283.0875
3215.79363	15292.2875
3218.09193	15278.9875
3220.38884	15292.4875
3222.68438	15287.5875
3224.97853	15278.3875
3227.2713	15268.7875
3229.56269	15277.2875
3231.8527	15251.9875
3234.14133	15239.1875
3236.42858	15196.0875
3238.71446	15149.1875
3240.99896	15077.5875
3243.28209	15048.4875
3245.56384	15052.8875
3247.84423	15042.5875
3250.12324	14990.3875
3252.40088	14950.2875
3254.67715	14929.2875
3256.95205	14939.5875
3259.22558	14910.3875
3261.49775	14908.3875
3263.76855	14912.5875
3266.03799	14876.8875
3268.30606	14866.3875
3270.57277	14867.4875
3272.83812	14812.9875
3275.10211	14770.4875
3277.36474	14738.2875
3279.62601	14744.2875
3281.88593	14716.1875
3284.14448	14713.5875
3286.40168	14688.0875
3288.65753	14666.2875
3290.91202	14688.7875
3293.16516	14659.6875
3295.41695	14581.4875
3297.66738	14481.0875
3299.91647	14423.9875
3302.16421	14360.4875
3304.4106	14257.0875
3306.65564	14195.9875
3308.89933	14103.5875
3311.14169	13991.4875
3313.38269	13868.9875
3315.62236	13810.4875
3317.86068	13680.5875
3320.09766	13587.2875
3322.3333	13485.3875
3324.5676	13451.7875
3326.80056	13273.5875
3329.03219	13185.9875
3331.26248	3.0875
3333.49143	-1.3125
3335.71905	-0.5125
