Data from AgNPs_UA_100uM_CRN_0uM_R6G_10uM_Q_RamanShift__6__13-19-25-314.txt Node

Date: Tue Jul 26 13:19:25 BST 2022
User: TCL
Spectrometer: QEP01345
Trigger mode: 4
Integration Time (sec): 7.000000E0
Scans to average: 10
Electric dark correction enabled: true
Nonlinearity correction enabled: false
Boxcar width: 0
XAxis mode: Raman Shifts
Number of Pixels in Spectrum: 1044
>>>>>Begin Spectral Data<<<<<
46.04893	-0.6
50.45542	0.2
54.85868	-0.3
59.25871	0.6
63.6555	75.5
68.04907	77.4
72.43941	79.3
76.82654	88.2
81.21044	94.2
85.59113	94.1
89.96862	102.3
94.34289	107
98.71396	109.4
103.08183	107.3
107.4465	108.4
111.80798	110.8
116.16626	116
120.52136	118.7
124.87327	122.3
129.222	128.3
133.56755	133
137.90993	134.7
142.24913	147
146.58517	154.1
150.91804	171.4
155.24774	199.2
159.57429	240.9
163.89768	298.3
168.21792	383.3
172.53501	513.8
176.84895	701.5
181.15975	980.2
185.46741	1367.2
189.77193	1876.2
194.07331	2500.7
198.37157	3200.3
202.6667	3942
206.9587	4667.7
211.24758	5404.4
215.53334	6125.3
219.81599	6915.5
224.09553	7805
228.37195	8743.4
232.64527	9812.6
236.91549	10922
241.18261	12019.9
245.44663	12954.4
249.70755	13794.4
253.96539	14468.3
258.22014	15023.1
262.4718	15509.3
266.72039	15890.5
270.96589	15995.5
275.20832	15956.2
279.44768	15769.3
283.68397	15627.3
287.91719	15479.2
292.14735	15417.8
296.37445	15508.8
300.59849	15710.3
304.81948	15971.2
309.03742	16176
313.25231	16258.1
317.46415	16029.7
321.67296	15626.7
325.87872	15257.8
330.08145	15071
334.28114	15064.7
338.47781	15213.2
342.67145	15439.5
346.86207	15749
351.04966	16119.8
355.23424	16516.2
359.4158	16811.5
363.59435	17013.2
367.76989	17116.8
371.94243	17197.1
376.11196	17244.1
380.27849	17286.9
384.44203	17364.5
388.60257	17398.2
392.76012	17505
396.91468	17726.8
401.06626	17945.1
405.21485	18121.2
409.36047	18002
413.50311	17658.1
417.64277	17377.2
421.77947	17280.6
425.9132	17278.9
430.04396	17389.4
434.17176	17523.2
438.2966	17725.3
442.41849	17987.8
446.53742	18355.3
450.6534	18728.3
454.76644	18962.7
458.87653	18988.5
462.98368	18888.5
467.08789	18726.6
471.18916	18538.2
475.2875	18253.7
479.38291	17969.9
483.4754	17774
487.56496	17658.1
491.6516	17579.4
495.73531	17636.3
499.81612	17663.6
503.89401	17803
507.96899	17864.5
512.04106	17906.9
516.11023	17931.8
520.1765	17954.6
524.23987	18016.3
528.30034	18022.3
532.35792	17949.9
536.41261	17871.1
540.46441	17724.8
544.51333	17689
548.55936	17784.6
552.60252	18034.8
556.64279	18319.6
560.6802	18454.5
564.71473	18530.8
568.7464	18719.7
572.7752	18971.6
576.80114	19068
580.82422	19305.1
584.84444	19617.4
588.86181	19894.5
592.87633	20172.6
596.888	20359.4
600.89682	20525.4
604.9028	21478
608.90594	23916.3
612.90624	26378.1
616.90371	24759.7
620.89834	20633.1
624.89015	18822.2
628.87913	18620.9
632.86528	18893.4
636.84862	19077.3
640.82913	18861.1
644.80683	18399.8
648.78172	18076.6
652.75379	18096.7
656.72306	18390.5
660.68952	18730.1
664.65319	18525.1
668.61405	18237.2
672.57211	18117.8
676.52738	18166.5
680.47986	18120.3
684.42955	18003.6
688.37646	17951.5
692.32058	18010.3
696.26192	18234.5
700.20048	18374.4
704.13626	18553.5
708.06928	18525.1
711.99952	18380.3
715.927	18354.7
719.85171	18445.5
723.77365	18445.5
727.69284	18341.7
731.60928	18245.1
735.52295	18244.6
739.43388	18284.6
743.34206	18375.4
747.24749	18414.5
751.15017	18518.9
755.05012	18709.4
758.94733	19258.2
762.8418	20372.6
766.73354	22207.6
770.62254	23820.4
774.50882	24158.6
778.39237	23115.3
782.27321	21424.1
786.15132	20018.3
790.02671	19109.7
793.89938	18645.3
797.76935	18417.3
801.6366	18351
805.50115	18276.1
809.36299	18246.1
813.22213	18183.1
817.07857	18114.4
820.93231	18101.8
824.78336	18100.4
828.63172	18120.3
832.47738	18113.3
836.32036	18069.3
840.16066	18072.3
843.99827	18096.8
847.8332	18054.8
851.66546	18106.1
855.49504	18128.7
859.32195	18123.5
863.1462	18099.3
866.96777	18121
870.78668	18098.9
874.60293	18163.5
878.41652	18233.9
882.22745	18368.3
886.03573	18425.6
889.84136	18430.1
893.64433	18371.3
897.44466	18340
901.24235	18294.1
905.0374	18219.6
908.8298	18168.5
912.61957	18136.7
916.40671	18205.6
920.19121	18314.8
923.97308	18487.1
927.75233	18496.9
931.52895	18459.2
935.30295	18313.9
939.07433	18059.9
942.84309	17880.7
946.60924	17778.3
950.37278	17724.2
954.13371	17718.3
957.89203	17708.7
961.64774	17711.2
965.40086	17713.8
969.15137	17623.7
972.89929	17642.8
976.64461	17628.6
980.38733	17632
984.12747	17674.5
987.86502	17758.8
991.59999	17889.3
995.33237	18039.7
999.06217	18274.4
1002.78939	18557.7
1006.51404	18850
1010.23611	19137.4
1013.95561	19320.2
1017.67255	19350.2
1021.38692	19209.3
1025.09872	18983.6
1028.80796	18782.1
1032.51465	18812.3
1036.21877	18843.4
1039.92035	18908.5
1043.61937	18910.5
1047.31584	18947.1
1051.00976	18855.4
1054.70114	18848
1058.38998	18910
1062.07627	19033.8
1065.76003	19167
1069.44126	19364.5
1073.11995	19619.3
1076.79611	19899.9
1080.46974	20126.8
1084.14085	20261.3
1087.80943	20457.7
1091.47549	20561.4
1095.13903	20438.6
1098.80005	20196.7
1102.45857	19864.8
1106.11456	19668.4
1109.76805	19616.6
1113.41903	19728.9
1117.06751	19972.2
1120.71348	20312.4
1124.35696	20658.6
1127.99793	20973.6
1131.63641	20945.2
1135.2724	20646.3
1138.90589	20349.3
1142.5369	20188.4
1146.16542	20035.3
1149.79145	19981.7
1153.415	19941
1157.03607	19997.5
1160.65467	20279.4
1164.27079	20743.8
1167.88443	21482.2
1171.49561	22512.5
1175.10432	23978.6
1178.71056	25838
1182.31434	27467.5
1185.91565	28237
1189.51451	28208.2
1193.11091	27619.5
1196.70485	26662.7
1200.29634	25630.9
1203.88538	24719.2
1207.47197	23768.3
1211.05612	22970.8
1214.63782	22400.2
1218.21708	22090.9
1221.79391	21990.9
1225.36829	21989.5
1228.94024	21994
1232.50976	21835.7
1236.07685	21702.4
1239.6415	21636.3
1243.20374	21644.7
1246.76355	21697.5
1250.32093	21849.4
1253.8759	22136.8
1257.42845	22591.7
1260.97859	23135.4
1264.52631	23673.3
1268.07163	24188
1271.61453	24662.2
1275.15503	25037
1278.69312	25273.5
1282.22882	25557.9
1285.76211	25915.3
1289.29301	26395.1
1292.82151	27036.9
1296.34761	27772.1
1299.87133	28798.3
1303.39266	30180.4
1306.9116	32061
1310.42815	33884
1313.94233	34805.2
1317.45412	34395.9
1320.96354	33216.2
1324.47058	31980.6
1327.97525	30890.4
1331.47754	30163.9
1334.97747	29867.8
1338.47502	29943.2
1341.97022	30382.7
1345.46305	31041.5
1348.95352	32024.8
1352.44163	33133
1355.92738	34647.9
1359.41078	36751.7
1362.89183	38511.4
1366.37053	37546.5
1369.84688	33966.4
1373.32088	30158.7
1376.79254	27589.4
1380.26186	26305.7
1383.72883	25747.2
1387.19347	25233.6
1390.65578	24656.2
1394.11575	24158.6
1397.57339	23861.3
1401.0287	23744.3
1404.48168	23692.4
1407.93234	23712.9
1411.38068	23757.7
1414.82669	23653.6
1418.27039	23411.9
1421.71177	23110
1425.15083	22771.1
1428.58758	22636
1432.02203	22747.9
1435.45416	22996.5
1438.88399	23182.6
1442.31151	23318.6
1445.73673	23403.8
1449.15965	23487.2
1452.58027	23490.3
1455.9986	23459.8
1459.41463	23538.7
1462.82837	23827.5
1466.23982	24278.2
1469.64898	24719.3
1473.05586	25171.7
1476.46045	25407.4
1479.86276	25613.5
1483.26279	25822.2
1486.66054	26155.3
1490.05602	26599.3
1493.44922	27340.5
1496.84016	28424.9
1500.22882	30048.7
1503.61521	32154.4
1506.99934	34260
1510.38121	35472.7
1513.76081	35138.1
1517.13816	33159.1
1520.51324	30727.8
1523.88607	28730.1
1527.25665	27529.6
1530.62498	26950.2
1533.99105	26630.3
1537.35488	26333.7
1540.71647	25996.2
1544.07581	25605.3
1547.4329	25255.7
1550.78776	24938.4
1554.14038	24758
1557.49077	24703.1
1560.83892	24841.1
1564.18484	25114.9
1567.52853	25533
1570.86999	25850.6
1574.20922	26071.7
1577.54624	25937.2
1580.88103	25326.3
1584.2136	24535.5
1587.54395	24277.3
1590.87208	24677.5
1594.19801	25619.5
1597.52172	26776.9
1600.84321	27242.4
1604.16251	26823.3
1607.47959	25858.3
1610.79447	24657.9
1614.10715	23389.4
1617.41763	22261
1620.7259	21405
1624.03199	20879.3
1627.33587	20834
1630.63757	21058.4
1633.93707	21769.5
1637.23439	23097.6
1640.52951	25069.5
1643.82246	27539.9
1647.11321	29811.1
1650.40179	30615.6
1653.68819	29278.5
1656.97241	26462
1660.25446	23503.3
1663.53433	21355.8
1666.81203	20047.9
1670.08756	19173.7
1673.36092	18651
1676.63211	18261.1
1679.90115	17991.7
1683.16801	17797.1
1686.43272	17636
1689.69527	17487.5
1692.95567	17407.4
1696.2139	17319.3
1699.46999	17250.3
1702.72392	17193.9
1705.97571	17170.3
1709.22535	17154.3
1712.47284	17103
1715.71819	17092
1718.96139	17073.2
1722.20246	17018.5
1725.44139	16953.6
1728.67818	16895.6
1731.91284	16817.2
1735.14537	16770.6
1738.37576	16688.6
1741.60403	16636
1744.83017	16584.1
1748.05418	16541.3
1751.27607	16517.4
1754.49584	16476.2
1757.71349	16474.7
1760.92903	16450.7
1764.14244	16446.6
1767.35375	16435
1770.56294	16421.2
1773.77002	16375.4
1776.97499	16374.5
1780.17785	16331.3
1783.37861	16311.8
1786.57727	16314.7
1789.77382	16277.6
1792.96828	16275.4
1796.16064	16244.8
1799.3509	16221.9
1802.53907	16206.9
1805.72514	16156.9
1808.90913	16080.9
1812.09102	16054.2
1815.27083	16023.9
1818.44856	16047.1
1821.6242	15986.6
1824.79776	15974.7
1827.96924	15932.6
1831.13864	15940
1834.30597	15959.2
1837.47122	15922.3
1840.6344	15892
1843.7955	15923.7
1846.95454	15901.6
1850.11151	15864.8
1853.26642	15880
1856.41926	15878.2
1859.57004	15826.9
1862.71876	15840.1
1865.86542	15849.2
1869.01003	15822.5
1872.15258	15804.2
1875.29308	15815.7
1878.43152	15798.2
1881.56792	15764.6
1884.70227	15750.4
1887.83457	15700.1
1890.96482	15695.3
1894.09304	15645.2
1897.21921	15649.9
1900.34335	15669
1903.46544	15616.3
1906.58551	15640.4
1909.70353	15603.2
1912.81953	15597.1
1915.93349	15596.1
1919.04543	15536.7
1922.15534	15516.8
1925.26322	15544.6
1928.36908	15475
1931.47292	15470.2
1934.57473	15419.4
1937.67453	15374.8
1940.77232	15358.6
1943.86808	15317.6
1946.96184	15264.2
1950.05358	15218.4
1953.14331	15183.8
1956.23103	15155.1
1959.31675	15087.2
1962.40046	15082.6
1965.48217	15033.5
1968.56188	15011.5
1971.63959	14934.9
1974.7153	14918.5
1977.78901	14868.1
1980.86073	14842.3
1983.93046	14782.7
1986.99819	14775.8
1990.06394	14693
1993.1277	14676
1996.18947	14602.6
1999.24925	14601.6
2002.30706	14502.9
2005.36288	14485.9
2008.41672	14440.2
2011.46859	14394.8
2014.51848	14344
2017.56639	14348.5
2020.61233	14321.1
2023.6563	14285.7
2026.6983	14248.6
2029.73833	14214.7
2032.7764	14192.8
2035.8125	14146.1
2038.84664	14111.5
2041.87881	14133.7
2044.90903	14087.2
2047.93729	14075
2050.96359	14088.7
2053.98794	14040.2
2057.01034	14043.1
2060.03078	14035.5
2063.04927	13997.5
2066.06582	13967
2069.08042	13982.6
2072.09307	13963.6
2075.10378	13983.4
2078.11255	13994.3
2081.11938	13982.1
2084.12426	13963.9
2087.12722	13960.4
2090.12824	13963.3
2093.12732	13969.6
2096.12447	13975.1
2099.11969	13948.7
2102.11299	13990.3
2105.10435	13950.6
2108.09379	13985.1
2111.08131	13990.6
2114.0669	13961.3
2117.05057	13996.5
2120.03233	14031.7
2123.01216	14062.9
2125.99008	14082
2128.96609	14070
2131.94018	14096.1
2134.91236	14096.7
2137.88263	14108
2140.851	14082.2
2143.81746	14106.8
2146.78201	14096.9
2149.74466	14113.7
2152.7054	14147.3
2155.66425	14119.5
2158.6212	14134.5
2161.57625	14126.5
2164.52941	14123.3
2167.48067	14114.5
2170.43004	14101.8
2173.37752	14068.3
2176.32311	14081.4
2179.26681	14076.9
2182.20863	14100.6
2185.14856	14102.3
2188.08661	14078.1
2191.02278	14078.8
2193.95707	14072.5
2196.88948	14067.1
2199.82001	14087
2202.74867	14088.4
2205.67545	14047
2208.60037	14049.4
2211.52341	13983.4
2214.44458	14014.5
2217.36388	13950.1
2220.28132	13941.8
2223.1969	13905.3
2226.11061	13890.1
2229.02246	13840.4
2231.93245	13846.6
2234.84058	13828.6
2237.74686	13786.4
2240.65128	13788.9
2243.55385	13760.9
2246.45456	13773.5
2249.35343	13762.5
2252.25044	13737.9
2255.14561	13713
2258.03893	13692.2
2260.93041	13685.3
2263.82004	13642.9
2266.70783	13629.8
2269.59378	13613
2272.4779	13582.3
2275.36017	13559
2278.24061	13521.5
2281.11922	13497.2
2283.996	13478.9
2286.87094	13485.7
2289.74405	13420.7
2292.61534	13423.2
2295.4848	13437.6
2298.35243	13419.7
2301.21824	13420
2304.08223	13417.9
2306.94439	13406.2
2309.80474	13359.2
2312.66327	13385.2
2315.51999	13380.4
2318.37489	13388.4
2321.22797	13352.2
2324.07925	13347
2326.92871	13311.3
2329.77637	13288
2332.62222	13284.8
2335.46626	13286.4
2338.3085	13244.9
2341.14893	13230.1
2343.98756	13208.6
2346.8244	13218.8
2349.65943	13234.5
2352.49267	13191.7
2355.32411	13185.9
2358.15376	13189.9
2360.98161	13160.2
2363.80768	13173.2
2366.63195	13194.4
2369.45444	13178.4
2372.27514	13157.3
2375.09405	13177.6
2377.91118	13147.5
2380.72652	13101.8
2383.54009	13064.7
2386.35187	13057.2
2389.16188	13026.5
2391.97011	13007.3
2394.77657	12978.9
2397.58125	12971.9
2400.38416	12936.8
2403.18529	12921.7
2405.98466	12901.7
2408.78226	12913.1
2411.57809	12867
2414.37216	12871.9
2417.16446	12854.4
2419.955	12837.1
2422.74378	12855.3
2425.5308	12828.4
2428.31606	12831.6
2431.09956	12817.4
2433.88131	12829.4
2436.6613	12807.1
2439.43954	12787.4
2442.21603	12798
2444.99077	12806.4
2447.76377	12795.5
2450.53501	12816.9
2453.30451	12756.9
2456.07226	12728.3
2458.83827	12698
2461.60254	12717.4
2464.36507	12731.3
2467.12586	12708.6
2469.88492	12723
2472.64224	12699.9
2475.39782	12702.2
2478.15167	12693.3
2480.90379	12706.7
2483.65417	12707.6
2486.40283	12684.9
2489.14976	12689.8
2491.89497	12678.8
2494.63845	12688.3
2497.3802	12673.1
2500.12024	12669.7
2502.85855	12661.7
2505.59514	12633.4
2508.33002	12631.4
2511.06318	12599.8
2513.79462	12593.7
2516.52435	12576.1
2519.25237	12572.5
2521.97867	12551.9
2524.70327	12539.3
2527.42616	12515.6
2530.14734	12515.1
2532.86681	12492.8
2535.58458	12457.6
2538.30065	12449.8
2541.01501	12452.1
2543.72768	12454.2
2546.43864	12422.4
2549.14791	12400
2551.85548	12392.5
2554.56136	12391.3
2557.26554	12382.9
2559.96803	12364.1
2562.66883	12329.6
2565.36794	12302.4
2568.06536	12266
2570.7611	12263.1
2573.45514	12274.6
2576.14751	12226.9
2578.83819	12256.7
2581.52719	12237.7
2584.21451	12229.8
2586.90015	12214.4
2589.58411	12172.8
2592.2664	12184.9
2594.94701	12153.2
2597.62594	12140.5
2600.30321	12127.6
2602.9788	12110.4
2605.65273	12096.8
2608.32498	12092.9
2610.99557	12101.2
2613.66449	12070.8
2616.33175	12069.5
2618.99734	12052.2
2621.66128	12032.1
2624.32355	12005.2
2626.98416	12022.9
2629.64311	12001.1
2632.30041	11982.8
2634.95605	11979.2
2637.61004	11954.4
2640.26238	11935.6
2642.91306	11939.8
2645.56209	11937.7
2648.20948	11923
2650.85521	11903.7
2653.4993	11930.3
2656.14175	11903.6
2658.78255	11903.1
2661.42171	11894.7
2664.05923	11940.6
2666.6951	11941.6
2669.32934	11961.4
2671.96194	11939
2674.59291	11930
2677.22224	11912.7
2679.84993	11934.1
2682.476	11935.5
2685.10043	11911.2
2687.72324	11919.9
2690.34441	11917.6
2692.96396	11910.8
2695.58188	11897.6
2698.19818	11888.5
2700.81285	11896.4
2703.4259	11877
2706.03733	11882
2708.64714	11905.1
2711.25533	11902.3
2713.86191	11919.4
2716.46687	11918.5
2719.07021	11922.4
2721.67194	11938.6
2724.27206	11921.6
2726.87057	11929.4
2729.46747	11950.6
2732.06276	11934.1
2734.65644	11905.2
2737.24852	11920.6
2739.83899	11913
2742.42786	11935.1
2745.01513	11882.1
2747.60079	11875.3
2750.18486	11840.4
2752.76733	11848.9
2755.3482	11824.7
2757.92747	11822.9
2760.50515	11793.9
2763.08123	11797.5
2765.65573	11780.7
2768.22863	11783.9
2770.79994	11781.5
2773.36967	11753.1
2775.9378	11721.2
2778.50435	11733.5
2781.06932	11697.2
2783.6327	11686.1
2786.1945	11706.7
2788.75471	11716.1
2791.31335	11680.9
2793.87041	11652.1
2796.42589	11619.6
2798.97979	11622.2
2801.53212	11618
2804.08288	11598.5
2806.63206	11540.9
2809.17967	11550.8
2811.72571	11495.9
2814.27018	11516.5
2816.81308	11442.4
2819.35442	11465.2
2821.89419	11428.3
2824.43239	11452.2
2826.96904	11445.4
2829.50412	11374.8
2832.03763	11358.5
2834.56959	11351.7
2837.1	11344.9
2839.62884	11368.4
2842.15613	11331.3
2844.68186	11358
2847.20604	11347.4
2849.72867	11329
2852.24974	11294
2854.76927	11293.3
2857.28724	11300.4
2859.80367	11277.6
2862.31855	11269.5
2864.83189	11263.4
2867.34368	11246
2869.85393	11218.9
2872.36264	11206.2
2874.8698	11195.9
2877.37543	11199.1
2879.87952	11209.9
2882.38207	11205.4
2884.88308	11199.2
2887.38256	11211.8
2889.88051	11184.9
2892.37692	11208.7
2894.8718	11205.1
2897.36515	11188.3
2899.85698	11201.8
2902.34727	11248
2904.83604	11231.5
2907.32328	11283.6
2909.809	11248.2
2912.29319	11296
2914.77587	11238.4
2917.25702	11264.1
2919.73665	11235.7
2922.21476	11230.7
2924.69136	11211.7
2927.16644	11223.2
2929.64	11191.9
2932.11205	11168.1
2934.58258	11150.4
2937.05161	11175.6
2939.51912	11181.8
2941.98513	11164.8
2944.44962	11156.4
2946.91261	11143.2
2949.37409	11150
2951.83407	11115.3
2954.29254	11131.6
2956.74951	11110.6
2959.20498	11132.8
2961.65895	11122.9
2964.11142	11109.6
2966.56239	11083.5
2969.01186	11137.8
2971.45984	11092.1
2973.90632	11098.4
2976.35131	11071.4
2978.7948	11067.2
2981.23681	11043.3
2983.67732	11019.9
2986.11635	11019.4
2988.55388	10978.3
2990.98993	10975.8
2993.4245	10964.6
2995.85758	10920
2998.28917	10917.1
3000.71928	10891.7
3003.14791	10864.1
3005.57506	10866.3
3008.00073	10786.6
3010.42493	10815.8
3012.84764	10799.4
3015.26888	10793.9
3017.68865	10765.8
3020.10694	10746
3022.52376	10743.3
3024.9391	10700.6
3027.35298	10694.4
3029.76539	10722.5
3032.17632	10720.9
3034.5858	10691.8
3036.9938	10676.1
3039.40034	10662.6
3041.80542	10649.6
3044.20903	10629.4
3046.61118	10650
3049.01187	10619.3
3051.4111	10609.6
3053.80888	10568.2
3056.20519	10561.1
3058.60005	10532.5
3060.99345	10538.8
3063.3854	10506
3065.7759	10492.3
3068.16494	10480.9
3070.55254	10430.7
3072.93868	10418.8
3075.32338	10411.8
3077.70662	10381
3080.08842	10359.9
3082.46878	10360.2
3084.84769	10341.9
3087.22515	10334.4
3089.60118	10337.9
3091.97576	10358.3
3094.3489	10320.2
3096.72061	10340.9
3099.09087	10360.4
3101.4597	10340.4
3103.82709	10355.8
3106.19305	10341.4
3108.55757	10342.8
3110.92066	10352.5
3113.28232	10335.7
3115.64255	10302.7
3118.00134	10274.9
3120.35871	10279.4
3122.71466	10273.8
3125.06917	10259
3127.42226	10213.3
3129.77393	10244.9
3132.12417	10201.3
3134.47299	10200.3
3136.82039	10188.8
3139.16636	10178.8
3141.51092	10188.4
3143.85406	10199.3
3146.19579	10178.3
3148.53609	10232.5
3150.87499	10206.5
3153.21246	10217.6
3155.54853	10228.6
3157.88318	10234.8
3160.21642	10263.3
3162.54826	10261.1
3164.87868	10238.9
3167.2077	10239.1
3169.5353	10260.7
3171.86151	10248.2
3174.18631	10246.2
3176.5097	10252.4
3178.83169	10222
3181.15228	10225.6
3183.47147	10196.3
3185.78926	10194.9
3188.10565	10146
3190.42065	10148.7
3192.73424	10166.5
3195.04645	10138.1
3197.35725	10147.5
3199.66667	10121.5
3201.97469	10166.4
3204.28132	10137.4
3206.58656	10158.3
3208.8904	10156.3
3211.19287	10158.2
3213.49394	10152.3
3215.79363	10157.8
3218.09193	10167.2
3220.38884	10180.3
3222.68438	10174.7
3224.97853	10162.6
3227.2713	10159.7
3229.56269	10139.1
3231.8527	10118
3234.14133	10110.5
3236.42858	10121.3
3238.71446	10086.4
3240.99896	10068
3243.28209	10056.4
3245.56384	10031.5
3247.84423	10023.4
3250.12324	10017.7
3252.40088	10020.8
3254.67715	10025
3256.95205	10005.4
3259.22558	9986.8
3261.49775	10030.7
3263.76855	10012.5
3266.03799	9982.6
3268.30606	9992.7
3270.57277	9965.7
3272.83812	9938.5
3275.10211	9952.1
3277.36474	9888.5
3279.62601	9877.4
3281.88593	9871
3284.14448	9894.2
3286.40168	9888.9
3288.65753	9906.8
3290.91202	9868.8
3293.16516	9847.7
3295.41695	9824
3297.66738	9782
3299.91647	9759.3
3302.16421	9675.3
3304.4106	9652.6
3306.65564	9564.3
3308.89933	9511.3
3311.14169	9449.2
3313.38269	9365.4
3315.62236	9323.5
3317.86068	9263.8
3320.09766	9196.5
3322.3333	9118.8
3324.5676	9088.5
3326.80056	8959.1
3329.03219	8896.6
3331.26248	1.5
3333.49143	0
3335.71905	-0.6
