Data from AgNPs_UA_100uM_CRN_0uM_R6G_10uM_Q_RamanShift__9__13-22-55-319.txt Node

Date: Tue Jul 26 13:22:55 BST 2022
User: TCL
Spectrometer: QEP01345
Trigger mode: 4
Integration Time (sec): 7.000000E0
Scans to average: 10
Electric dark correction enabled: true
Nonlinearity correction enabled: false
Boxcar width: 0
XAxis mode: Raman Shifts
Number of Pixels in Spectrum: 1044
>>>>>Begin Spectral Data<<<<<
46.04893	-1.5125
50.45542	-0.1125
54.85868	-2.0125
59.25871	-1.2125
63.6555	65.8875
68.04907	74.7875
72.43941	75.7875
76.82654	82.5875
81.21044	86.9875
85.59113	89.1875
89.96862	93.7875
94.34289	97.1875
98.71396	98.1875
103.08183	102.6875
107.4465	103.8875
111.80798	103.6875
116.16626	108.1875
120.52136	108.1875
124.87327	109.8875
129.222	117.0875
133.56755	123.1875
137.90993	123.0875
142.24913	132.7875
146.58517	137.5875
150.91804	157.3875
155.24774	177.6875
159.57429	216.2875
163.89768	261.3875
168.21792	334.8875
172.53501	448.2875
176.84895	608.8875
181.15975	850.7875
185.46741	1178.4875
189.77193	1621.3875
194.07331	2171.9875
198.37157	2756.8875
202.6667	3407.9875
206.9587	4047.3875
211.24758	4658.1875
215.53334	5289.6875
219.81599	5947.4875
224.09553	6665.9875
228.37195	7466.1875
232.64527	8354.8875
236.91549	9285.6875
241.18261	10255.1875
245.44663	11116.4875
249.70755	11902.9875
253.96539	12585.4875
258.22014	13138.2875
262.4718	13552.9875
266.72039	13914.0875
270.96589	14051.2875
275.20832	14024.2875
279.44768	13936.4875
283.68397	13781.0875
287.91719	13650.5875
292.14735	13564.4875
296.37445	13563.0875
300.59849	13641.6875
304.81948	13770.3875
309.03742	13846.4875
313.25231	13851.4875
317.46415	13732.6875
321.67296	13469.0875
325.87872	13256.4875
330.08145	13139.7875
334.28114	13190.7875
338.47781	13307.0875
342.67145	13513.0875
346.86207	13723.7875
351.04966	13987.7875
355.23424	14274.1875
359.4158	14501.5875
363.59435	14711.1875
367.76989	14826.5875
371.94243	14951.7875
376.11196	15030.1875
380.27849	15114.9875
384.44203	15154.7875
388.60257	15256.3875
392.76012	15381.8875
396.91468	15523.1875
401.06626	15717.4875
405.21485	15891.8875
409.36047	15819.0875
413.50311	15655.3875
417.64277	15481.0875
421.77947	15460.8875
425.9132	15509.9875
430.04396	15585.9875
434.17176	15715.8875
438.2966	15830.7875
442.41849	16003.0875
446.53742	16226.6875
450.6534	16431.6875
454.76644	16585.4875
458.87653	16676.4875
462.98368	16685.3875
467.08789	16620.5875
471.18916	16587.1875
475.2875	16436.1875
479.38291	16333.9875
483.4754	16246.5875
487.56496	16175.7875
491.6516	16164.3875
495.73531	16179.1875
499.81612	16223.8875
503.89401	16325.4875
507.96899	16376.9875
512.04106	16419.2875
516.11023	16462.4875
520.1765	16501.7875
524.23987	16523.8875
528.30034	16493.7875
532.35792	16497.0875
536.41261	16481.5875
540.46441	16407.1875
544.51333	16390.1875
548.55936	16508.6875
552.60252	16680.8875
556.64279	16836.6875
560.6802	16908.9875
564.71473	16959.4875
568.7464	17042.9875
572.7752	17177.3875
576.80114	17228.5875
580.82422	17358.6875
584.84444	17557.1875
588.86181	17646.0875
592.87633	17683.5875
596.888	17815.0875
600.89682	18053.5875
604.9028	18826.8875
608.90594	20448.4875
612.90624	22051.1875
616.90371	21044.7875
620.89834	18475.0875
624.89015	17339.3875
628.87913	17276.8875
632.86528	17457.8875
636.84862	17633.7875
640.82913	17553.7875
644.80683	17295.4875
648.78172	17088.1875
652.75379	17085.2875
656.72306	17235.3875
660.68952	17466.8875
664.65319	17398.5875
668.61405	17190.0875
672.57211	17171.9875
676.52738	17209.7875
680.47986	17193.7875
684.42955	17108.0875
688.37646	17108.9875
692.32058	17150.3875
696.26192	17286.5875
700.20048	17414.2875
704.13626	17554.1875
708.06928	17541.9875
711.99952	17449.3875
715.927	17450.3875
719.85171	17466.5875
723.77365	17492.9875
727.69284	17464.0875
731.60928	17415.5875
735.52295	17430.4875
739.43388	17416.4875
743.34206	17458.1875
747.24749	17523.0875
751.15017	17580.1875
755.05012	17725.4875
758.94733	18018.9875
762.8418	18769.5875
766.73354	19880.2875
770.62254	20962.4875
774.50882	21245.9875
778.39237	20570.6875
782.27321	19488.9875
786.15132	18596.6875
790.02671	17986.5875
793.89938	17720.9875
797.76935	17563.0875
801.6366	17523.3875
805.50115	17520.6875
809.36299	17471.7875
813.22213	17433.1875
817.07857	17439.6875
820.93231	17460.0875
824.78336	17466.7875
828.63172	17476.5875
832.47738	17465.1875
836.32036	17430.9875
840.16066	17428.2875
843.99827	17450.2875
847.8332	17454.3875
851.66546	17478.6875
855.49504	17531.9875
859.32195	17535.4875
863.1462	17531.5875
866.96777	17561.5875
870.78668	17545.5875
874.60293	17607.8875
878.41652	17652.2875
882.22745	17731.9875
886.03573	17816.8875
889.84136	17840.7875
893.64433	17801.6875
897.44466	17705.4875
901.24235	17705.5875
905.0374	17698.5875
908.8298	17648.3875
912.61957	17610.1875
916.40671	17658.6875
920.19121	17775.8875
923.97308	17786.0875
927.75233	17812.1875
931.52895	17801.9875
935.30295	17715.0875
939.07433	17564.0875
942.84309	17443.0875
946.60924	17374.8875
950.37278	17349.5875
954.13371	17342.9875
957.89203	17293.5875
961.64774	17326.2875
965.40086	17282.5875
969.15137	17251.3875
972.89929	17263.6875
976.64461	17242.0875
980.38733	17216.9875
984.12747	17281.5875
987.86502	17333.0875
991.59999	17423.9875
995.33237	17484.7875
999.06217	17601.1875
1002.78939	17771.6875
1006.51404	17936.7875
1010.23611	18130.8875
1013.95561	18252.4875
1017.67255	18301.1875
1021.38692	18206.1875
1025.09872	18089.4875
1028.80796	17959.1875
1032.51465	17919.7875
1036.21877	17909.4875
1039.92035	17932.4875
1043.61937	17987.3875
1047.31584	18034.0875
1051.00976	18073.0875
1054.70114	18098.1875
1058.38998	18172.1875
1062.07627	18268.7875
1065.76003	18381.6875
1069.44126	18539.3875
1073.11995	18757.1875
1076.79611	18946.9875
1080.46974	19083.9875
1084.14085	19213.5875
1087.80943	19280.7875
1091.47549	19327.1875
1095.13903	19288.6875
1098.80005	19161.1875
1102.45857	18967.0875
1106.11456	18796.8875
1109.76805	18733.6875
1113.41903	18727.4875
1117.06751	18867.4875
1120.71348	19095.2875
1124.35696	19324.1875
1127.99793	19489.3875
1131.63641	19509.0875
1135.2724	19350.3875
1138.90589	19164.0875
1142.5369	19059.0875
1146.16542	18946.5875
1149.79145	18894.1875
1153.415	18837.4875
1157.03607	18818.0875
1160.65467	18913.5875
1164.27079	19230.3875
1167.88443	19630.9875
1171.49561	20240.2875
1175.10432	21090.3875
1178.71056	22206.2875
1182.31434	23249.8875
1185.91565	23751.7875
1189.51451	23952.7875
1193.11091	23719.7875
1196.70485	23238.1875
1200.29634	22658.9875
1203.88538	22035.4875
1207.47197	21450.8875
1211.05612	20895.9875
1214.63782	20437.5875
1218.21708	20194.6875
1221.79391	20040.1875
1225.36829	19922.9875
1228.94024	19918.7875
1232.50976	19926.1875
1236.07685	19896.8875
1239.6415	19950.7875
1243.20374	19972.6875
1246.76355	20027.8875
1250.32093	20105.5875
1253.8759	20285.9875
1257.42845	20624.3875
1260.97859	20960.9875
1264.52631	21248.0875
1268.07163	21532.0875
1271.61453	21791.5875
1275.15503	21964.1875
1278.69312	22083.9875
1282.22882	22193.0875
1285.76211	22296.0875
1289.29301	22590.6875
1292.82151	22896.6875
1296.34761	23277.4875
1299.87133	23821.0875
1303.39266	24556.4875
1306.9116	25554.0875
1310.42815	26545.9875
1313.94233	26982.7875
1317.45412	26738.4875
1320.96354	26158.9875
1324.47058	25577.0875
1327.97525	25012.0875
1331.47754	24767.2875
1334.97747	24675.1875
1338.47502	24825.7875
1341.97022	25252.2875
1345.46305	25857.1875
1348.95352	26588.0875
1352.44163	27378.9875
1355.92738	28209.2875
1359.41078	29274.3875
1362.89183	30160.9875
1366.37053	29542.1875
1369.84688	27415.7875
1373.32088	25015.6875
1376.79254	23417.1875
1380.26186	22539.4875
1383.72883	22030.4875
1387.19347	21644.7875
1390.65578	21268.6875
1394.11575	20877.1875
1397.57339	20583.0875
1401.0287	20377.2875
1404.48168	20311.9875
1407.93234	20314.1875
1411.38068	20344.1875
1414.82669	20315.6875
1418.27039	20183.3875
1421.71177	20014.2875
1425.15083	19826.9875
1428.58758	19702.2875
1432.02203	19742.8875
1435.45416	19805.3875
1438.88399	19858.8875
1442.31151	19936.0875
1445.73673	20028.9875
1449.15965	20114.5875
1452.58027	20141.1875
1455.9986	20142.3875
1459.41463	20226.2875
1462.82837	20459.7875
1466.23982	20737.9875
1469.64898	21050.9875
1473.05586	21365.4875
1476.46045	21588.1875
1479.86276	21738.5875
1483.26279	21887.7875
1486.66054	22116.7875
1490.05602	22407.7875
1493.44922	22871.9875
1496.84016	23666.6875
1500.22882	24824.9875
1503.61521	26305.1875
1506.99934	27741.1875
1510.38121	28494.5875
1513.76081	28261.3875
1517.13816	26969.7875
1520.51324	25466.9875
1523.88607	24204.0875
1527.25665	23438.6875
1530.62498	23026.6875
1533.99105	22772.6875
1537.35488	22654.3875
1540.71647	22438.8875
1544.07581	22246.8875
1547.4329	22066.3875
1550.78776	21852.8875
1554.14038	21705.7875
1557.49077	21682.4875
1560.83892	21738.4875
1564.18484	21909.5875
1567.52853	22121.6875
1570.86999	22360.3875
1574.20922	22493.8875
1577.54624	22390.7875
1580.88103	22002.2875
1584.2136	21447.7875
1587.54395	21179.1875
1590.87208	21237.2875
1594.19801	21685.8875
1597.52172	22272.7875
1600.84321	22538.7875
1604.16251	22363.6875
1607.47959	21967.3875
1610.79447	21431.6875
1614.10715	20733.2875
1617.41763	20034.4875
1620.7259	19479.3875
1624.03199	19118.8875
1627.33587	18988.9875
1630.63757	19046.9875
1633.93707	19364.5875
1637.23439	19978.8875
1640.52951	20999.6875
1643.82246	22265.4875
1647.11321	23546.5875
1650.40179	24230.2875
1653.68819	23749.3875
1656.97241	22278.1875
1660.25446	20615.7875
1663.53433	19327.5875
1666.81203	18501.4875
1670.08756	17970.3875
1673.36092	17621.8875
1676.63211	17412.8875
1679.90115	17232.2875
1683.16801	17068.1875
1686.43272	16956.4875
1689.69527	16861.1875
1692.95567	16764.1875
1696.2139	16735.2875
1699.46999	16687.1875
1702.72392	16645.2875
1705.97571	16623.3875
1709.22535	16587.6875
1712.47284	16555.6875
1715.71819	16526.4875
1718.96139	16530.0875
1722.20246	16494.4875
1725.44139	16421.9875
1728.67818	16392.5875
1731.91284	16342.3875
1735.14537	16275.0875
1738.37576	16210.8875
1741.60403	16169.4875
1744.83017	16164.4875
1748.05418	16121.9875
1751.27607	16082.5875
1754.49584	16046.1875
1757.71349	16030.4875
1760.92903	16031.6875
1764.14244	16038.2875
1767.35375	16044.4875
1770.56294	16000.8875
1773.77002	15979.0875
1776.97499	15960.5875
1780.17785	15922.0875
1783.37861	15918.6875
1786.57727	15899.4875
1789.77382	15897.5875
1792.96828	15895.1875
1796.16064	15835.7875
1799.3509	15825.5875
1802.53907	15829.7875
1805.72514	15784.6875
1808.90913	15725.7875
1812.09102	15711.1875
1815.27083	15683.3875
1818.44856	15673.7875
1821.6242	15652.1875
1824.79776	15609.9875
1827.96924	15592.0875
1831.13864	15554.8875
1834.30597	15598.7875
1837.47122	15529.4875
1840.6344	15540.3875
1843.7955	15558.6875
1846.95454	15513.4875
1850.11151	15495.9875
1853.26642	15530.9875
1856.41926	15468.6875
1859.57004	15486.6875
1862.71876	15442.2875
1865.86542	15449.6875
1869.01003	15427.9875
1872.15258	15437.7875
1875.29308	15416.9875
1878.43152	15406.3875
1881.56792	15373.8875
1884.70227	15329.6875
1887.83457	15316.0875
1890.96482	15317.4875
1894.09304	15281.8875
1897.21921	15277.6875
1900.34335	15232.7875
1903.46544	15259.4875
1906.58551	15218.6875
1909.70353	15206.5875
1912.81953	15228.5875
1915.93349	15164.6875
1919.04543	15149.8875
1922.15534	15171.5875
1925.26322	15145.8875
1928.36908	15119.5875
1931.47292	15053.6875
1934.57473	15043.6875
1937.67453	15020.1875
1940.77232	15005.9875
1943.86808	14944.9875
1946.96184	14915.7875
1950.05358	14843.7875
1953.14331	14816.4875
1956.23103	14796.0875
1959.31675	14730.9875
1962.40046	14710.2875
1965.48217	14626.2875
1968.56188	14618.8875
1971.63959	14582.6875
1974.7153	14522.4875
1977.78901	14492.2875
1980.86073	14446.8875
1983.93046	14431.2875
1986.99819	14370.4875
1990.06394	14371.9875
1993.1277	14294.7875
1996.18947	14254.6875
1999.24925	14202.5875
2002.30706	14154.6875
2005.36288	14124.5875
2008.41672	14093.0875
2011.46859	14036.6875
2014.51848	14015.5875
2017.56639	13967.9875
2020.61233	13951.2875
2023.6563	13921.9875
2026.6983	13903.7875
2029.73833	13846.5875
2032.7764	13805.4875
2035.8125	13765.8875
2038.84664	13743.8875
2041.87881	13742.0875
2044.90903	13724.0875
2047.93729	13668.2875
2050.96359	13687.0875
2053.98794	13661.9875
2057.01034	13652.4875
2060.03078	13648.6875
2063.04927	13627.2875
2066.06582	13602.1875
2069.08042	13602.2875
2072.09307	13612.8875
2075.10378	13593.3875
2078.11255	13584.0875
2081.11938	13611.0875
2084.12426	13601.3875
2087.12722	13594.5875
2090.12824	13567.9875
2093.12732	13558.9875
2096.12447	13590.9875
2099.11969	13558.5875
2102.11299	13586.5875
2105.10435	13577.1875
2108.09379	13609.4875
2111.08131	13593.5875
2114.0669	13583.6875
2117.05057	13603.1875
2120.03233	13657.3875
2123.01216	13622.3875
2125.99008	13671.3875
2128.96609	13658.8875
2131.94018	13695.3875
2134.91236	13691.2875
2137.88263	13701.3875
2140.851	13711.0875
2143.81746	13737.3875
2146.78201	13726.3875
2149.74466	13717.7875
2152.7054	13731.9875
2155.66425	13710.1875
2158.6212	13726.2875
2161.57625	13699.1875
2164.52941	13718.7875
2167.48067	13687.8875
2170.43004	13673.8875
2173.37752	13659.3875
2176.32311	13668.0875
2179.26681	13681.9875
2182.20863	13686.6875
2185.14856	13681.5875
2188.08661	13643.7875
2191.02278	13651.9875
2193.95707	13656.4875
2196.88948	13655.6875
2199.82001	13669.8875
2202.74867	13636.6875
2205.67545	13630.0875
2208.60037	13618.2875
2211.52341	13592.4875
2214.44458	13559.5875
2217.36388	13539.3875
2220.28132	13475.2875
2223.1969	13442.8875
2226.11061	13436.2875
2229.02246	13420.9875
2231.93245	13409.8875
2234.84058	13377.4875
2237.74686	13359.1875
2240.65128	13334.1875
2243.55385	13321.3875
2246.45456	13310.2875
2249.35343	13321.2875
2252.25044	13309.0875
2255.14561	13283.5875
2258.03893	13256.3875
2260.93041	13251.1875
2263.82004	13175.9875
2266.70783	13188.5875
2269.59378	13160.8875
2272.4779	13175.3875
2275.36017	13124.8875
2278.24061	13091.3875
2281.11922	13052.0875
2283.996	13022.2875
2286.87094	13034.4875
2289.74405	12966.5875
2292.61534	12993.0875
2295.4848	12971.0875
2298.35243	12937.0875
2301.21824	12938.5875
2304.08223	12949.0875
2306.94439	12931.9875
2309.80474	12924.0875
2312.66327	12937.3875
2315.51999	12885.1875
2318.37489	12885.9875
2321.22797	12844.1875
2324.07925	12833.5875
2326.92871	12852.6875
2329.77637	12801.5875
2332.62222	12774.4875
2335.46626	12754.1875
2338.3085	12723.1875
2341.14893	12706.4875
2343.98756	12716.5875
2346.8244	12695.0875
2349.65943	12709.9875
2352.49267	12685.6875
2355.32411	12644.7875
2358.15376	12633.4875
2360.98161	12650.9875
2363.80768	12617.9875
2366.63195	12628.3875
2369.45444	12642.0875
2372.27514	12618.4875
2375.09405	12613.9875
2377.91118	12594.7875
2380.72652	12572.4875
2383.54009	12541.8875
2386.35187	12544.5875
2389.16188	12497.1875
2391.97011	12472.0875
2394.77657	12437.7875
2397.58125	12425.4875
2400.38416	12397.9875
2403.18529	12401.3875
2405.98466	12375.6875
2408.78226	12323.3875
2411.57809	12336.7875
2414.37216	12318.0875
2417.16446	12353.4875
2419.955	12311.6875
2422.74378	12290.0875
2425.5308	12283.5875
2428.31606	12295.7875
2431.09956	12284.9875
2433.88131	12275.1875
2436.6613	12250.8875
2439.43954	12233.0875
2442.21603	12221.5875
2444.99077	12227.0875
2447.76377	12227.0875
2450.53501	12193.5875
2453.30451	12150.6875
2456.07226	12121.1875
2458.83827	12140.4875
2461.60254	12147.1875
2464.36507	12111.7875
2467.12586	12115.6875
2469.88492	12096.4875
2472.64224	12104.3875
2475.39782	12090.5875
2478.15167	12091.3875
2480.90379	12090.0875
2483.65417	12064.0875
2486.40283	12079.2875
2489.14976	12086.6875
2491.89497	12038.7875
2494.63845	12005.3875
2497.3802	12030.6875
2500.12024	12015.9875
2502.85855	12017.5875
2505.59514	11997.7875
2508.33002	11967.7875
2511.06318	11965.5875
2513.79462	11953.1875
2516.52435	11921.8875
2519.25237	11941.2875
2521.97867	11910.6875
2524.70327	11884.4875
2527.42616	11852.7875
2530.14734	11890.4875
2532.86681	11839.5875
2535.58458	11819.9875
2538.30065	11790.6875
2541.01501	11794.3875
2543.72768	11761.2875
2546.43864	11759.1875
2549.14791	11718.2875
2551.85548	11754.8875
2554.56136	11717.2875
2557.26554	11680.3875
2559.96803	11669.9875
2562.66883	11656.6875
2565.36794	11621.7875
2568.06536	11613.5875
2570.7611	11595.0875
2573.45514	11549.1875
2576.14751	11543.5875
2578.83819	11568.2875
2581.52719	11504.0875
2584.21451	11500.2875
2586.90015	11499.1875
2589.58411	11452.7875
2592.2664	11464.3875
2594.94701	11412.6875
2597.62594	11404.6875
2600.30321	11391.3875
2602.9788	11365.0875
2605.65273	11363.5875
2608.32498	11340.6875
2610.99557	11350.9875
2613.66449	11346.7875
2616.33175	11300.5875
2618.99734	11287.0875
2621.66128	11288.8875
2624.32355	11223.0875
2626.98416	11226.2875
2629.64311	11217.5875
2632.30041	11220.9875
2634.95605	11177.8875
2637.61004	11156.2875
2640.26238	11146.6875
2642.91306	11163.0875
2645.56209	11147.6875
2648.20948	11142.7875
2650.85521	11136.8875
2653.4993	11130.2875
2656.14175	11117.8875
2658.78255	11150.5875
2661.42171	11113.2875
2664.05923	11116.3875
2666.6951	11135.2875
2669.32934	11155.3875
2671.96194	11126.9875
2674.59291	11109.9875
2677.22224	11113.0875
2679.84993	11125.5875
2682.476	11108.3875
2685.10043	11109.0875
2687.72324	11075.4875
2690.34441	11094.9875
2692.96396	11087.7875
2695.58188	11104.2875
2698.19818	11055.1875
2700.81285	11079.0875
2703.4259	11058.3875
2706.03733	11077.9875
2708.64714	11071.2875
2711.25533	11085.0875
2713.86191	11099.3875
2716.46687	11116.3875
2719.07021	11063.2875
2721.67194	11078.3875
2724.27206	11074.1875
2726.87057	11080.5875
2729.46747	11079.5875
2732.06276	11070.5875
2734.65644	11068.4875
2737.24852	11077.2875
2739.83899	11047.1875
2742.42786	11055.5875
2745.01513	11034.8875
2747.60079	10984.2875
2750.18486	10959.3875
2752.76733	10988.2875
2755.3482	10957.8875
2757.92747	10939.8875
2760.50515	10946.4875
2763.08123	10940.4875
2765.65573	10917.8875
2768.22863	10906.4875
2770.79994	10890.5875
2773.36967	10881.7875
2775.9378	10856.2875
2778.50435	10852.1875
2781.06932	10837.7875
2783.6327	10810.6875
2786.1945	10799.5875
2788.75471	10779.8875
2791.31335	10755.1875
2793.87041	10741.2875
2796.42589	10719.4875
2798.97979	10731.1875
2801.53212	10687.7875
2804.08288	10665.4875
2806.63206	10639.5875
2809.17967	10614.4875
2811.72571	10594.1875
2814.27018	10585.6875
2816.81308	10539.2875
2819.35442	10542.7875
2821.89419	10496.4875
2824.43239	10502.4875
2826.96904	10494.8875
2829.50412	10462.0875
2832.03763	10411.8875
2834.56959	10415.0875
2837.1	10432.7875
2839.62884	10432.8875
2842.15613	10418.5875
2844.68186	10405.0875
2847.20604	10404.8875
2849.72867	10368.3875
2852.24974	10367.4875
2854.76927	10365.1875
2857.28724	10336.3875
2859.80367	10317.1875
2862.31855	10303.3875
2864.83189	10319.1875
2867.34368	10297.6875
2869.85393	10280.4875
2872.36264	10245.0875
2874.8698	10234.0875
2877.37543	10247.0875
2879.87952	10218.2875
2882.38207	10246.4875
2884.88308	10229.5875
2887.38256	10225.9875
2889.88051	10230.6875
2892.37692	10222.9875
2894.8718	10201.7875
2897.36515	10232.9875
2899.85698	10211.7875
2902.34727	10230.5875
2904.83604	10233.7875
2907.32328	10276.8875
2909.809	10252.0875
2912.29319	10260.8875
2914.77587	10231.0875
2917.25702	10267.4875
2919.73665	10248.3875
2922.21476	10208.1875
2924.69136	10229.3875
2927.16644	10194.9875
2929.64	10225.0875
2932.11205	10179.7875
2934.58258	10146.1875
2937.05161	10164.0875
2939.51912	10178.6875
2941.98513	10158.0875
2944.44962	10172.4875
2946.91261	10129.3875
2949.37409	10132.3875
2951.83407	10108.2875
2954.29254	10114.8875
2956.74951	10149.4875
2959.20498	10154.4875
2961.65895	10096.3875
2964.11142	10126.7875
2966.56239	10096.5875
2969.01186	10126.4875
2971.45984	10094.7875
2973.90632	10092.9875
2976.35131	10078.2875
2978.7948	10078.0875
2981.23681	10040.9875
2983.67732	10041.1875
2986.11635	10013.4875
2988.55388	10004.7875
2990.98993	9979.5875
2993.4245	9962.4875
2995.85758	9948.5875
2998.28917	9927.9875
3000.71928	9905.4875
3003.14791	9871.2875
3005.57506	9876.0875
3008.00073	9829.8875
3010.42493	9858.2875
3012.84764	9825.5875
3015.26888	9836.6875
3017.68865	9821.7875
3020.10694	9793.5875
3022.52376	9750.0875
3024.9391	9725.8875
3027.35298	9737.7875
3029.76539	9751.3875
3032.17632	9732.9875
3034.5858	9716.0875
3036.9938	9685.0875
3039.40034	9689.2875
3041.80542	9694.8875
3044.20903	9686.6875
3046.61118	9679.1875
3049.01187	9643.6875
3051.4111	9621.0875
3053.80888	9609.9875
3056.20519	9585.8875
3058.60005	9579.7875
3060.99345	9571.4875
3063.3854	9570.8875
3065.7759	9519.6875
3068.16494	9525.2875
3070.55254	9473.3875
3072.93868	9482.6875
3075.32338	9444.6875
3077.70662	9434.9875
3080.08842	9391.7875
3082.46878	9394.7875
3084.84769	9373.2875
3087.22515	9400.8875
3089.60118	9413.6875
3091.97576	9409.6875
3094.3489	9386.8875
3096.72061	9376.1875
3099.09087	9411.6875
3101.4597	9399.7875
3103.82709	9410.2875
3106.19305	9407.1875
3108.55757	9412.7875
3110.92066	9405.1875
3113.28232	9373.4875
3115.64255	9365.6875
3118.00134	9341.5875
3120.35871	9322.2875
3122.71466	9336.9875
3125.06917	9294.8875
3127.42226	9281.2875
3129.77393	9282.2875
3132.12417	9279.6875
3134.47299	9273.9875
3136.82039	9250.5875
3139.16636	9261.5875
3141.51092	9249.5875
3143.85406	9248.4875
3146.19579	9273.3875
3148.53609	9267.7875
3150.87499	9285.0875
3153.21246	9282.2875
3155.54853	9312.0875
3157.88318	9308.3875
3160.21642	9321.2875
3162.54826	9298.5875
3164.87868	9338.1875
3167.2077	9319.2875
3169.5353	9312.3875
3171.86151	9317.3875
3174.18631	9288.1875
3176.5097	9297.7875
3178.83169	9313.5875
3181.15228	9276.9875
3183.47147	9268.8875
3185.78926	9245.0875
3188.10565	9236.5875
3190.42065	9216.4875
3192.73424	9233.1875
3195.04645	9197.6875
3197.35725	9210.7875
3199.66667	9195.2875
3201.97469	9200.4875
3204.28132	9193.9875
3206.58656	9208.3875
3208.8904	9217.9875
3211.19287	9210.5875
3213.49394	9203.6875
3215.79363	9237.6875
3218.09193	9232.7875
3220.38884	9225.1875
3222.68438	9244.1875
3224.97853	9219.7875
3227.2713	9214.8875
3229.56269	9211.0875
3231.8527	9197.7875
3234.14133	9162.8875
3236.42858	9146.8875
3238.71446	9178.8875
3240.99896	9106.3875
3243.28209	9105.0875
3245.56384	9091.3875
3247.84423	9101.6875
3250.12324	9069.3875
3252.40088	9074.0875
3254.67715	9065.1875
3256.95205	9048.5875
3259.22558	9058.3875
3261.49775	9066.3875
3263.76855	9063.1875
3266.03799	9068.8875
3268.30606	9046.4875
3270.57277	9005.1875
3272.83812	8998.8875
3275.10211	8985.3875
3277.36474	8954.4875
3279.62601	8948.5875
3281.88593	8938.0875
3284.14448	8944.4875
3286.40168	8937.8875
3288.65753	8914.5875
3290.91202	8914.8875
3293.16516	8912.8875
3295.41695	8879.4875
3297.66738	8829.2875
3299.91647	8762.5875
3302.16421	8724.8875
3304.4106	8725.4875
3306.65564	8651.5875
3308.89933	8573.3875
3311.14169	8534.0875
3313.38269	8439.1875
3315.62236	8419.4875
3317.86068	8366.0875
3320.09766	8315.1875
3322.3333	8241.4875
3324.5676	8204.2875
3326.80056	8083.7875
3329.03219	8040.3875
3331.26248	3.1875
3333.49143	1.5875
3335.71905	-0.5125
