Data from AgNPs_UA_10uM_CRN_0uM_R6G_10uM_Q_RamanShift__26__12-19-02-656.txt Node

Date: Mon Jul 18 12:19:02 BST 2022
User: TCL
Spectrometer: QEP01345
Trigger mode: 4
Integration Time (sec): 7.000000E0
Scans to average: 10
Electric dark correction enabled: true
Nonlinearity correction enabled: false
Boxcar width: 0
XAxis mode: Raman Shifts
Number of Pixels in Spectrum: 1044
>>>>>Begin Spectral Data<<<<<
46.04893	0.375
50.45542	-1.925
54.85868	-2.425
59.25871	-2.325
63.6555	108.775
68.04907	114.375
72.43941	118.975
76.82654	124.175
81.21044	127.875
85.59113	129.275
89.96862	137.475
94.34289	145.975
98.71396	144.375
103.08183	150.775
107.4465	158.075
111.80798	155.475
116.16626	160.575
120.52136	171.475
124.87327	175.875
129.222	185.275
133.56755	200.375
137.90993	215.975
142.24913	231.175
146.58517	261.575
150.91804	302.575
155.24774	360.375
159.57429	448.775
163.89768	576.775
168.21792	762.075
172.53501	1045.075
176.84895	1438.675
181.15975	2022.175
185.46741	2828.175
189.77193	3897.075
194.07331	5180.975
198.37157	6647.075
202.6667	8173.475
206.9587	9685.075
211.24758	11204.575
215.53334	12733.375
219.81599	14387.075
224.09553	16273.775
228.37195	18427.875
232.64527	20653.575
236.91549	23034.275
241.18261	25298.075
245.44663	27356.575
249.70755	29168.275
253.96539	30755.075
258.22014	32098.375
262.4718	33165.275
266.72039	33975.275
270.96589	34336.475
275.20832	34425.475
279.44768	34210.875
283.68397	33825.375
287.91719	33542.775
292.14735	33499.875
296.37445	33711.775
300.59849	34109.875
304.81948	34598.275
309.03742	34766.675
313.25231	34451.975
317.46415	33433.375
321.67296	32019.875
325.87872	31071.975
330.08145	30589.975
334.28114	30718.075
338.47781	31163.875
342.67145	31805.675
346.86207	32562.575
351.04966	33637.175
355.23424	34919.175
359.4158	35877.275
363.59435	36480.975
367.76989	36804.775
371.94243	36948.575
376.11196	37007.475
380.27849	37098.575
384.44203	37119.175
388.60257	37044.175
392.76012	37154.575
396.91468	37643.775
401.06626	38382.275
405.21485	38947.775
409.36047	38596.775
413.50311	37614.775
417.64277	36916.175
421.77947	36709.675
425.9132	36684.575
430.04396	36862.275
434.17176	37210.675
438.2966	37803.275
442.41849	38768.375
446.53742	40063.175
450.6534	41322.275
454.76644	42220.375
458.87653	42433.675
462.98368	41989.075
467.08789	41231.675
471.18916	40291.075
475.2875	39389.675
479.38291	38850.575
483.4754	38355.875
487.56496	37765.675
491.6516	37312.175
495.73531	36868.975
499.81612	36763.075
503.89401	37004.775
507.96899	37104.175
512.04106	37189.575
516.11023	37436.875
520.1765	37512.075
524.23987	37394.975
528.30034	37088.175
532.35792	36752.575
536.41261	36259.675
540.46441	35816.375
544.51333	35812.875
548.55936	36233.575
552.60252	37058.575
556.64279	37856.575
560.6802	38299.875
564.71473	38668.875
568.7464	39588.175
572.7752	40229.675
576.80114	40126.575
580.82422	39956.275
584.84444	40339.275
588.86181	40989.375
592.87633	42039.975
596.888	42880.975
600.89682	43853.475
604.9028	47104.975
608.90594	54451.975
612.90624	60656.875
616.90371	54976.675
620.89834	43956.775
624.89015	39919.675
628.87913	39485.075
632.86528	39291.575
636.84862	38648.775
640.82913	37749.475
644.80683	36517.375
648.78172	35777.375
652.75379	35945.675
656.72306	36878.275
660.68952	37852.075
664.65319	37514.775
668.61405	36706.975
672.57211	36428.975
676.52738	36379.675
680.47986	36259.475
684.42955	36086.075
688.37646	36092.975
692.32058	36311.975
696.26192	36682.175
700.20048	37085.575
704.13626	37268.075
708.06928	37014.575
711.99952	36768.675
715.927	36677.875
719.85171	36730.475
723.77365	36457.775
727.69284	36132.475
731.60928	35951.175
735.52295	36055.775
739.43388	36245.975
743.34206	36553.875
747.24749	36811.675
751.15017	37175.175
755.05012	37890.775
758.94733	39386.775
762.8418	42355.775
766.73354	46770.575
770.62254	50696.875
774.50882	51638.475
778.39237	48818.075
782.27321	44132.975
786.15132	40216.575
790.02671	38004.275
793.89938	37008.275
797.76935	36644.875
801.6366	36608.575
805.50115	36348.675
809.36299	36122.775
813.22213	35878.375
817.07857	35843.075
820.93231	35913.075
824.78336	35952.075
828.63172	36123.075
832.47738	36205.275
836.32036	36314.775
840.16066	36551.275
843.99827	36667.475
847.8332	36470.675
851.66546	36225.575
855.49504	36083.575
859.32195	36019.575
863.1462	35864.575
866.96777	35645.175
870.78668	35566.575
874.60293	35582.775
878.41652	35626.675
882.22745	35848.075
886.03573	35975.875
889.84136	35848.475
893.64433	35661.175
897.44466	35593.075
901.24235	35543.175
905.0374	35448.275
908.8298	35428.275
912.61957	35499.775
916.40671	35866.875
920.19121	36405.875
923.97308	37094.675
927.75233	37498.875
931.52895	37593.475
935.30295	37060.975
939.07433	36100.075
942.84309	35466.775
946.60924	35215.175
950.37278	35029.475
954.13371	34767.175
957.89203	34567.275
961.64774	34457.975
965.40086	34406.775
969.15137	34281.575
972.89929	34203.475
976.64461	34245.375
980.38733	34388.475
984.12747	34663.775
987.86502	34986.175
991.59999	35514.775
995.33237	36452.975
999.06217	38180.375
1002.78939	39958.575
1006.51404	40781.575
1010.23611	41061.075
1013.95561	41396.375
1017.67255	41475.175
1021.38692	41209.775
1025.09872	41197.275
1028.80796	42236.075
1032.51465	44131.375
1036.21877	45491.075
1039.92035	45173.775
1043.61937	43881.575
1047.31584	41983.575
1051.00976	40238.775
1054.70114	39420.175
1058.38998	39258.875
1062.07627	39217.075
1065.76003	39185.075
1069.44126	39251.475
1073.11995	39604.575
1076.79611	39971.875
1080.46974	40352.875
1084.14085	40845.875
1087.80943	41397.175
1091.47549	41434.675
1095.13903	40835.975
1098.80005	39968.075
1102.45857	39220.475
1106.11456	38910.975
1109.76805	39091.875
1113.41903	39622.075
1117.06751	40372.675
1120.71348	41225.275
1124.35696	42076.175
1127.99793	42675.975
1131.63641	42487.375
1135.2724	41670.275
1138.90589	40907.475
1142.5369	40420.775
1146.16542	40176.475
1149.79145	40164.575
1153.415	40483.475
1157.03607	41037.275
1160.65467	41934.775
1164.27079	43366.975
1167.88443	45594.375
1171.49561	48831.175
1175.10432	53544.875
1178.71056	59408.275
1182.31434	64477.175
1185.91565	66767.175
1189.51451	65994.775
1193.11091	62675.075
1196.70485	58636.875
1200.29634	55390.675
1203.88538	52778.675
1207.47197	50458.375
1211.05612	48844.275
1214.63782	48251.875
1218.21708	48485.775
1221.79391	49052.675
1225.36829	49353.975
1228.94024	48864.275
1232.50976	48004.775
1236.07685	47341.975
1239.6415	47188.775
1243.20374	47255.375
1246.76355	47707.375
1250.32093	48522.875
1253.8759	49799.175
1257.42845	51456.075
1260.97859	52804.675
1264.52631	53999.675
1268.07163	55262.775
1271.61453	56728.675
1275.15503	58627.675
1278.69312	60514.675
1282.22882	62000.375
1285.76211	63320.375
1289.29301	64636.075
1292.82151	66155.475
1296.34761	68379.375
1299.87133	71765.275
1303.39266	76798.975
1306.9116	83732.075
1310.42815	90893.075
1313.94233	94697.475
1317.45412	93495.575
1320.96354	89355.275
1324.47058	84756.575
1327.97525	80959.875
1331.47754	78724.675
1334.97747	78045.075
1338.47502	78536.975
1341.97022	79404.175
1345.46305	80031.075
1348.95352	80294.575
1352.44163	81482.375
1355.92738	84987.975
1359.41078	91322.375
1362.89183	96523.675
1366.37053	93222.675
1369.84688	83034.775
1373.32088	72976.475
1376.79254	66300.375
1380.26186	63004.475
1383.72883	61459.975
1387.19347	60398.975
1390.65578	59309.575
1394.11575	58855.075
1397.57339	59365.275
1401.0287	60582.375
1404.48168	61885.875
1407.93234	62942.275
1411.38068	63559.075
1414.82669	63041.175
1418.27039	61210.675
1421.71177	58889.175
1425.15083	56926.975
1428.58758	56007.475
1432.02203	56226.775
1435.45416	56974.275
1438.88399	57634.575
1442.31151	58115.375
1445.73673	58550.875
1449.15965	58963.175
1452.58027	58976.975
1455.9986	58814.175
1459.41463	58863.975
1462.82837	59483.075
1466.23982	60722.675
1469.64898	61863.675
1473.05586	62820.975
1476.46045	63372.175
1479.86276	63836.775
1483.26279	64290.975
1486.66054	64682.275
1490.05602	65637.175
1493.44922	66959.075
1496.84016	68579.375
1500.22882	70900.375
1503.61521	74291.375
1506.99934	78499.575
1510.38121	81939.875
1513.76081	82911.575
1517.13816	79949.275
1520.51324	74800.175
1523.88607	70103.575
1527.25665	67039.075
1530.62498	65215.075
1533.99105	64235.875
1537.35488	63595.475
1540.71647	63130.775
1544.07581	62637.675
1547.4329	61905.775
1550.78776	61015.075
1554.14038	60220.875
1557.49077	59713.975
1560.83892	59653.875
1564.18484	59823.075
1567.52853	60107.675
1570.86999	60240.775
1574.20922	60552.875
1577.54624	60428.375
1580.88103	59418.175
1584.2136	58752.775
1587.54395	59624.775
1590.87208	62864.475
1594.19801	67980.675
1597.52172	73224.575
1600.84321	75506.675
1604.16251	72902.075
1607.47959	67279.575
1610.79447	60931.975
1614.10715	55337.475
1617.41763	51223.875
1620.7259	48790.475
1624.03199	47730.875
1627.33587	47946.175
1630.63757	49593.775
1633.93707	52418.875
1637.23439	56560.975
1640.52951	61559.475
1643.82246	66941.475
1647.11321	71149.675
1650.40179	71853.875
1653.68819	67434.775
1656.97241	59481.975
1660.25446	51731.775
1663.53433	46058.775
1666.81203	42512.975
1670.08756	40268.175
1673.36092	38917.575
1676.63211	37913.575
1679.90115	37219.875
1683.16801	36712.675
1686.43272	36324.575
1689.69527	36062.975
1692.95567	35869.875
1696.2139	35694.975
1699.46999	35601.775
1702.72392	35519.675
1705.97571	35451.475
1709.22535	35448.375
1712.47284	35485.175
1715.71819	35458.675
1718.96139	35404.075
1722.20246	35219.375
1725.44139	35111.375
1728.67818	34942.575
1731.91284	34699.375
1735.14537	34575.275
1738.37576	34451.175
1741.60403	34399.375
1744.83017	34322.875
1748.05418	34214.275
1751.27607	34181.975
1754.49584	34126.775
1757.71349	34078.375
1760.92903	34079.075
1764.14244	34049.575
1767.35375	34079.675
1770.56294	34008.175
1773.77002	33963.375
1776.97499	33971.975
1780.17785	33950.075
1783.37861	33878.975
1786.57727	33829.175
1789.77382	33828.175
1792.96828	33796.775
1796.16064	33774.475
1799.3509	33805.675
1802.53907	33667.975
1805.72514	33617.675
1808.90913	33546.275
1812.09102	33488.775
1815.27083	33397.775
1818.44856	33331.475
1821.6242	33385.775
1824.79776	33302.975
1827.96924	33283.775
1831.13864	33266.575
1834.30597	33249.675
1837.47122	33269.275
1840.6344	33272.875
1843.7955	33301.775
1846.95454	33209.375
1850.11151	33247.875
1853.26642	33224.675
1856.41926	33207.175
1859.57004	33295.675
1862.71876	33253.775
1865.86542	33257.875
1869.01003	33314.075
1872.15258	33354.775
1875.29308	33296.975
1878.43152	33299.575
1881.56792	33304.775
1884.70227	33288.475
1887.83457	33306.475
1890.96482	33335.675
1894.09304	33298.175
1897.21921	33333.775
1900.34335	33297.775
1903.46544	33266.075
1906.58551	33244.975
1909.70353	33241.275
1912.81953	33262.575
1915.93349	33276.575
1919.04543	33287.975
1922.15534	33249.775
1925.26322	33147.375
1928.36908	33076.075
1931.47292	33026.075
1934.57473	32955.575
1937.67453	32813.575
1940.77232	32779.475
1943.86808	32689.575
1946.96184	32615.575
1950.05358	32478.375
1953.14331	32323.975
1956.23103	32237.075
1959.31675	32147.375
1962.40046	32137.575
1965.48217	32027.375
1968.56188	31962.675
1971.63959	31927.575
1974.7153	31826.875
1977.78901	31731.975
1980.86073	31583.875
1983.93046	31530.075
1986.99819	31436.275
1990.06394	31371.875
1993.1277	31249.375
1996.18947	31157.275
1999.24925	31166.375
2002.30706	31077.775
2005.36288	31022.975
2008.41672	30987.175
2011.46859	30867.475
2014.51848	30810.375
2017.56639	30725.775
2020.61233	30706.775
2023.6563	30616.575
2026.6983	30482.775
2029.73833	30471.675
2032.7764	30411.775
2035.8125	30441.275
2038.84664	30349.275
2041.87881	30322.575
2044.90903	30272.575
2047.93729	30202.275
2050.96359	30211.975
2053.98794	30142.375
2057.01034	30129.575
2060.03078	30129.875
2063.04927	30141.575
2066.06582	30106.375
2069.08042	30077.075
2072.09307	30004.375
2075.10378	29994.875
2078.11255	29991.375
2081.11938	29991.775
2084.12426	29948.875
2087.12722	29950.075
2090.12824	29909.775
2093.12732	29910.275
2096.12447	29951.275
2099.11969	29909.275
2102.11299	29970.475
2105.10435	29968.675
2108.09379	29947.175
2111.08131	29994.975
2114.0669	29922.675
2117.05057	29985.575
2120.03233	30046.475
2123.01216	30066.375
2125.99008	30070.575
2128.96609	30131.775
2131.94018	30204.575
2134.91236	30201.075
2137.88263	30274.375
2140.851	30227.975
2143.81746	30302.275
2146.78201	30318.775
2149.74466	30351.275
2152.7054	30379.475
2155.66425	30307.175
2158.6212	30369.575
2161.57625	30336.175
2164.52941	30302.075
2167.48067	30295.575
2170.43004	30260.175
2173.37752	30283.275
2176.32311	30246.175
2179.26681	30256.675
2182.20863	30348.575
2185.14856	30401.975
2188.08661	30367.375
2191.02278	30382.575
2193.95707	30408.075
2196.88948	30413.375
2199.82001	30421.375
2202.74867	30368.375
2205.67545	30369.575
2208.60037	30362.375
2211.52341	30322.675
2214.44458	30318.675
2217.36388	30349.575
2220.28132	30335.375
2223.1969	30246.575
2226.11061	30182.975
2229.02246	30110.975
2231.93245	30109.675
2234.84058	30037.875
2237.74686	29965.775
2240.65128	29919.975
2243.55385	29876.475
2246.45456	29879.575
2249.35343	29838.675
2252.25044	29827.075
2255.14561	29788.375
2258.03893	29808.575
2260.93041	29730.175
2263.82004	29678.875
2266.70783	29652.575
2269.59378	29551.875
2272.4779	29432.075
2275.36017	29412.275
2278.24061	29363.775
2281.11922	29318.675
2283.996	29272.975
2286.87094	29280.175
2289.74405	29197.775
2292.61534	29237.175
2295.4848	29212.275
2298.35243	29261.775
2301.21824	29278.375
2304.08223	29301.575
2306.94439	29313.075
2309.80474	29387.375
2312.66327	29385.675
2315.51999	29438.075
2318.37489	29459.875
2321.22797	29443.075
2324.07925	29389.475
2326.92871	29379.175
2329.77637	29361.075
2332.62222	29413.075
2335.46626	29483.175
2338.3085	29457.575
2341.14893	29521.675
2343.98756	29550.075
2346.8244	29603.675
2349.65943	29691.375
2352.49267	29640.375
2355.32411	29639.375
2358.15376	29588.875
2360.98161	29603.675
2363.80768	29536.675
2366.63195	29521.875
2369.45444	29411.575
2372.27514	29371.675
2375.09405	29276.675
2377.91118	29202.175
2380.72652	29123.475
2383.54009	29010.975
2386.35187	29018.175
2389.16188	28960.875
2391.97011	28998.075
2394.77657	28877.075
2397.58125	28836.375
2400.38416	28868.075
2403.18529	28839.975
2405.98466	28808.875
2408.78226	28670.675
2411.57809	28637.275
2414.37216	28587.475
2417.16446	28587.575
2419.955	28497.075
2422.74378	28459.175
2425.5308	28383.275
2428.31606	28370.175
2431.09956	28372.575
2433.88131	28349.675
2436.6613	28399.375
2439.43954	28405.775
2442.21603	28360.875
2444.99077	28300.075
2447.76377	28326.775
2450.53501	28306.475
2453.30451	28310.575
2456.07226	28262.075
2458.83827	28244.975
2461.60254	28303.375
2464.36507	28237.375
2467.12586	28222.775
2469.88492	28244.375
2472.64224	28250.575
2475.39782	28245.875
2478.15167	28338.275
2480.90379	28379.275
2483.65417	28450.275
2486.40283	28516.675
2489.14976	28597.975
2491.89497	28624.975
2494.63845	28639.875
2497.3802	28634.775
2500.12024	28620.575
2502.85855	28562.875
2505.59514	28552.375
2508.33002	28510.475
2511.06318	28402.275
2513.79462	28382.775
2516.52435	28340.475
2519.25237	28334.875
2521.97867	28347.975
2524.70327	28342.975
2527.42616	28301.675
2530.14734	28319.675
2532.86681	28316.775
2535.58458	28357.175
2538.30065	28336.475
2541.01501	28339.675
2543.72768	28358.475
2546.43864	28307.175
2549.14791	28214.875
2551.85548	28205.875
2554.56136	28141.175
2557.26554	28191.075
2559.96803	28149.175
2562.66883	28112.975
2565.36794	28109.175
2568.06536	28113.375
2570.7611	28137.875
2573.45514	28118.275
2576.14751	28132.375
2578.83819	28079.075
2581.52719	28064.675
2584.21451	28067.775
2586.90015	28111.275
2589.58411	28150.075
2592.2664	28154.375
2594.94701	28186.675
2597.62594	28184.775
2600.30321	28130.875
2602.9788	28145.075
2605.65273	28077.775
2608.32498	28072.475
2610.99557	28111.375
2613.66449	28144.975
2616.33175	28121.775
2618.99734	28158.475
2621.66128	28173.275
2624.32355	28208.675
2626.98416	28258.475
2629.64311	28247.575
2632.30041	28242.375
2634.95605	28177.175
2637.61004	28149.375
2640.26238	28135.975
2642.91306	28124.575
2645.56209	28077.375
2648.20948	28039.175
2650.85521	27994.475
2653.4993	27993.575
2656.14175	27971.475
2658.78255	27979.075
2661.42171	28032.675
2664.05923	28098.475
2666.6951	28110.675
2669.32934	28111.475
2671.96194	28120.275
2674.59291	28125.875
2677.22224	28137.175
2679.84993	28151.275
2682.476	28081.775
2685.10043	28109.375
2687.72324	28020.875
2690.34441	28024.175
2692.96396	28014.375
2695.58188	27992.275
2698.19818	27895.875
2700.81285	27911.575
2703.4259	27901.775
2706.03733	27948.975
2708.64714	28008.675
2711.25533	27990.275
2713.86191	27989.375
2716.46687	28042.075
2719.07021	28021.475
2721.67194	28056.675
2724.27206	28063.675
2726.87057	28063.175
2729.46747	28068.475
2732.06276	28146.975
2734.65644	28086.475
2737.24852	28068.975
2739.83899	28051.175
2742.42786	28019.075
2745.01513	27976.575
2747.60079	28024.075
2750.18486	28031.775
2752.76733	28059.575
2755.3482	28017.975
2757.92747	28013.475
2760.50515	27958.975
2763.08123	27946.375
2765.65573	27924.375
2768.22863	27937.075
2770.79994	27910.675
2773.36967	27937.975
2775.9378	27929.375
2778.50435	27889.175
2781.06932	27921.875
2783.6327	27904.175
2786.1945	27882.975
2788.75471	27923.775
2791.31335	27808.375
2793.87041	27790.875
2796.42589	27743.075
2798.97979	27742.775
2801.53212	27761.175
2804.08288	27714.075
2806.63206	27638.175
2809.17967	27634.275
2811.72571	27571.075
2814.27018	27504.375
2816.81308	27478.275
2819.35442	27509.175
2821.89419	27454.875
2824.43239	27429.475
2826.96904	27404.075
2829.50412	27457.575
2832.03763	27427.675
2834.56959	27418.175
2837.1	27401.375
2839.62884	27436.575
2842.15613	27396.675
2844.68186	27374.975
2847.20604	27262.475
2849.72867	27291.075
2852.24974	27256.875
2854.76927	27270.875
2857.28724	27273.775
2859.80367	27237.875
2862.31855	27228.475
2864.83189	27254.475
2867.34368	27261.375
2869.85393	27237.775
2872.36264	27167.675
2874.8698	27160.675
2877.37543	27148.275
2879.87952	27177.275
2882.38207	27185.075
2884.88308	27173.475
2887.38256	27207.675
2889.88051	27172.175
2892.37692	27189.875
2894.8718	27234.175
2897.36515	27248.875
2899.85698	27233.375
2902.34727	27275.975
2904.83604	27317.875
2907.32328	27373.575
2909.809	27411.075
2912.29319	27447.775
2914.77587	27398.175
2917.25702	27440.075
2919.73665	27355.175
2922.21476	27379.575
2924.69136	27312.175
2927.16644	27354.375
2929.64	27293.775
2932.11205	27227.175
2934.58258	27107.875
2937.05161	27124.375
2939.51912	27125.475
2941.98513	27087.675
2944.44962	27058.175
2946.91261	27015.775
2949.37409	27070.675
2951.83407	27073.875
2954.29254	27084.475
2956.74951	27071.375
2959.20498	27060.175
2961.65895	27074.675
2964.11142	27089.775
2966.56239	26989.675
2969.01186	26958.075
2971.45984	26911.275
2973.90632	26863.875
2976.35131	26802.675
2978.7948	26706.275
2981.23681	26691.175
2983.67732	26657.975
2986.11635	26619.475
2988.55388	26577.675
2990.98993	26482.875
2993.4245	26457.975
2995.85758	26396.775
2998.28917	26346.775
3000.71928	26277.075
3003.14791	26207.975
3005.57506	26178.675
3008.00073	26109.875
3010.42493	26127.375
3012.84764	26033.175
3015.26888	26051.575
3017.68865	25952.275
3020.10694	25936.175
3022.52376	25884.475
3024.9391	25849.775
3027.35298	25844.175
3029.76539	25840.275
3032.17632	25877.475
3034.5858	25821.675
3036.9938	25828.475
3039.40034	25809.475
3041.80542	25748.275
3044.20903	25701.975
3046.61118	25723.375
3049.01187	25654.175
3051.4111	25592.875
3053.80888	25546.175
3056.20519	25567.675
3058.60005	25459.075
3060.99345	25376.275
3063.3854	25307.175
3065.7759	25251.475
3068.16494	25181.975
3070.55254	25123.975
3072.93868	25031.075
3075.32338	24979.175
3077.70662	24938.975
3080.08842	24846.775
3082.46878	24830.375
3084.84769	24801.575
3087.22515	24829.075
3089.60118	24811.175
3091.97576	24809.075
3094.3489	24790.475
3096.72061	24762.275
3099.09087	24799.975
3101.4597	24794.375
3103.82709	24843.275
3106.19305	24802.475
3108.55757	24757.675
3110.92066	24672.375
3113.28232	24681.675
3115.64255	24638.575
3118.00134	24593.175
3120.35871	24577.075
3122.71466	24540.275
3125.06917	24468.375
3127.42226	24391.275
3129.77393	24429.475
3132.12417	24360.975
3134.47299	24356.075
3136.82039	24352.375
3139.16636	24357.575
3141.51092	24295.475
3143.85406	24287.875
3146.19579	24318.575
3148.53609	24332.175
3150.87499	24333.975
3153.21246	24320.575
3155.54853	24335.675
3157.88318	24271.175
3160.21642	24309.375
3162.54826	24316.375
3164.87868	24383.275
3167.2077	24402.775
3169.5353	24387.175
3171.86151	24319.375
3174.18631	24286.475
3176.5097	24279.075
3178.83169	24299.975
3181.15228	24339.475
3183.47147	24268.375
3185.78926	24173.975
3188.10565	24201.875
3190.42065	24188.175
3192.73424	24184.375
3195.04645	24140.275
3197.35725	24164.775
3199.66667	24168.275
3201.97469	24174.675
3204.28132	24169.575
3206.58656	24139.775
3208.8904	24172.875
3211.19287	24143.975
3213.49394	24130.375
3215.79363	24159.175
3218.09193	24235.175
3220.38884	24233.475
3222.68438	24232.175
3224.97853	24198.875
3227.2713	24221.075
3229.56269	24234.975
3231.8527	24192.975
3234.14133	24196.575
3236.42858	24146.675
3238.71446	24131.375
3240.99896	24098.475
3243.28209	24088.275
3245.56384	24034.775
3247.84423	23985.275
3250.12324	24005.175
3252.40088	23962.175
3254.67715	23964.175
3256.95205	23962.075
3259.22558	23942.475
3261.49775	23910.175
3263.76855	23950.875
3266.03799	23939.975
3268.30606	23887.175
3270.57277	23828.975
3272.83812	23776.775
3275.10211	23806.675
3277.36474	23690.475
3279.62601	23713.875
3281.88593	23738.675
3284.14448	23737.375
3286.40168	23773.075
3288.65753	23727.075
3290.91202	23734.175
3293.16516	23686.375
3295.41695	23693.175
3297.66738	23563.775
3299.91647	23446.775
3302.16421	23331.675
3304.4106	23259.075
3306.65564	23147.675
3308.89933	22977.375
3311.14169	22834.875
3313.38269	22676.375
3315.62236	22613.175
3317.86068	22439.175
3320.09766	22248.975
3322.3333	22141.575
3324.5676	22067.275
3326.80056	21793.575
3329.03219	21702.075
3331.26248	5.475
3333.49143	-0.625
3335.71905	1.375
