Data from AgNPs_UA_10uM_CRN_0uM_R6G_10uM_Q_RamanShift__28__12-21-22-659.txt Node

Date: Mon Jul 18 12:21:22 BST 2022
User: TCL
Spectrometer: QEP01345
Trigger mode: 4
Integration Time (sec): 7.000000E0
Scans to average: 10
Electric dark correction enabled: true
Nonlinearity correction enabled: false
Boxcar width: 0
XAxis mode: Raman Shifts
Number of Pixels in Spectrum: 1044
>>>>>Begin Spectral Data<<<<<
46.04893	-1.425
50.45542	-1.425
54.85868	-1.025
59.25871	-0.925
63.6555	104.975
68.04907	107.475
72.43941	115.875
76.82654	121.275
81.21044	119.675
85.59113	123.775
89.96862	129.875
94.34289	133.575
98.71396	143.675
103.08183	142.675
107.4465	147.775
111.80798	151.875
116.16626	155.275
120.52136	161.875
124.87327	174.675
129.222	176.675
133.56755	186.575
137.90993	203.975
142.24913	218.675
146.58517	244.475
150.91804	286.775
155.24774	339.275
159.57429	422.775
163.89768	545.675
168.21792	715.875
172.53501	984.375
176.84895	1360.175
181.15975	1888.975
185.46741	2654.275
189.77193	3646.375
194.07331	4851.475
198.37157	6234.575
202.6667	7633.775
206.9587	9071.075
211.24758	10492.075
215.53334	11926.675
219.81599	13523.975
224.09553	15310.475
228.37195	17313.475
232.64527	19462.075
236.91549	21689.175
241.18261	23816.675
245.44663	25685.875
249.70755	27290.775
253.96539	28772.475
258.22014	29970.375
262.4718	30962.275
266.72039	31696.675
270.96589	32077.875
275.20832	32086.775
279.44768	31820.475
283.68397	31437.375
287.91719	31170.975
292.14735	31148.475
296.37445	31446.975
300.59849	32003.975
304.81948	32540.675
309.03742	32859.875
313.25231	32497.975
317.46415	31420.175
321.67296	29952.275
325.87872	28814.975
330.08145	28361.375
334.28114	28399.675
338.47781	28833.775
342.67145	29448.275
346.86207	30301.875
351.04966	31483.175
355.23424	32751.975
359.4158	33734.575
363.59435	34326.975
367.76989	34588.775
371.94243	34714.675
376.11196	34722.475
380.27849	34785.075
384.44203	34762.375
388.60257	34684.975
392.76012	34665.375
396.91468	35110.975
401.06626	35870.575
405.21485	36355.475
409.36047	35918.575
413.50311	34947.575
417.64277	34064.275
421.77947	33702.075
425.9132	33666.575
430.04396	33882.975
434.17176	34151.675
438.2966	34797.075
442.41849	35694.775
446.53742	36925.075
450.6534	38177.575
454.76644	39067.875
458.87653	39147.575
462.98368	38735.275
467.08789	37965.275
471.18916	37096.275
475.2875	36239.275
479.38291	35674.375
483.4754	35122.475
487.56496	34602.375
491.6516	34079.975
495.73531	33723.475
499.81612	33621.575
503.89401	33787.875
507.96899	33942.475
512.04106	34112.375
516.11023	34341.375
520.1765	34435.575
524.23987	34329.175
528.30034	33993.075
532.35792	33613.875
536.41261	33151.775
540.46441	32660.675
544.51333	32586.975
548.55936	32995.575
552.60252	33825.575
556.64279	34645.375
560.6802	35051.575
564.71473	35471.475
568.7464	36439.075
572.7752	37112.375
576.80114	36817.275
580.82422	36508.875
584.84444	36793.675
588.86181	37400.175
592.87633	38375.775
596.888	39197.975
600.89682	40279.875
604.9028	43697.475
608.90594	51365.875
612.90624	58172.575
616.90371	52359.875
620.89834	40714.175
624.89015	36412.075
628.87913	35850.875
632.86528	35654.175
636.84862	35236.275
640.82913	34376.775
644.80683	33096.375
648.78172	32414.075
652.75379	32548.175
656.72306	33561.175
660.68952	34555.275
664.65319	34182.675
668.61405	33247.875
672.57211	32932.675
676.52738	32876.975
680.47986	32769.075
684.42955	32557.575
688.37646	32586.175
692.32058	32778.475
696.26192	33100.575
700.20048	33517.075
704.13626	33692.875
708.06928	33483.975
711.99952	33201.975
715.927	33127.675
719.85171	33208.375
723.77365	32976.175
727.69284	32671.775
731.60928	32456.275
735.52295	32542.575
739.43388	32747.375
743.34206	33033.175
747.24749	33277.475
751.15017	33590.675
755.05012	34313.075
758.94733	35861.775
762.8418	38927.875
766.73354	43504.675
770.62254	47647.375
774.50882	48729.575
778.39237	45894.675
782.27321	40932.575
786.15132	36872.075
790.02671	34529.275
793.89938	33518.775
797.76935	33120.675
801.6366	33009.675
805.50115	32820.175
809.36299	32609.075
813.22213	32411.375
817.07857	32345.875
820.93231	32378.875
824.78336	32496.675
828.63172	32557.575
832.47738	32637.175
836.32036	32777.675
840.16066	32936.875
843.99827	33016.275
847.8332	32832.275
851.66546	32617.875
855.49504	32481.675
859.32195	32461.975
863.1462	32241.475
866.96777	32023.475
870.78668	32005.975
874.60293	31978.675
878.41652	32077.975
882.22745	32308.375
886.03573	32382.375
889.84136	32272.075
893.64433	32120.475
897.44466	31960.275
901.24235	31965.275
905.0374	31876.875
908.8298	31828.975
912.61957	31897.875
916.40671	32231.175
920.19121	32766.475
923.97308	33364.875
927.75233	33772.675
931.52895	33896.775
935.30295	33348.575
939.07433	32450.175
942.84309	31786.675
946.60924	31509.275
950.37278	31388.175
954.13371	31140.375
957.89203	30947.375
961.64774	30825.175
965.40086	30760.975
969.15137	30711.675
972.89929	30613.575
976.64461	30628.875
980.38733	30770.575
984.12747	31042.575
987.86502	31347.275
991.59999	31807.075
995.33237	32580.575
999.06217	34196.775
1002.78939	35879.375
1006.51404	36704.075
1010.23611	37026.575
1013.95561	37306.675
1017.67255	37376.675
1021.38692	37055.875
1025.09872	36914.675
1028.80796	37853.575
1032.51465	39601.775
1036.21877	40733.875
1039.92035	40550.275
1043.61937	39374.275
1047.31584	37707.875
1051.00976	36128.875
1054.70114	35342.975
1058.38998	35125.175
1062.07627	35087.075
1065.76003	35073.775
1069.44126	35213.675
1073.11995	35507.475
1076.79611	35866.675
1080.46974	36285.875
1084.14085	36806.775
1087.80943	37362.075
1091.47549	37469.275
1095.13903	36897.275
1098.80005	36027.575
1102.45857	35284.475
1106.11456	34984.575
1109.76805	35230.075
1113.41903	35705.975
1117.06751	36500.975
1120.71348	37398.575
1124.35696	38335.975
1127.99793	38971.375
1131.63641	38816.075
1135.2724	37836.575
1138.90589	37030.475
1142.5369	36501.175
1146.16542	36230.975
1149.79145	36226.975
1153.415	36549.575
1157.03607	37043.475
1160.65467	37883.775
1164.27079	39254.175
1167.88443	41418.275
1171.49561	44697.475
1175.10432	49410.675
1178.71056	55286.275
1182.31434	60294.775
1185.91565	62442.875
1189.51451	61447.075
1193.11091	58031.175
1196.70485	54049.575
1200.29634	50873.175
1203.88538	48297.975
1207.47197	46050.675
1211.05612	44444.775
1214.63782	43805.475
1218.21708	44036.475
1221.79391	44507.375
1225.36829	44742.575
1228.94024	44256.275
1232.50976	43464.775
1236.07685	42869.375
1239.6415	42715.175
1243.20374	42877.775
1246.76355	43224.775
1250.32093	44014.075
1253.8759	45251.175
1257.42845	46812.475
1260.97859	48185.475
1264.52631	49313.775
1268.07163	50599.875
1271.61453	51935.875
1275.15503	53598.175
1278.69312	55300.975
1282.22882	56698.875
1285.76211	57955.875
1289.29301	59296.775
1292.82151	60878.375
1296.34761	63066.075
1299.87133	66434.775
1303.39266	71388.775
1306.9116	78214.475
1310.42815	85283.475
1313.94233	89071.375
1317.45412	87769.975
1320.96354	83570.175
1324.47058	79075.975
1327.97525	75298.275
1331.47754	73032.275
1334.97747	72371.375
1338.47502	72736.675
1341.97022	73527.575
1345.46305	74138.075
1348.95352	74571.575
1352.44163	76201.875
1355.92738	80114.975
1359.41078	86943.575
1362.89183	92624.475
1366.37053	89396.075
1369.84688	78813.175
1373.32088	68406.475
1376.79254	61762.375
1380.26186	58391.575
1383.72883	56894.275
1387.19347	55817.275
1390.65578	54686.675
1394.11575	54247.475
1397.57339	54701.775
1401.0287	55859.775
1404.48168	57078.275
1407.93234	58110.475
1411.38068	58607.575
1414.82669	58060.875
1418.27039	56238.475
1421.71177	54056.275
1425.15083	52178.975
1428.58758	51343.375
1432.02203	51523.575
1435.45416	52158.575
1438.88399	52837.575
1442.31151	53347.375
1445.73673	53816.075
1449.15965	54142.775
1452.58027	54238.575
1455.9986	54058.775
1459.41463	54004.175
1462.82837	54623.575
1466.23982	55776.275
1469.64898	56942.975
1473.05586	57888.775
1476.46045	58451.375
1479.86276	58925.075
1483.26279	59293.075
1486.66054	59802.975
1490.05602	60785.675
1493.44922	62054.575
1496.84016	63765.975
1500.22882	66208.275
1503.61521	69983.875
1506.99934	74530.975
1510.38121	78419.375
1513.76081	79389.275
1517.13816	76365.775
1520.51324	70750.375
1523.88607	65646.075
1527.25665	62311.275
1530.62498	60365.975
1533.99105	59329.475
1537.35488	58518.075
1540.71647	58081.475
1544.07581	57551.875
1547.4329	56791.375
1550.78776	55932.575
1554.14038	55218.375
1557.49077	54823.375
1560.83892	54733.875
1564.18484	55078.075
1567.52853	55434.175
1570.86999	55692.975
1574.20922	56086.675
1577.54624	55997.975
1580.88103	54867.475
1584.2136	53945.375
1587.54395	54657.175
1590.87208	57664.275
1594.19801	62610.775
1597.52172	67671.175
1600.84321	69759.975
1604.16251	67183.575
1607.47959	61707.375
1610.79447	55577.675
1614.10715	50293.775
1617.41763	46363.675
1620.7259	44107.475
1624.03199	43137.475
1627.33587	43346.875
1630.63757	44904.675
1633.93707	47714.975
1637.23439	51617.475
1640.52951	56555.475
1643.82246	61974.075
1647.11321	66438.575
1650.40179	67482.575
1653.68819	63331.075
1656.97241	55333.875
1660.25446	47566.475
1663.53433	41873.675
1666.81203	38372.475
1670.08756	36187.275
1673.36092	34825.175
1676.63211	33835.775
1679.90115	33190.475
1683.16801	32694.175
1686.43272	32337.075
1689.69527	32073.975
1692.95567	31928.575
1696.2139	31732.275
1699.46999	31615.275
1702.72392	31542.475
1705.97571	31510.875
1709.22535	31523.875
1712.47284	31504.175
1715.71819	31493.075
1718.96139	31445.275
1722.20246	31342.675
1725.44139	31177.175
1728.67818	31009.775
1731.91284	30799.675
1735.14537	30648.575
1738.37576	30572.475
1741.60403	30482.275
1744.83017	30376.675
1748.05418	30342.975
1751.27607	30261.575
1754.49584	30192.375
1757.71349	30200.575
1760.92903	30125.775
1764.14244	30125.075
1767.35375	30110.875
1770.56294	30068.475
1773.77002	30084.975
1776.97499	30050.775
1780.17785	30009.275
1783.37861	29952.475
1786.57727	29872.675
1789.77382	29919.375
1792.96828	29898.875
1796.16064	29882.175
1799.3509	29830.475
1802.53907	29749.075
1805.72514	29692.975
1808.90913	29636.875
1812.09102	29584.775
1815.27083	29459.175
1818.44856	29486.875
1821.6242	29440.275
1824.79776	29380.775
1827.96924	29362.075
1831.13864	29339.075
1834.30597	29348.775
1837.47122	29331.975
1840.6344	29354.675
1843.7955	29370.475
1846.95454	29336.075
1850.11151	29303.975
1853.26642	29286.675
1856.41926	29320.675
1859.57004	29349.575
1862.71876	29361.775
1865.86542	29341.075
1869.01003	29356.075
1872.15258	29388.275
1875.29308	29418.775
1878.43152	29360.375
1881.56792	29342.975
1884.70227	29376.975
1887.83457	29373.075
1890.96482	29375.475
1894.09304	29350.575
1897.21921	29361.875
1900.34335	29362.775
1903.46544	29346.475
1906.58551	29308.775
1909.70353	29366.175
1912.81953	29336.875
1915.93349	29349.275
1919.04543	29324.975
1922.15534	29322.075
1925.26322	29234.075
1928.36908	29182.575
1931.47292	29101.975
1934.57473	28993.975
1937.67453	28931.775
1940.77232	28878.075
1943.86808	28817.475
1946.96184	28694.175
1950.05358	28604.675
1953.14331	28446.275
1956.23103	28381.375
1959.31675	28333.975
1962.40046	28266.775
1965.48217	28229.075
1968.56188	28128.875
1971.63959	28090.975
1974.7153	28002.075
1977.78901	27947.175
1980.86073	27816.375
1983.93046	27770.475
1986.99819	27654.275
1990.06394	27614.575
1993.1277	27541.175
1996.18947	27422.575
1999.24925	27392.675
2002.30706	27358.375
2005.36288	27299.275
2008.41672	27256.075
2011.46859	27154.475
2014.51848	27079.075
2017.56639	27063.275
2020.61233	27022.975
2023.6563	26962.875
2026.6983	26830.075
2029.73833	26750.775
2032.7764	26733.075
2035.8125	26751.575
2038.84664	26679.175
2041.87881	26686.375
2044.90903	26616.775
2047.93729	26584.175
2050.96359	26563.075
2053.98794	26511.175
2057.01034	26478.075
2060.03078	26531.975
2063.04927	26520.375
2066.06582	26459.875
2069.08042	26446.975
2072.09307	26376.475
2075.10378	26339.075
2078.11255	26347.675
2081.11938	26352.875
2084.12426	26340.475
2087.12722	26305.175
2090.12824	26256.775
2093.12732	26270.375
2096.12447	26313.875
2099.11969	26243.075
2102.11299	26317.575
2105.10435	26260.475
2108.09379	26297.875
2111.08131	26346.375
2114.0669	26331.675
2117.05057	26319.175
2120.03233	26374.175
2123.01216	26375.075
2125.99008	26436.175
2128.96609	26467.475
2131.94018	26499.175
2134.91236	26525.475
2137.88263	26532.275
2140.851	26499.675
2143.81746	26536.775
2146.78201	26601.975
2149.74466	26612.175
2152.7054	26597.875
2155.66425	26616.075
2158.6212	26606.575
2161.57625	26549.775
2164.52941	26531.975
2167.48067	26526.875
2170.43004	26559.175
2173.37752	26513.175
2176.32311	26545.875
2179.26681	26567.175
2182.20863	26596.875
2185.14856	26629.975
2188.08661	26578.575
2191.02278	26611.775
2193.95707	26626.075
2196.88948	26627.675
2199.82001	26638.875
2202.74867	26640.175
2205.67545	26584.475
2208.60037	26619.175
2211.52341	26565.875
2214.44458	26600.575
2217.36388	26535.675
2220.28132	26555.075
2223.1969	26495.075
2226.11061	26440.275
2229.02246	26387.475
2231.93245	26393.075
2234.84058	26303.575
2237.74686	26260.075
2240.65128	26211.975
2243.55385	26183.775
2246.45456	26155.175
2249.35343	26113.175
2252.25044	26106.075
2255.14561	26051.875
2258.03893	26048.975
2260.93041	26028.675
2263.82004	26001.475
2266.70783	25920.375
2269.59378	25867.775
2272.4779	25784.875
2275.36017	25714.275
2278.24061	25686.475
2281.11922	25664.275
2283.996	25635.575
2286.87094	25614.775
2289.74405	25569.375
2292.61534	25556.275
2295.4848	25562.675
2298.35243	25626.175
2301.21824	25607.775
2304.08223	25631.575
2306.94439	25641.975
2309.80474	25664.475
2312.66327	25699.875
2315.51999	25736.375
2318.37489	25775.875
2321.22797	25776.375
2324.07925	25712.675
2326.92871	25692.875
2329.77637	25710.875
2332.62222	25721.575
2335.46626	25792.875
2338.3085	25824.075
2341.14893	25782.575
2343.98756	25854.575
2346.8244	25926.075
2349.65943	25968.675
2352.49267	25988.575
2355.32411	25929.275
2358.15376	25911.075
2360.98161	25896.875
2363.80768	25890.675
2366.63195	25835.575
2369.45444	25780.275
2372.27514	25719.075
2375.09405	25669.675
2377.91118	25558.675
2380.72652	25503.275
2383.54009	25371.575
2386.35187	25402.675
2389.16188	25351.875
2391.97011	25336.775
2394.77657	25306.375
2397.58125	25257.475
2400.38416	25238.975
2403.18529	25178.475
2405.98466	25149.075
2408.78226	25054.275
2411.57809	25037.675
2414.37216	24992.475
2417.16446	24949.675
2419.955	24864.075
2422.74378	24878.375
2425.5308	24799.975
2428.31606	24757.375
2431.09956	24784.375
2433.88131	24762.375
2436.6613	24799.675
2439.43954	24778.275
2442.21603	24750.975
2444.99077	24753.375
2447.76377	24790.675
2450.53501	24697.675
2453.30451	24727.775
2456.07226	24696.075
2458.83827	24669.375
2461.60254	24692.575
2464.36507	24676.475
2467.12586	24675.775
2469.88492	24690.475
2472.64224	24678.075
2475.39782	24720.775
2478.15167	24787.775
2480.90379	24824.275
2483.65417	24911.775
2486.40283	24961.475
2489.14976	24994.875
2491.89497	24994.375
2494.63845	25080.275
2497.3802	25042.975
2500.12024	25042.275
2502.85855	24978.975
2505.59514	24963.475
2508.33002	24920.275
2511.06318	24860.075
2513.79462	24854.775
2516.52435	24785.175
2519.25237	24745.575
2521.97867	24753.775
2524.70327	24765.775
2527.42616	24754.775
2530.14734	24771.075
2532.86681	24766.175
2535.58458	24802.275
2538.30065	24745.175
2541.01501	24772.075
2543.72768	24741.875
2546.43864	24714.375
2549.14791	24679.775
2551.85548	24638.775
2554.56136	24648.675
2557.26554	24602.775
2559.96803	24600.175
2562.66883	24565.075
2565.36794	24550.275
2568.06536	24549.975
2570.7611	24606.375
2573.45514	24552.875
2576.14751	24536.475
2578.83819	24563.375
2581.52719	24534.575
2584.21451	24540.975
2586.90015	24568.475
2589.58411	24566.175
2592.2664	24631.275
2594.94701	24585.475
2597.62594	24645.775
2600.30321	24586.975
2602.9788	24580.175
2605.65273	24537.675
2608.32498	24540.275
2610.99557	24569.375
2613.66449	24588.075
2616.33175	24583.975
2618.99734	24615.475
2621.66128	24642.775
2624.32355	24688.375
2626.98416	24724.275
2629.64311	24702.975
2632.30041	24668.075
2634.95605	24689.275
2637.61004	24621.775
2640.26238	24631.175
2642.91306	24613.575
2645.56209	24578.475
2648.20948	24521.275
2650.85521	24433.575
2653.4993	24432.275
2656.14175	24417.475
2658.78255	24472.475
2661.42171	24528.475
2664.05923	24552.375
2666.6951	24523.875
2669.32934	24584.975
2671.96194	24634.875
2674.59291	24658.675
2677.22224	24604.475
2679.84993	24631.375
2682.476	24566.975
2685.10043	24603.175
2687.72324	24505.875
2690.34441	24516.575
2692.96396	24471.275
2695.58188	24455.275
2698.19818	24380.375
2700.81285	24388.675
2703.4259	24384.975
2706.03733	24426.375
2708.64714	24476.775
2711.25533	24460.775
2713.86191	24459.075
2716.46687	24487.875
2719.07021	24496.475
2721.67194	24526.675
2724.27206	24504.175
2726.87057	24517.775
2729.46747	24535.575
2732.06276	24569.975
2734.65644	24584.275
2737.24852	24549.675
2739.83899	24491.775
2742.42786	24476.675
2745.01513	24470.475
2747.60079	24478.275
2750.18486	24484.875
2752.76733	24474.575
2755.3482	24453.775
2757.92747	24451.875
2760.50515	24416.875
2763.08123	24413.075
2765.65573	24391.375
2768.22863	24424.675
2770.79994	24413.475
2773.36967	24416.375
2775.9378	24372.775
2778.50435	24370.675
2781.06932	24379.175
2783.6327	24381.875
2786.1945	24399.975
2788.75471	24411.275
2791.31335	24307.775
2793.87041	24315.775
2796.42589	24246.275
2798.97979	24257.975
2801.53212	24250.875
2804.08288	24229.875
2806.63206	24134.975
2809.17967	24119.675
2811.72571	24135.275
2814.27018	24078.475
2816.81308	24008.475
2819.35442	24053.075
2821.89419	24003.675
2824.43239	24049.775
2826.96904	23987.875
2829.50412	24018.475
2832.03763	23950.675
2834.56959	23959.775
2837.1	23947.475
2839.62884	23975.575
2842.15613	23946.275
2844.68186	23904.975
2847.20604	23862.075
2849.72867	23874.975
2852.24974	23815.075
2854.76927	23856.575
2857.28724	23859.075
2859.80367	23824.075
2862.31855	23836.775
2864.83189	23865.075
2867.34368	23805.475
2869.85393	23841.675
2872.36264	23778.475
2874.8698	23722.975
2877.37543	23741.175
2879.87952	23802.375
2882.38207	23796.375
2884.88308	23753.275
2887.38256	23789.675
2889.88051	23778.675
2892.37692	23774.475
2894.8718	23803.775
2897.36515	23871.875
2899.85698	23807.775
2902.34727	23843.675
2904.83604	23884.375
2907.32328	23926.375
2909.809	23923.475
2912.29319	23969.375
2914.77587	23927.075
2917.25702	23936.975
2919.73665	23920.275
2922.21476	23887.175
2924.69136	23863.475
2927.16644	23845.875
2929.64	23807.075
2932.11205	23772.075
2934.58258	23673.475
2937.05161	23661.275
2939.51912	23717.375
2941.98513	23665.475
2944.44962	23617.675
2946.91261	23553.175
2949.37409	23601.375
2951.83407	23609.075
2954.29254	23597.075
2956.74951	23575.675
2959.20498	23572.475
2961.65895	23556.375
2964.11142	23609.775
2966.56239	23548.775
2969.01186	23499.275
2971.45984	23442.875
2973.90632	23397.675
2976.35131	23303.175
2978.7948	23255.875
2981.23681	23213.875
2983.67732	23202.875
2986.11635	23184.375
2988.55388	23118.075
2990.98993	23091.475
2993.4245	23054.575
2995.85758	22956.375
2998.28917	22912.075
3000.71928	22839.375
3003.14791	22799.975
3005.57506	22803.175
3008.00073	22697.975
3010.42493	22704.575
3012.84764	22620.175
3015.26888	22663.375
3017.68865	22563.775
3020.10694	22519.475
3022.52376	22457.475
3024.9391	22439.275
3027.35298	22435.475
3029.76539	22435.675
3032.17632	22403.675
3034.5858	22425.075
3036.9938	22412.675
3039.40034	22390.775
3041.80542	22353.875
3044.20903	22320.775
3046.61118	22340.275
3049.01187	22240.875
3051.4111	22226.075
3053.80888	22173.875
3056.20519	22178.275
3058.60005	22135.075
3060.99345	22068.875
3063.3854	21986.575
3065.7759	21874.575
3068.16494	21839.675
3070.55254	21728.275
3072.93868	21741.775
3075.32338	21660.575
3077.70662	21611.575
3080.08842	21522.375
3082.46878	21507.975
3084.84769	21496.575
3087.22515	21492.275
3089.60118	21513.675
3091.97576	21487.375
3094.3489	21493.775
3096.72061	21458.475
3099.09087	21481.675
3101.4597	21459.775
3103.82709	21476.475
3106.19305	21456.575
3108.55757	21417.975
3110.92066	21317.175
3113.28232	21340.175
3115.64255	21310.175
3118.00134	21269.175
3120.35871	21262.875
3122.71466	21242.675
3125.06917	21147.775
3127.42226	21119.075
3129.77393	21114.475
3132.12417	21058.275
3134.47299	21066.675
3136.82039	21059.175
3139.16636	21058.775
3141.51092	21027.975
3143.85406	21048.075
3146.19579	21016.175
3148.53609	21038.575
3150.87499	21028.075
3153.21246	20995.175
3155.54853	21032.675
3157.88318	20968.775
3160.21642	21043.975
3162.54826	21027.375
3164.87868	21049.475
3167.2077	21080.175
3169.5353	21033.475
3171.86151	20999.775
3174.18631	20989.675
3176.5097	20946.775
3178.83169	20961.875
3181.15228	20988.975
3183.47147	20927.275
3185.78926	20924.875
3188.10565	20875.875
3190.42065	20894.675
3192.73424	20914.275
3195.04645	20862.875
3197.35725	20858.575
3199.66667	20861.275
3201.97469	20885.775
3204.28132	20853.175
3206.58656	20839.975
3208.8904	20872.975
3211.19287	20873.975
3213.49394	20873.075
3215.79363	20888.175
3218.09193	20894.675
3220.38884	20882.475
3222.68438	20931.775
3224.97853	20916.775
3227.2713	20878.475
3229.56269	20904.775
3231.8527	20895.175
3234.14133	20885.175
3236.42858	20868.775
3238.71446	20835.875
3240.99896	20804.375
3243.28209	20746.975
3245.56384	20728.775
3247.84423	20710.075
3250.12324	20701.575
3252.40088	20668.375
3254.67715	20635.375
3256.95205	20623.675
3259.22558	20654.775
3261.49775	20595.075
3263.76855	20626.475
3266.03799	20622.375
3268.30606	20573.175
3270.57277	20577.275
3272.83812	20493.075
3275.10211	20460.175
3277.36474	20434.475
3279.62601	20430.175
3281.88593	20414.075
3284.14448	20460.175
3286.40168	20461.675
3288.65753	20438.875
3290.91202	20443.575
3293.16516	20397.975
3295.41695	20396.975
3297.66738	20302.675
3299.91647	20219.075
3302.16421	20074.775
3304.4106	20022.575
3306.65564	19933.775
3308.89933	19793.075
3311.14169	19635.975
3313.38269	19525.575
3315.62236	19420.075
3317.86068	19310.775
3320.09766	19153.675
3322.3333	19027.275
3324.5676	18993.675
3326.80056	18753.875
3329.03219	18621.075
3331.26248	5.175
3333.49143	-0.125
3335.71905	0.475
