Data from AgNPs_UA_2uM_CRN_0uM_R6G_10uM_Q_RamanShift__11__13-13-51-910.txt Node

Date: Wed Jul 13 13:13:51 BST 2022
User: TCL
Spectrometer: QEP01345
Trigger mode: 4
Integration Time (sec): 7.000000E0
Scans to average: 10
Electric dark correction enabled: true
Nonlinearity correction enabled: false
Boxcar width: 0
XAxis mode: Raman Shifts
Number of Pixels in Spectrum: 1044
>>>>>Begin Spectral Data<<<<<
46.04893	-2.1125
50.45542	-1.9125
54.85868	-1.1125
59.25871	0.1875
63.6555	122.4875
68.04907	124.5875
72.43941	129.7875
76.82654	135.3875
81.21044	143.5875
85.59113	149.5875
89.96862	155.8875
94.34289	153.7875
98.71396	163.7875
103.08183	167.4875
107.4465	173.1875
111.80798	176.1875
116.16626	184.5875
120.52136	188.4875
124.87327	195.2875
129.222	208.1875
133.56755	222.9875
137.90993	240.5875
142.24913	261.8875
146.58517	294.5875
150.91804	338.5875
155.24774	405.8875
159.57429	503.0875
163.89768	639.8875
168.21792	847.0875
172.53501	1162.9875
176.84895	1613.3875
181.15975	2269.9875
185.46741	3173.1875
189.77193	4387.5875
194.07331	5904.5875
198.37157	7561.5875
202.6667	9379.7875
206.9587	11134.9875
211.24758	12828.7875
215.53334	14622.2875
219.81599	16449.9875
224.09553	18468.5875
228.37195	20702.3875
232.64527	23125.4875
236.91549	25650.6875
241.18261	28241.9875
245.44663	30600.9875
249.70755	32775.3875
253.96539	34654.6875
258.22014	36303.1875
262.4718	37568.8875
266.72039	38448.6875
270.96589	38880.1875
275.20832	38850.5875
279.44768	38631.8875
283.68397	38281.5875
287.91719	38005.8875
292.14735	37770.3875
296.37445	37801.8875
300.59849	37882.5875
304.81948	38168.3875
309.03742	38383.2875
313.25231	38442.0875
317.46415	38053.0875
321.67296	37410.9875
325.87872	36921.4875
330.08145	36762.9875
334.28114	36888.6875
338.47781	37205.4875
342.67145	37746.9875
346.86207	38450.3875
351.04966	39146.4875
355.23424	39816.7875
359.4158	40450.2875
363.59435	40873.6875
367.76989	41172.3875
371.94243	41361.7875
376.11196	41469.3875
380.27849	41640.2875
384.44203	41852.5875
388.60257	42086.3875
392.76012	42418.7875
396.91468	43019.9875
401.06626	43641.4875
405.21485	44033.1875
409.36047	43804.0875
413.50311	43302.0875
417.64277	42978.8875
421.77947	42886.9875
425.9132	43064.3875
430.04396	43320.9875
434.17176	43570.1875
438.2966	43822.7875
442.41849	44319.5875
446.53742	45058.6875
450.6534	45739.4875
454.76644	46269.1875
458.87653	46524.1875
462.98368	46547.5875
467.08789	46473.1875
471.18916	46192.4875
475.2875	45788.0875
479.38291	45514.3875
483.4754	45336.4875
487.56496	45189.6875
491.6516	45065.0875
495.73531	45010.6875
499.81612	45011.4875
503.89401	45250.0875
507.96899	45470.6875
512.04106	45570.6875
516.11023	45564.1875
520.1765	45577.7875
524.23987	45541.5875
528.30034	45388.4875
532.35792	45212.6875
536.41261	44990.4875
540.46441	44880.4875
544.51333	44815.3875
548.55936	45110.1875
552.60252	45623.4875
556.64279	46232.1875
560.6802	46567.6875
564.71473	46870.1875
568.7464	47436.4875
572.7752	48130.6875
576.80114	48704.0875
580.82422	49422.0875
584.84444	50009.3875
588.86181	50694.5875
592.87633	51274.3875
596.888	51446.3875
600.89682	51301.8875
604.9028	52589.0875
608.90594	56141.4875
612.90624	59303.4875
616.90371	55897.6875
620.89834	49735.1875
624.89015	47392.5875
628.87913	47279.7875
632.86528	47800.5875
636.84862	47984.6875
640.82913	47559.1875
644.80683	46875.0875
648.78172	46439.1875
652.75379	46564.5875
656.72306	47071.2875
660.68952	47646.1875
664.65319	47504.2875
668.61405	47045.9875
672.57211	47174.4875
676.52738	47253.0875
680.47986	47076.8875
684.42955	46888.3875
688.37646	46864.0875
692.32058	47113.3875
696.26192	47541.2875
700.20048	47975.7875
704.13626	48323.0875
708.06928	48336.8875
711.99952	48204.2875
715.927	48152.2875
719.85171	48198.6875
723.77365	48030.8875
727.69284	47711.8875
731.60928	47475.1875
735.52295	47485.6875
739.43388	47519.2875
743.34206	47718.9875
747.24749	47810.6875
751.15017	48073.0875
755.05012	48583.2875
758.94733	49549.0875
762.8418	51418.0875
766.73354	54228.1875
770.62254	56520.1875
774.50882	56663.2875
778.39237	55031.8875
782.27321	52758.1875
786.15132	50743.6875
790.02671	49372.0875
793.89938	48615.2875
797.76935	48194.1875
801.6366	48030.7875
805.50115	48034.2875
809.36299	47943.9875
813.22213	47862.3875
817.07857	47820.1875
820.93231	47804.9875
824.78336	47815.8875
828.63172	47902.0875
832.47738	47860.5875
836.32036	47827.5875
840.16066	47801.5875
843.99827	47870.8875
847.8332	47979.2875
851.66546	47999.8875
855.49504	48117.9875
859.32195	48206.2875
863.1462	48183.6875
866.96777	48171.6875
870.78668	48232.4875
874.60293	48385.9875
878.41652	48499.2875
882.22745	48666.3875
886.03573	48821.2875
889.84136	48844.0875
893.64433	48732.7875
897.44466	48685.2875
901.24235	48641.7875
905.0374	48530.6875
908.8298	48477.5875
912.61957	48508.0875
916.40671	48690.7875
920.19121	49036.4875
923.97308	49252.3875
927.75233	49253.9875
931.52895	49072.9875
935.30295	48712.0875
939.07433	48292.1875
942.84309	47914.1875
946.60924	47746.1875
950.37278	47684.8875
954.13371	47648.2875
957.89203	47605.5875
961.64774	47559.5875
965.40086	47501.3875
969.15137	47492.3875
972.89929	47378.1875
976.64461	47301.2875
980.38733	47311.2875
984.12747	47428.9875
987.86502	47485.1875
991.59999	47623.0875
995.33237	47853.3875
999.06217	48146.1875
1002.78939	48542.5875
1006.51404	49034.7875
1010.23611	49577.8875
1013.95561	49826.7875
1017.67255	49890.4875
1021.38692	49664.6875
1025.09872	49302.4875
1028.80796	48993.5875
1032.51465	48872.5875
1036.21877	48868.6875
1039.92035	48911.1875
1043.61937	49084.1875
1047.31584	49237.6875
1051.00976	49333.9875
1054.70114	49470.1875
1058.38998	49738.0875
1062.07627	50097.5875
1065.76003	50456.4875
1069.44126	50900.7875
1073.11995	51519.4875
1076.79611	52128.2875
1080.46974	52469.1875
1084.14085	52672.5875
1087.80943	52977.8875
1091.47549	53180.4875
1095.13903	53051.2875
1098.80005	52747.1875
1102.45857	52237.6875
1106.11456	51799.6875
1109.76805	51398.7875
1113.41903	51271.3875
1117.06751	51353.5875
1120.71348	51769.3875
1124.35696	52250.6875
1127.99793	52612.7875
1131.63641	52591.8875
1135.2724	52130.1875
1138.90589	51805.9875
1142.5369	51725.5875
1146.16542	51695.4875
1149.79145	51744.5875
1153.415	51721.6875
1157.03607	51791.6875
1160.65467	52221.7875
1164.27079	53149.6875
1167.88443	54307.2875
1171.49561	55893.2875
1175.10432	58169.3875
1178.71056	60922.0875
1182.31434	63084.8875
1185.91565	63939.2875
1189.51451	63840.0875
1193.11091	63214.9875
1196.70485	62052.6875
1200.29634	60841.1875
1203.88538	59643.0875
1207.47197	58612.3875
1211.05612	57785.6875
1214.63782	56964.8875
1218.21708	56113.4875
1221.79391	55393.7875
1225.36829	54943.0875
1228.94024	54772.5875
1232.50976	54626.8875
1236.07685	54469.9875
1239.6415	54527.7875
1243.20374	54459.4875
1246.76355	54642.7875
1250.32093	54987.2875
1253.8759	55513.8875
1257.42845	56366.6875
1260.97859	57403.1875
1264.52631	58327.2875
1268.07163	59143.4875
1271.61453	59749.9875
1275.15503	60387.1875
1278.69312	60887.6875
1282.22882	61449.9875
1285.76211	62273.9875
1289.29301	63342.4875
1292.82151	64444.2875
1296.34761	65853.5875
1299.87133	67734.4875
1303.39266	69980.1875
1306.9116	72525.9875
1310.42815	74914.1875
1313.94233	76036.3875
1317.45412	75074.8875
1320.96354	73500.1875
1324.47058	72124.7875
1327.97525	71035.0875
1331.47754	70365.1875
1334.97747	70060.5875
1338.47502	70147.2875
1341.97022	70846.7875
1345.46305	72114.2875
1348.95352	73557.0875
1352.44163	74665.4875
1355.92738	75722.9875
1359.41078	77546.9875
1362.89183	79384.8875
1366.37053	77872.0875
1369.84688	72808.8875
1373.32088	67283.6875
1376.79254	63567.6875
1380.26186	61767.2875
1383.72883	61047.8875
1387.19347	60420.8875
1390.65578	59714.7875
1394.11575	58959.7875
1397.57339	58506.9875
1401.0287	58209.7875
1404.48168	58070.4875
1407.93234	57779.9875
1411.38068	57499.3875
1414.82669	56910.2875
1418.27039	56130.3875
1421.71177	55439.8875
1425.15083	54873.6875
1428.58758	54663.6875
1432.02203	54816.6875
1435.45416	55363.7875
1438.88399	55788.1875
1442.31151	56129.5875
1445.73673	56403.2875
1449.15965	56626.8875
1452.58027	56723.7875
1455.9986	56778.6875
1459.41463	56981.6875
1462.82837	57474.5875
1466.23982	58170.1875
1469.64898	58742.1875
1473.05586	59144.6875
1476.46045	59425.2875
1479.86276	59662.8875
1483.26279	59960.1875
1486.66054	60358.9875
1490.05602	61067.6875
1493.44922	62233.6875
1496.84016	63981.0875
1500.22882	66405.4875
1503.61521	69492.5875
1506.99934	72336.5875
1510.38121	74235.7875
1513.76081	73984.4875
1517.13816	71448.5875
1520.51324	68185.3875
1523.88607	65600.0875
1527.25665	64136.2875
1530.62498	63324.9875
1533.99105	62834.4875
1537.35488	62145.3875
1540.71647	61299.3875
1544.07581	60503.9875
1547.4329	59749.7875
1550.78776	59183.7875
1554.14038	58742.6875
1557.49077	58576.9875
1560.83892	58712.7875
1564.18484	59154.8875
1567.52853	59759.5875
1570.86999	60331.6875
1574.20922	60703.7875
1577.54624	60643.5875
1580.88103	59829.0875
1584.2136	58901.6875
1587.54395	58737.7875
1590.87208	59426.9875
1594.19801	60783.0875
1597.52172	62347.8875
1600.84321	62709.4875
1604.16251	61617.1875
1607.47959	60016.6875
1610.79447	58190.0875
1614.10715	55924.9875
1617.41763	53937.0875
1620.7259	52416.7875
1624.03199	51616.5875
1627.33587	51509.6875
1630.63757	51884.3875
1633.93707	53175.5875
1637.23439	55572.0875
1640.52951	59322.6875
1643.82246	63799.3875
1647.11321	67882.0875
1650.40179	69373.4875
1653.68819	67083.4875
1656.97241	62016.6875
1660.25446	56734.3875
1663.53433	52812.1875
1666.81203	50286.2875
1670.08756	48608.2875
1673.36092	47579.6875
1676.63211	46870.8875
1679.90115	46414.2875
1683.16801	46014.2875
1686.43272	45725.4875
1689.69527	45518.5875
1692.95567	45369.4875
1696.2139	45240.0875
1699.46999	45173.5875
1702.72392	45180.1875
1705.97571	45097.0875
1709.22535	45057.8875
1712.47284	45035.1875
1715.71819	45032.0875
1718.96139	45015.0875
1722.20246	44893.0875
1725.44139	44794.4875
1728.67818	44702.1875
1731.91284	44586.5875
1735.14537	44413.6875
1738.37576	44208.6875
1741.60403	44101.8875
1744.83017	44013.4875
1748.05418	44030.7875
1751.27607	43912.7875
1754.49584	43881.1875
1757.71349	43835.4875
1760.92903	43763.0875
1764.14244	43719.5875
1767.35375	43656.3875
1770.56294	43677.0875
1773.77002	43651.2875
1776.97499	43510.8875
1780.17785	43494.9875
1783.37861	43458.4875
1786.57727	43405.1875
1789.77382	43363.9875
1792.96828	43235.7875
1796.16064	43250.1875
1799.3509	43146.7875
1802.53907	43141.0875
1805.72514	43035.5875
1808.90913	42929.4875
1812.09102	42853.5875
1815.27083	42756.4875
1818.44856	42664.2875
1821.6242	42622.7875
1824.79776	42550.6875
1827.96924	42562.8875
1831.13864	42442.4875
1834.30597	42427.2875
1837.47122	42408.1875
1840.6344	42296.7875
1843.7955	42310.4875
1846.95454	42281.4875
1850.11151	42227.0875
1853.26642	42193.0875
1856.41926	42118.9875
1859.57004	42160.4875
1862.71876	42160.3875
1865.86542	42136.8875
1869.01003	42054.5875
1872.15258	41990.0875
1875.29308	41950.9875
1878.43152	41882.7875
1881.56792	41826.7875
1884.70227	41784.5875
1887.83457	41766.2875
1890.96482	41641.8875
1894.09304	41573.0875
1897.21921	41623.9875
1900.34335	41538.8875
1903.46544	41537.0875
1906.58551	41452.9875
1909.70353	41436.9875
1912.81953	41373.9875
1915.93349	41315.3875
1919.04543	41227.6875
1922.15534	41210.8875
1925.26322	41119.0875
1928.36908	41014.2875
1931.47292	40995.5875
1934.57473	40894.3875
1937.67453	40860.6875
1940.77232	40708.4875
1943.86808	40611.3875
1946.96184	40501.4875
1950.05358	40395.8875
1953.14331	40328.3875
1956.23103	40170.7875
1959.31675	40101.4875
1962.40046	40020.5875
1965.48217	39909.7875
1968.56188	39713.4875
1971.63959	39639.5875
1974.7153	39517.2875
1977.78901	39425.0875
1980.86073	39262.8875
1983.93046	39149.5875
1986.99819	39001.1875
1990.06394	38926.4875
1993.1277	38831.1875
1996.18947	38688.4875
1999.24925	38659.1875
2002.30706	38564.7875
2005.36288	38479.4875
2008.41672	38302.5875
2011.46859	38222.3875
2014.51848	38060.6875
2017.56639	38007.4875
2020.61233	37896.2875
2023.6563	37798.0875
2026.6983	37714.0875
2029.73833	37600.9875
2032.7764	37446.8875
2035.8125	37416.6875
2038.84664	37325.8875
2041.87881	37236.3875
2044.90903	37183.9875
2047.93729	37089.7875
2050.96359	37128.3875
2053.98794	37064.1875
2057.01034	37018.6875
2060.03078	37016.5875
2063.04927	36886.1875
2066.06582	36887.3875
2069.08042	36887.9875
2072.09307	36873.9875
2075.10378	36794.6875
2078.11255	36810.7875
2081.11938	36783.0875
2084.12426	36671.9875
2087.12722	36692.0875
2090.12824	36650.1875
2093.12732	36651.2875
2096.12447	36698.5875
2099.11969	36735.2875
2102.11299	36709.9875
2105.10435	36772.1875
2108.09379	36697.9875
2111.08131	36800.5875
2114.0669	36829.1875
2117.05057	36842.8875
2120.03233	36877.7875
2123.01216	36920.6875
2125.99008	36867.8875
2128.96609	36916.1875
2131.94018	37012.1875
2134.91236	36986.0875
2137.88263	37047.3875
2140.851	37054.9875
2143.81746	37033.2875
2146.78201	37105.7875
2149.74466	37088.1875
2152.7054	37079.5875
2155.66425	37057.6875
2158.6212	37017.6875
2161.57625	37035.1875
2164.52941	37022.7875
2167.48067	37002.9875
2170.43004	37003.7875
2173.37752	36946.4875
2176.32311	36952.4875
2179.26681	36936.6875
2182.20863	36891.8875
2185.14856	36949.7875
2188.08661	36934.8875
2191.02278	36977.4875
2193.95707	36885.9875
2196.88948	36786.4875
2199.82001	36843.3875
2202.74867	36732.2875
2205.67545	36736.9875
2208.60037	36673.8875
2211.52341	36606.2875
2214.44458	36547.4875
2217.36388	36482.6875
2220.28132	36346.4875
2223.1969	36239.1875
2226.11061	36243.9875
2229.02246	36148.5875
2231.93245	36109.9875
2234.84058	36075.4875
2237.74686	35985.5875
2240.65128	36051.7875
2243.55385	35924.1875
2246.45456	35916.8875
2249.35343	35914.1875
2252.25044	35908.0875
2255.14561	35855.6875
2258.03893	35772.5875
2260.93041	35684.0875
2263.82004	35625.0875
2266.70783	35521.7875
2269.59378	35463.2875
2272.4779	35357.3875
2275.36017	35260.4875
2278.24061	35184.6875
2281.11922	35103.0875
2283.996	35044.5875
2286.87094	35049.0875
2289.74405	34922.6875
2292.61534	34900.2875
2295.4848	34828.1875
2298.35243	34893.3875
2301.21824	34761.5875
2304.08223	34811.5875
2306.94439	34727.0875
2309.80474	34737.2875
2312.66327	34752.1875
2315.51999	34618.9875
2318.37489	34588.1875
2321.22797	34575.1875
2324.07925	34509.0875
2326.92871	34438.4875
2329.77637	34383.1875
2332.62222	34343.7875
2335.46626	34261.7875
2338.3085	34232.4875
2341.14893	34168.6875
2343.98756	34080.9875
2346.8244	34083.4875
2349.65943	34042.0875
2352.49267	34037.6875
2355.32411	34041.7875
2358.15376	34056.5875
2360.98161	34010.4875
2363.80768	34007.6875
2366.63195	34011.9875
2369.45444	33962.1875
2372.27514	33918.8875
2375.09405	33834.7875
2377.91118	33854.4875
2380.72652	33803.9875
2383.54009	33726.3875
2386.35187	33630.5875
2389.16188	33538.3875
2391.97011	33462.8875
2394.77657	33361.3875
2397.58125	33327.5875
2400.38416	33277.6875
2403.18529	33167.1875
2405.98466	33176.9875
2408.78226	33072.1875
2411.57809	33035.2875
2414.37216	33081.6875
2417.16446	33026.5875
2419.955	32932.1875
2422.74378	32951.2875
2425.5308	32939.1875
2428.31606	32906.4875
2431.09956	32881.4875
2433.88131	32782.7875
2436.6613	32797.7875
2439.43954	32759.3875
2442.21603	32735.5875
2444.99077	32681.8875
2447.76377	32714.2875
2450.53501	32623.1875
2453.30451	32631.5875
2456.07226	32605.6875
2458.83827	32558.1875
2461.60254	32486.9875
2464.36507	32450.2875
2467.12586	32394.9875
2469.88492	32370.8875
2472.64224	32380.7875
2475.39782	32294.0875
2478.15167	32381.8875
2480.90379	32305.4875
2483.65417	32340.6875
2486.40283	32331.1875
2489.14976	32312.1875
2491.89497	32231.8875
2494.63845	32266.7875
2497.3802	32211.9875
2500.12024	32236.3875
2502.85855	32174.9875
2505.59514	32148.4875
2508.33002	32121.8875
2511.06318	32090.0875
2513.79462	31995.6875
2516.52435	31876.5875
2519.25237	31857.0875
2521.97867	31783.5875
2524.70327	31804.6875
2527.42616	31716.8875
2530.14734	31674.2875
2532.86681	31619.0875
2535.58458	31593.9875
2538.30065	31551.4875
2541.01501	31493.8875
2543.72768	31476.1875
2546.43864	31452.5875
2549.14791	31357.8875
2551.85548	31330.4875
2554.56136	31280.1875
2557.26554	31209.4875
2559.96803	31142.9875
2562.66883	31111.7875
2565.36794	31095.3875
2568.06536	31016.0875
2570.7611	30977.2875
2573.45514	30897.5875
2576.14751	30881.4875
2578.83819	30771.2875
2581.52719	30755.0875
2584.21451	30674.9875
2586.90015	30628.3875
2589.58411	30585.3875
2592.2664	30520.0875
2594.94701	30459.3875
2597.62594	30445.0875
2600.30321	30395.8875
2602.9788	30303.9875
2605.65273	30233.8875
2608.32498	30221.6875
2610.99557	30211.9875
2613.66449	30186.0875
2616.33175	30148.1875
2618.99734	30156.7875
2621.66128	30095.2875
2624.32355	30032.1875
2626.98416	29985.0875
2629.64311	29929.1875
2632.30041	29854.8875
2634.95605	29831.7875
2637.61004	29755.0875
2640.26238	29722.3875
2642.91306	29670.2875
2645.56209	29642.0875
2648.20948	29637.1875
2650.85521	29635.9875
2653.4993	29580.3875
2656.14175	29555.4875
2658.78255	29625.6875
2661.42171	29624.1875
2664.05923	29625.6875
2666.6951	29591.4875
2669.32934	29610.5875
2671.96194	29534.2875
2674.59291	29549.2875
2677.22224	29552.3875
2679.84993	29577.1875
2682.476	29552.9875
2685.10043	29545.0875
2687.72324	29546.3875
2690.34441	29566.0875
2692.96396	29555.8875
2695.58188	29541.0875
2698.19818	29507.6875
2700.81285	29504.1875
2703.4259	29500.6875
2706.03733	29509.7875
2708.64714	29495.4875
2711.25533	29530.2875
2713.86191	29462.0875
2716.46687	29539.7875
2719.07021	29486.1875
2721.67194	29538.3875
2724.27206	29471.2875
2726.87057	29482.1875
2729.46747	29480.6875
2732.06276	29519.1875
2734.65644	29514.3875
2737.24852	29509.9875
2739.83899	29390.1875
2742.42786	29380.6875
2745.01513	29323.0875
2747.60079	29251.7875
2750.18486	29164.5875
2752.76733	29189.0875
2755.3482	29148.9875
2757.92747	29129.8875
2760.50515	29021.5875
2763.08123	28991.4875
2765.65573	28975.8875
2768.22863	28932.8875
2770.79994	28924.4875
2773.36967	28907.0875
2775.9378	28837.6875
2778.50435	28824.4875
2781.06932	28773.8875
2783.6327	28710.4875
2786.1945	28695.8875
2788.75471	28676.5875
2791.31335	28549.2875
2793.87041	28524.7875
2796.42589	28413.6875
2798.97979	28491.1875
2801.53212	28412.8875
2804.08288	28357.6875
2806.63206	28232.2875
2809.17967	28219.6875
2811.72571	28106.4875
2814.27018	28089.7875
2816.81308	28015.0875
2819.35442	27945.7875
2821.89419	27823.8875
2824.43239	27806.6875
2826.96904	27721.0875
2829.50412	27767.1875
2832.03763	27653.9875
2834.56959	27609.0875
2837.1	27600.5875
2839.62884	27630.0875
2842.15613	27573.2875
2844.68186	27589.5875
2847.20604	27545.2875
2849.72867	27513.5875
2852.24974	27434.4875
2854.76927	27432.2875
2857.28724	27349.3875
2859.80367	27317.6875
2862.31855	27276.0875
2864.83189	27279.4875
2867.34368	27195.4875
2869.85393	27183.7875
2872.36264	27115.1875
2874.8698	27096.9875
2877.37543	27079.1875
2879.87952	27029.5875
2882.38207	26989.5875
2884.88308	26973.9875
2887.38256	26954.1875
2889.88051	26944.9875
2892.37692	26979.4875
2894.8718	27003.0875
2897.36515	26976.3875
2899.85698	26956.8875
2902.34727	27007.1875
2904.83604	27001.0875
2907.32328	27059.8875
2909.809	27045.8875
2912.29319	27027.1875
2914.77587	27036.2875
2917.25702	27028.4875
2919.73665	26979.7875
2922.21476	26976.6875
2924.69136	26908.2875
2927.16644	26859.5875
2929.64	26840.5875
2932.11205	26839.1875
2934.58258	26785.5875
2937.05161	26795.0875
2939.51912	26798.7875
2941.98513	26755.1875
2944.44962	26723.4875
2946.91261	26630.2875
2949.37409	26668.1875
2951.83407	26690.9875
2954.29254	26651.4875
2956.74951	26648.3875
2959.20498	26653.1875
2961.65895	26652.5875
2964.11142	26660.3875
2966.56239	26598.1875
2969.01186	26643.4875
2971.45984	26534.3875
2973.90632	26546.6875
2976.35131	26490.7875
2978.7948	26477.6875
2981.23681	26436.5875
2983.67732	26396.5875
2986.11635	26306.3875
2988.55388	26244.5875
2990.98993	26247.4875
2993.4245	26185.9875
2995.85758	26109.4875
2998.28917	25995.1875
3000.71928	25999.4875
3003.14791	25932.8875
3005.57506	25890.6875
3008.00073	25775.1875
3010.42493	25768.8875
3012.84764	25713.7875
3015.26888	25708.3875
3017.68865	25628.6875
3020.10694	25630.8875
3022.52376	25554.9875
3024.9391	25516.3875
3027.35298	25444.3875
3029.76539	25460.6875
3032.17632	25472.7875
3034.5858	25384.5875
3036.9938	25369.1875
3039.40034	25314.9875
3041.80542	25299.1875
3044.20903	25250.7875
3046.61118	25191.1875
3049.01187	25122.2875
3051.4111	25156.5875
3053.80888	25057.6875
3056.20519	25040.0875
3058.60005	24959.6875
3060.99345	24937.0875
3063.3854	24876.0875
3065.7759	24767.6875
3068.16494	24735.6875
3070.55254	24655.1875
3072.93868	24610.9875
3075.32338	24525.6875
3077.70662	24501.5875
3080.08842	24442.5875
3082.46878	24370.8875
3084.84769	24341.2875
3087.22515	24357.1875
3089.60118	24342.0875
3091.97576	24289.6875
3094.3489	24268.3875
3096.72061	24240.5875
3099.09087	24267.2875
3101.4597	24257.3875
3103.82709	24226.2875
3106.19305	24166.6875
3108.55757	24187.9875
3110.92066	24149.6875
3113.28232	24113.0875
3115.64255	24070.5875
3118.00134	24020.5875
3120.35871	23963.7875
3122.71466	23913.7875
3125.06917	23868.5875
3127.42226	23823.1875
3129.77393	23817.6875
3132.12417	23768.6875
3134.47299	23685.6875
3136.82039	23680.3875
3139.16636	23635.0875
3141.51092	23626.1875
3143.85406	23620.3875
3146.19579	23587.4875
3148.53609	23601.1875
3150.87499	23643.9875
3153.21246	23647.7875
3155.54853	23665.8875
3157.88318	23635.2875
3160.21642	23691.1875
3162.54826	23616.2875
3164.87868	23594.0875
3167.2077	23556.7875
3169.5353	23552.2875
3171.86151	23522.4875
3174.18631	23484.7875
3176.5097	23475.0875
3178.83169	23404.3875
3181.15228	23378.0875
3183.47147	23290.5875
3185.78926	23294.0875
3188.10565	23222.4875
3190.42065	23224.1875
3192.73424	23166.4875
3195.04645	23142.7875
3197.35725	23091.2875
3199.66667	23078.7875
3201.97469	23057.9875
3204.28132	23048.7875
3206.58656	23050.7875
3208.8904	23050.0875
3211.19287	23024.7875
3213.49394	23019.9875
3215.79363	23022.9875
3218.09193	23050.0875
3220.38884	23047.8875
3222.68438	23064.8875
3224.97853	23019.2875
3227.2713	23046.0875
3229.56269	23001.7875
3231.8527	22959.8875
3234.14133	22892.4875
3236.42858	22839.4875
3238.71446	22825.0875
3240.99896	22690.7875
3243.28209	22691.7875
3245.56384	22646.6875
3247.84423	22665.7875
3250.12324	22652.1875
3252.40088	22595.3875
3254.67715	22548.2875
3256.95205	22495.3875
3259.22558	22528.5875
3261.49775	22534.8875
3263.76855	22528.7875
3266.03799	22495.6875
3268.30606	22455.8875
3270.57277	22434.5875
3272.83812	22386.5875
3275.10211	22277.0875
3277.36474	22225.3875
3279.62601	22250.0875
3281.88593	22179.9875
3284.14448	22164.5875
3286.40168	22179.4875
3288.65753	22144.3875
3290.91202	22123.9875
3293.16516	22094.8875
3295.41695	22004.7875
3297.66738	21882.8875
3299.91647	21773.0875
3302.16421	21674.6875
3304.4106	21556.1875
3306.65564	21386.8875
3308.89933	21232.1875
3311.14169	21096.3875
3313.38269	20920.5875
3315.62236	20816.4875
3317.86068	20646.7875
3320.09766	20545.1875
3322.3333	20381.3875
3324.5676	20284.1875
3326.80056	19995.2875
3329.03219	19875.7875
3331.26248	3.2875
3333.49143	1.0875
3335.71905	0.8875
