Data from AgNPs_UA_100uM_CRN_0uM_R6G_10uM_Q_RamanShift__12__13-26-25-323.txt Node

Date: Tue Jul 26 13:26:25 BST 2022
User: TCL
Spectrometer: QEP01345
Trigger mode: 4
Integration Time (sec): 7.000000E0
Scans to average: 10
Electric dark correction enabled: true
Nonlinearity correction enabled: false
Boxcar width: 0
XAxis mode: Raman Shifts
Number of Pixels in Spectrum: 1044
>>>>>Begin Spectral Data<<<<<
46.04893	-0.7625
50.45542	0.3375
54.85868	0.6375
59.25871	-0.5625
63.6555	67.0375
68.04907	70.1375
72.43941	75.5375
76.82654	75.9375
81.21044	84.7375
85.59113	82.8375
89.96862	89.4375
94.34289	93.3375
98.71396	97.4375
103.08183	97.4375
107.4465	97.2375
111.80798	102.1375
116.16626	101.3375
120.52136	106.2375
124.87327	104.9375
129.222	112.8375
133.56755	113.3375
137.90993	118.5375
142.24913	120.1375
146.58517	129.1375
150.91804	142.6375
155.24774	164.4375
159.57429	192.6375
163.89768	236.9375
168.21792	304.6375
172.53501	400.1375
176.84895	551.7375
181.15975	768.9375
185.46741	1071.4375
189.77193	1477.2375
194.07331	1962.2375
198.37157	2516.8375
202.6667	3088.6375
206.9587	3663.7375
211.24758	4234.2375
215.53334	4781.3375
219.81599	5349.1375
224.09553	5976.6375
228.37195	6691.0375
232.64527	7448.5375
236.91549	8303.9375
241.18261	9168.2375
245.44663	10014.0375
249.70755	10808.6375
253.96539	11498.2375
258.22014	12057.0375
262.4718	12507.1375
266.72039	12820.3375
270.96589	12894.1375
275.20832	12888.8375
279.44768	12808.7375
283.68397	12678.6375
287.91719	12506.3375
292.14735	12357.8375
296.37445	12255.7375
300.59849	12204.2375
304.81948	12188.6375
309.03742	12167.0375
313.25231	12110.6375
317.46415	12059.2375
321.67296	11996.1375
325.87872	11961.3375
330.08145	11962.7375
334.28114	12063.9375
338.47781	12191.8375
342.67145	12329.0375
346.86207	12487.4375
351.04966	12688.4375
355.23424	12891.0375
359.4158	13055.1375
363.59435	13248.9375
367.76989	13384.4375
371.94243	13515.9375
376.11196	13679.4375
380.27849	13779.3375
384.44203	13932.2375
388.60257	14021.4375
392.76012	14156.1375
396.91468	14264.1375
401.06626	14403.0375
405.21485	14579.5375
409.36047	14668.1375
413.50311	14625.5375
417.64277	14607.3375
421.77947	14612.5375
425.9132	14681.8375
430.04396	14743.5375
434.17176	14873.7375
438.2966	15011.4375
442.41849	15138.3375
446.53742	15279.6375
450.6534	15402.7375
454.76644	15573.0375
458.87653	15661.1375
462.98368	15729.5375
467.08789	15760.7375
471.18916	15780.2375
475.2875	15758.8375
479.38291	15700.4375
483.4754	15709.4375
487.56496	15700.4375
491.6516	15752.9375
495.73531	15767.6375
499.81612	15791.7375
503.89401	15913.0375
507.96899	15946.4375
512.04106	16014.5375
516.11023	16024.7375
520.1765	16080.3375
524.23987	16094.8375
528.30034	16071.9375
532.35792	16108.6375
536.41261	16095.1375
540.46441	16079.2375
544.51333	16085.9375
548.55936	16158.6375
552.60252	16261.4375
556.64279	16385.3375
560.6802	16439.4375
564.71473	16486.2375
568.7464	16517.4375
572.7752	16551.1375
576.80114	16595.5375
580.82422	16675.1375
584.84444	16761.2375
588.86181	16841.9375
592.87633	16840.7375
596.888	16923.6375
600.89682	17126.7375
604.9028	17539.5375
608.90594	18313.1375
612.90624	18966.8375
616.90371	18569.0375
620.89834	17526.4375
624.89015	17101.4375
628.87913	17058.3375
632.86528	17171.1375
636.84862	17262.6375
640.82913	17258.1375
644.80683	17188.9375
648.78172	17174.5375
652.75379	17191.7375
656.72306	17285.3375
660.68952	17426.1375
664.65319	17451.0375
668.61405	17400.0375
672.57211	17427.1375
676.52738	17482.8375
680.47986	17486.5375
684.42955	17478.5375
688.37646	17477.8375
692.32058	17529.8375
696.26192	17613.5375
700.20048	17744.2375
704.13626	17784.6375
708.06928	17871.9375
711.99952	17817.0375
715.927	17782.5375
719.85171	17778.9375
723.77365	17808.6375
727.69284	17789.4375
731.60928	17793.3375
735.52295	17804.6375
739.43388	17841.2375
743.34206	17878.5375
747.24749	17951.8375
751.15017	17989.5375
755.05012	18063.5375
758.94733	18175.4375
762.8418	18462.0375
766.73354	18867.4375
770.62254	19355.4375
774.50882	19534.3375
778.39237	19336.7375
782.27321	18949.8375
786.15132	18596.9375
790.02671	18303.3375
793.89938	18207.0375
797.76935	18129.3375
801.6366	18118.1375
805.50115	18098.0375
809.36299	18121.9375
813.22213	18092.5375
817.07857	18130.8375
820.93231	18140.1375
824.78336	18167.6375
828.63172	18189.4375
832.47738	18212.0375
836.32036	18217.7375
840.16066	18242.0375
843.99827	18234.2375
847.8332	18287.6375
851.66546	18313.4375
855.49504	18372.5375
859.32195	18381.2375
863.1462	18400.3375
866.96777	18417.6375
870.78668	18446.4375
874.60293	18515.9375
878.41652	18531.9375
882.22745	18609.6375
886.03573	18613.6375
889.84136	18632.2375
893.64433	18621.4375
897.44466	18618.9375
901.24235	18593.9375
905.0374	18616.3375
908.8298	18578.4375
912.61957	18577.6375
916.40671	18569.2375
920.19121	18623.9375
923.97308	18636.2375
927.75233	18620.0375
931.52895	18606.4375
935.30295	18597.9375
939.07433	18530.9375
942.84309	18479.5375
946.60924	18455.8375
950.37278	18413.3375
954.13371	18380.8375
957.89203	18397.8375
961.64774	18439.5375
965.40086	18409.3375
969.15137	18375.8375
972.89929	18350.1375
976.64461	18353.4375
980.38733	18346.8375
984.12747	18386.5375
987.86502	18431.7375
991.59999	18483.1375
995.33237	18525.8375
999.06217	18581.2375
1002.78939	18685.3375
1006.51404	18764.2375
1010.23611	18878.6375
1013.95561	18967.6375
1017.67255	19027.4375
1021.38692	18980.1375
1025.09872	18924.0375
1028.80796	18858.6375
1032.51465	18854.1375
1036.21877	18821.1375
1039.92035	18824.9375
1043.61937	18880.1375
1047.31584	18918.9375
1051.00976	18952.2375
1054.70114	18980.5375
1058.38998	19073.5375
1062.07627	19069.0375
1065.76003	19185.8375
1069.44126	19244.6375
1073.11995	19391.7375
1076.79611	19540.5375
1080.46974	19613.4375
1084.14085	19621.0375
1087.80943	19618.0375
1091.47549	19687.4375
1095.13903	19682.6375
1098.80005	19687.5375
1102.45857	19610.0375
1106.11456	19548.2375
1109.76805	19449.9375
1113.41903	19399.9375
1117.06751	19438.3375
1120.71348	19537.1375
1124.35696	19586.8375
1127.99793	19652.3375
1131.63641	19652.2375
1135.2724	19578.0375
1138.90589	19495.3375
1142.5369	19507.2375
1146.16542	19442.3375
1149.79145	19447.9375
1153.415	19355.4375
1157.03607	19320.6375
1160.65467	19321.1375
1164.27079	19441.3375
1167.88443	19585.4375
1171.49561	19831.0375
1175.10432	20178.1375
1178.71056	20640.3375
1182.31434	21063.0375
1185.91565	21321.6375
1189.51451	21485.1375
1193.11091	21502.3375
1196.70485	21375.6375
1200.29634	21202.7375
1203.88538	21020.4375
1207.47197	20735.9375
1211.05612	20514.2375
1214.63782	20378.3375
1218.21708	20210.5375
1221.79391	20104.0375
1225.36829	20027.8375
1228.94024	20023.4375
1232.50976	20004.0375
1236.07685	20021.4375
1239.6415	20044.0375
1243.20374	20128.3375
1246.76355	20187.4375
1250.32093	20250.7375
1253.8759	20358.7375
1257.42845	20507.8375
1260.97859	20701.2375
1264.52631	20844.9375
1268.07163	20925.1375
1271.61453	21006.0375
1275.15503	21021.2375
1278.69312	21088.6375
1282.22882	21072.1375
1285.76211	21084.6375
1289.29301	21134.2375
1292.82151	21249.9375
1296.34761	21382.3375
1299.87133	21588.1375
1303.39266	21884.1375
1306.9116	22174.8375
1310.42815	22582.5375
1313.94233	22765.3375
1317.45412	22757.8375
1320.96354	22604.5375
1324.47058	22405.3375
1327.97525	22162.1375
1331.47754	22004.4375
1334.97747	21968.9375
1338.47502	22076.9375
1341.97022	22319.0375
1345.46305	22670.7375
1348.95352	23084.4375
1352.44163	23406.6375
1355.92738	23646.6375
1359.41078	23893.8375
1362.89183	24068.9375
1366.37053	23697.2375
1369.84688	22809.7375
1373.32088	21881.1375
1376.79254	21196.4375
1380.26186	20784.5375
1383.72883	20503.1375
1387.19347	20313.3375
1390.65578	20098.5375
1394.11575	19873.8375
1397.57339	19709.3375
1401.0287	19608.1375
1404.48168	19551.0375
1407.93234	19534.8375
1411.38068	19561.1375
1414.82669	19568.2375
1418.27039	19523.1375
1421.71177	19421.3375
1425.15083	19357.5375
1428.58758	19274.9375
1432.02203	19297.6375
1435.45416	19258.1375
1438.88399	19244.8375
1442.31151	19276.4375
1445.73673	19293.8375
1449.15965	19347.1375
1452.58027	19386.5375
1455.9986	19354.2375
1459.41463	19398.5375
1462.82837	19533.0375
1466.23982	19688.9375
1469.64898	19845.0375
1473.05586	20048.8375
1476.46045	20153.3375
1479.86276	20235.0375
1483.26279	20290.3375
1486.66054	20361.7375
1490.05602	20471.3375
1493.44922	20653.8375
1496.84016	20920.1375
1500.22882	21440.6375
1503.61521	21967.9375
1506.99934	22516.3375
1510.38121	22814.6375
1513.76081	22684.7375
1517.13816	22297.7375
1520.51324	21733.4375
1523.88607	21267.1375
1527.25665	21031.5375
1530.62498	20831.7375
1533.99105	20762.1375
1537.35488	20689.9375
1540.71647	20688.5375
1544.07581	20691.5375
1547.4329	20669.5375
1550.78776	20614.4375
1554.14038	20544.8375
1557.49077	20557.1375
1560.83892	20556.1375
1564.18484	20551.7375
1567.52853	20617.2375
1570.86999	20688.6375
1574.20922	20763.2375
1577.54624	20702.7375
1580.88103	20585.8375
1584.2136	20321.9375
1587.54395	20231.3375
1590.87208	20275.6375
1594.19801	20487.0375
1597.52172	20719.8375
1600.84321	20884.6375
1604.16251	20884.1375
1607.47959	20721.4375
1610.79447	20456.7375
1614.10715	20105.0375
1617.41763	19751.9375
1620.7259	19397.7375
1624.03199	19212.7375
1627.33587	19097.0375
1630.63757	19105.2375
1633.93707	19180.5375
1637.23439	19407.5375
1640.52951	19780.5375
1643.82246	20255.8375
1647.11321	20725.5375
1650.40179	20985.5375
1653.68819	20830.8375
1656.97241	20285.3375
1660.25446	19597.6375
1663.53433	19065.5375
1666.81203	18712.0375
1670.08756	18494.9375
1673.36092	18293.1375
1676.63211	18192.1375
1679.90115	18097.6375
1683.16801	18021.0375
1686.43272	17940.5375
1689.69527	17871.1375
1692.95567	17809.0375
1696.2139	17781.5375
1699.46999	17772.2375
1702.72392	17728.7375
1705.97571	17745.1375
1709.22535	17717.6375
1712.47284	17717.9375
1715.71819	17729.7375
1718.96139	17723.9375
1722.20246	17705.0375
1725.44139	17647.8375
1728.67818	17666.0375
1731.91284	17583.3375
1735.14537	17565.3375
1738.37576	17512.1375
1741.60403	17486.8375
1744.83017	17420.9375
1748.05418	17436.7375
1751.27607	17390.0375
1754.49584	17352.2375
1757.71349	17347.9375
1760.92903	17342.2375
1764.14244	17323.1375
1767.35375	17337.9375
1770.56294	17338.6375
1773.77002	17320.8375
1776.97499	17294.2375
1780.17785	17272.6375
1783.37861	17263.4375
1786.57727	17264.2375
1789.77382	17234.8375
1792.96828	17211.8375
1796.16064	17216.0375
1799.3509	17173.3375
1802.53907	17167.5375
1805.72514	17130.1375
1808.90913	17085.1375
1812.09102	17078.8375
1815.27083	17048.8375
1818.44856	17042.3375
1821.6242	17006.5375
1824.79776	17021.1375
1827.96924	16902.3375
1831.13864	16918.1375
1834.30597	16908.1375
1837.47122	16891.2375
1840.6344	16888.2375
1843.7955	16878.4375
1846.95454	16855.1375
1850.11151	16851.5375
1853.26642	16860.9375
1856.41926	16833.2375
1859.57004	16821.9375
1862.71876	16816.9375
1865.86542	16802.3375
1869.01003	16805.4375
1872.15258	16791.5375
1875.29308	16765.2375
1878.43152	16734.1375
1881.56792	16747.0375
1884.70227	16698.1375
1887.83457	16615.9375
1890.96482	16647.0375
1894.09304	16634.2375
1897.21921	16611.7375
1900.34335	16560.6375
1903.46544	16558.4375
1906.58551	16575.0375
1909.70353	16530.7375
1912.81953	16530.8375
1915.93349	16526.3375
1919.04543	16471.4375
1922.15534	16463.0375
1925.26322	16469.9375
1928.36908	16397.8375
1931.47292	16414.2375
1934.57473	16375.7375
1937.67453	16314.0375
1940.77232	16306.4375
1943.86808	16254.4375
1946.96184	16203.9375
1950.05358	16199.1375
1953.14331	16124.9375
1956.23103	16075.0375
1959.31675	16044.4375
1962.40046	16007.4375
1965.48217	15948.1375
1968.56188	15901.6375
1971.63959	15838.7375
1974.7153	15815.1375
1977.78901	15743.9375
1980.86073	15704.3375
1983.93046	15691.5375
1986.99819	15660.6375
1990.06394	15616.0375
1993.1277	15535.8375
1996.18947	15496.3375
1999.24925	15438.3375
2002.30706	15441.5375
2005.36288	15345.2375
2008.41672	15359.5375
2011.46859	15256.5375
2014.51848	15206.3375
2017.56639	15187.9375
2020.61233	15180.5375
2023.6563	15123.6375
2026.6983	15088.8375
2029.73833	15082.8375
2032.7764	15024.1375
2035.8125	14984.9375
2038.84664	14940.0375
2041.87881	14909.1375
2044.90903	14922.9375
2047.93729	14861.1375
2050.96359	14873.2375
2053.98794	14839.2375
2057.01034	14814.6375
2060.03078	14838.8375
2063.04927	14847.5375
2066.06582	14792.8375
2069.08042	14785.2375
2072.09307	14771.9375
2075.10378	14763.9375
2078.11255	14742.9375
2081.11938	14762.5375
2084.12426	14725.9375
2087.12722	14760.2375
2090.12824	14717.2375
2093.12732	14739.3375
2096.12447	14749.5375
2099.11969	14725.6375
2102.11299	14738.5375
2105.10435	14752.7375
2108.09379	14737.2375
2111.08131	14747.4375
2114.0669	14751.6375
2117.05057	14788.9375
2120.03233	14801.3375
2123.01216	14791.9375
2125.99008	14820.5375
2128.96609	14821.3375
2131.94018	14827.6375
2134.91236	14869.8375
2137.88263	14890.3375
2140.851	14912.5375
2143.81746	14871.2375
2146.78201	14904.3375
2149.74466	14880.8375
2152.7054	14878.6375
2155.66425	14906.1375
2158.6212	14889.0375
2161.57625	14867.0375
2164.52941	14900.0375
2167.48067	14871.3375
2170.43004	14817.3375
2173.37752	14840.9375
2176.32311	14852.2375
2179.26681	14862.6375
2182.20863	14845.5375
2185.14856	14818.5375
2188.08661	14827.6375
2191.02278	14813.6375
2193.95707	14808.4375
2196.88948	14801.0375
2199.82001	14798.1375
2202.74867	14810.3375
2205.67545	14766.0375
2208.60037	14747.4375
2211.52341	14763.6375
2214.44458	14709.3375
2217.36388	14641.9375
2220.28132	14618.6375
2223.1969	14584.8375
2226.11061	14547.5375
2229.02246	14508.4375
2231.93245	14526.6375
2234.84058	14511.6375
2237.74686	14453.7375
2240.65128	14444.6375
2243.55385	14406.9375
2246.45456	14420.1375
2249.35343	14400.5375
2252.25044	14378.7375
2255.14561	14354.7375
2258.03893	14329.3375
2260.93041	14322.0375
2263.82004	14283.4375
2266.70783	14267.0375
2269.59378	14226.1375
2272.4779	14201.5375
2275.36017	14179.3375
2278.24061	14142.7375
2281.11922	14111.5375
2283.996	14095.6375
2286.87094	14083.2375
2289.74405	14038.2375
2292.61534	14012.9375
2295.4848	14009.3375
2298.35243	14007.1375
2301.21824	13981.6375
2304.08223	13974.9375
2306.94439	13979.0375
2309.80474	13972.8375
2312.66327	13952.7375
2315.51999	13935.8375
2318.37489	13920.0375
2321.22797	13875.4375
2324.07925	13835.9375
2326.92871	13853.1375
2329.77637	13811.7375
2332.62222	13795.9375
2335.46626	13775.3375
2338.3085	13743.4375
2341.14893	13710.0375
2343.98756	13685.3375
2346.8244	13681.9375
2349.65943	13669.0375
2352.49267	13623.8375
2355.32411	13618.0375
2358.15376	13621.5375
2360.98161	13577.7375
2363.80768	13564.3375
2366.63195	13575.5375
2369.45444	13565.3375
2372.27514	13542.5375
2375.09405	13561.2375
2377.91118	13528.9375
2380.72652	13488.9375
2383.54009	13486.0375
2386.35187	13452.6375
2389.16188	13410.9375
2391.97011	13393.4375
2394.77657	13369.9375
2397.58125	13344.0375
2400.38416	13316.0375
2403.18529	13288.7375
2405.98466	13284.5375
2408.78226	13265.3375
2411.57809	13242.0375
2414.37216	13244.8375
2417.16446	13243.1375
2419.955	13217.4375
2422.74378	13196.9375
2425.5308	13186.8375
2428.31606	13179.6375
2431.09956	13148.1375
2433.88131	13155.6375
2436.6613	13142.7375
2439.43954	13109.9375
2442.21603	13109.7375
2444.99077	13095.2375
2447.76377	13089.5375
2450.53501	13045.1375
2453.30451	13035.6375
2456.07226	12997.2375
2458.83827	12956.0375
2461.60254	12968.7375
2464.36507	12946.9375
2467.12586	12959.7375
2469.88492	12939.7375
2472.64224	12920.7375
2475.39782	12885.2375
2478.15167	12920.1375
2480.90379	12868.8375
2483.65417	12878.0375
2486.40283	12881.4375
2489.14976	12865.5375
2491.89497	12840.3375
2494.63845	12818.7375
2497.3802	12821.7375
2500.12024	12809.9375
2502.85855	12795.5375
2505.59514	12742.0375
2508.33002	12736.3375
2511.06318	12729.9375
2513.79462	12705.7375
2516.52435	12688.7375
2519.25237	12705.1375
2521.97867	12657.5375
2524.70327	12652.5375
2527.42616	12659.5375
2530.14734	12626.2375
2532.86681	12589.1375
2535.58458	12583.2375
2538.30065	12539.4375
2541.01501	12568.3375
2543.72768	12509.5375
2546.43864	12499.8375
2549.14791	12481.9375
2551.85548	12443.1375
2554.56136	12434.7375
2557.26554	12412.0375
2559.96803	12384.8375
2562.66883	12364.2375
2565.36794	12334.2375
2568.06536	12339.5375
2570.7611	12256.4375
2573.45514	12255.8375
2576.14751	12227.5375
2578.83819	12231.2375
2581.52719	12210.8375
2584.21451	12188.2375
2586.90015	12180.6375
2589.58411	12154.1375
2592.2664	12121.7375
2594.94701	12089.3375
2597.62594	12082.0375
2600.30321	12044.5375
2602.9788	12033.1375
2605.65273	11998.3375
2608.32498	12001.4375
2610.99557	11991.3375
2613.66449	11996.7375
2616.33175	11916.8375
2618.99734	11929.9375
2621.66128	11912.7375
2624.32355	11884.4375
2626.98416	11862.8375
2629.64311	11835.5375
2632.30041	11823.6375
2634.95605	11787.5375
2637.61004	11772.6375
2640.26238	11770.4375
2642.91306	11743.1375
2645.56209	11750.4375
2648.20948	11749.8375
2650.85521	11726.7375
2653.4993	11725.0375
2656.14175	11679.7375
2658.78255	11707.0375
2661.42171	11701.2375
2664.05923	11682.9375
2666.6951	11692.3375
2669.32934	11672.2375
2671.96194	11689.2375
2674.59291	11693.0375
2677.22224	11670.6375
2679.84993	11669.4375
2682.476	11647.2375
2685.10043	11646.5375
2687.72324	11637.8375
2690.34441	11637.5375
2692.96396	11613.0375
2695.58188	11639.7375
2698.19818	11617.2375
2700.81285	11621.5375
2703.4259	11569.4375
2706.03733	11595.6375
2708.64714	11613.4375
2711.25533	11581.5375
2713.86191	11601.9375
2716.46687	11594.2375
2719.07021	11596.0375
2721.67194	11605.8375
2724.27206	11568.2375
2726.87057	11584.4375
2729.46747	11571.8375
2732.06276	11589.8375
2734.65644	11572.1375
2737.24852	11572.5375
2739.83899	11561.3375
2742.42786	11535.6375
2745.01513	11515.9375
2747.60079	11480.3375
2750.18486	11453.0375
2752.76733	11478.7375
2755.3482	11434.7375
2757.92747	11439.8375
2760.50515	11419.7375
2763.08123	11387.2375
2765.65573	11398.5375
2768.22863	11364.5375
2770.79994	11348.9375
2773.36967	11331.6375
2775.9378	11304.4375
2778.50435	11274.9375
2781.06932	11294.0375
2783.6327	11270.7375
2786.1945	11237.9375
2788.75471	11223.9375
2791.31335	11193.2375
2793.87041	11164.3375
2796.42589	11158.3375
2798.97979	11151.6375
2801.53212	11129.0375
2804.08288	11084.6375
2806.63206	11064.8375
2809.17967	11043.9375
2811.72571	10974.6375
2814.27018	10972.3375
2816.81308	10936.7375
2819.35442	10908.9375
2821.89419	10868.3375
2824.43239	10885.8375
2826.96904	10858.0375
2829.50412	10835.3375
2832.03763	10813.8375
2834.56959	10783.1375
2837.1	10788.8375
2839.62884	10780.2375
2842.15613	10773.0375
2844.68186	10768.4375
2847.20604	10763.9375
2849.72867	10742.7375
2852.24974	10727.0375
2854.76927	10687.6375
2857.28724	10678.1375
2859.80367	10677.2375
2862.31855	10652.3375
2864.83189	10629.7375
2867.34368	10608.7375
2869.85393	10598.9375
2872.36264	10563.2375
2874.8698	10541.3375
2877.37543	10540.1375
2879.87952	10540.5375
2882.38207	10532.0375
2884.88308	10544.6375
2887.38256	10544.4375
2889.88051	10529.6375
2892.37692	10532.1375
2894.8718	10557.1375
2897.36515	10542.1375
2899.85698	10509.0375
2902.34727	10520.1375
2904.83604	10536.5375
2907.32328	10562.2375
2909.809	10550.6375
2912.29319	10534.8375
2914.77587	10524.9375
2917.25702	10525.3375
2919.73665	10500.7375
2922.21476	10506.3375
2924.69136	10465.7375
2927.16644	10505.1375
2929.64	10465.8375
2932.11205	10455.9375
2934.58258	10445.1375
2937.05161	10441.2375
2939.51912	10457.3375
2941.98513	10443.6375
2944.44962	10454.8375
2946.91261	10425.0375
2949.37409	10418.6375
2951.83407	10400.8375
2954.29254	10411.2375
2956.74951	10384.8375
2959.20498	10373.8375
2961.65895	10372.3375
2964.11142	10396.3375
2966.56239	10359.6375
2969.01186	10385.1375
2971.45984	10359.3375
2973.90632	10377.1375
2976.35131	10364.2375
2978.7948	10349.0375
2981.23681	10334.1375
2983.67732	10300.1375
2986.11635	10293.6375
2988.55388	10272.0375
2990.98993	10242.6375
2993.4245	10218.5375
2995.85758	10206.8375
2998.28917	10198.6375
3000.71928	10196.2375
3003.14791	10138.4375
3005.57506	10130.0375
3008.00073	10101.5375
3010.42493	10116.2375
3012.84764	10071.2375
3015.26888	10087.7375
3017.68865	10064.8375
3020.10694	10042.3375
3022.52376	10015.0375
3024.9391	10021.1375
3027.35298	9989.1375
3029.76539	9995.3375
3032.17632	9985.2375
3034.5858	9960.8375
3036.9938	9969.5375
3039.40034	9950.3375
3041.80542	9947.3375
3044.20903	9928.4375
3046.61118	9911.0375
3049.01187	9888.6375
3051.4111	9880.0375
3053.80888	9858.4375
3056.20519	9851.3375
3058.60005	9813.5375
3060.99345	9805.9375
3063.3854	9780.3375
3065.7759	9759.8375
3068.16494	9744.3375
3070.55254	9724.8375
3072.93868	9711.1375
3075.32338	9685.1375
3077.70662	9683.5375
3080.08842	9633.4375
3082.46878	9651.8375
3084.84769	9621.4375
3087.22515	9638.7375
3089.60118	9627.6375
3091.97576	9630.5375
3094.3489	9625.2375
3096.72061	9631.6375
3099.09087	9649.1375
3101.4597	9625.8375
3103.82709	9645.4375
3106.19305	9635.3375
3108.55757	9642.3375
3110.92066	9615.3375
3113.28232	9621.7375
3115.64255	9584.5375
3118.00134	9576.4375
3120.35871	9559.9375
3122.71466	9554.1375
3125.06917	9530.4375
3127.42226	9499.3375
3129.77393	9492.4375
3132.12417	9487.0375
3134.47299	9494.2375
3136.82039	9489.7375
3139.16636	9496.1375
3141.51092	9467.6375
3143.85406	9476.3375
3146.19579	9461.8375
3148.53609	9499.6375
3150.87499	9485.3375
3153.21246	9490.6375
3155.54853	9530.3375
3157.88318	9519.1375
3160.21642	9536.5375
3162.54826	9520.0375
3164.87868	9524.5375
3167.2077	9528.4375
3169.5353	9533.8375
3171.86151	9527.4375
3174.18631	9527.5375
3176.5097	9518.0375
3178.83169	9501.3375
3181.15228	9498.4375
3183.47147	9452.1375
3185.78926	9469.1375
3188.10565	9430.7375
3190.42065	9419.8375
3192.73424	9390.6375
3195.04645	9404.4375
3197.35725	9421.8375
3199.66667	9409.3375
3201.97469	9417.1375
3204.28132	9394.1375
3206.58656	9393.7375
3208.8904	9400.8375
3211.19287	9395.1375
3213.49394	9422.3375
3215.79363	9432.9375
3218.09193	9422.4375
3220.38884	9409.3375
3222.68438	9410.6375
3224.97853	9401.6375
3227.2713	9411.3375
3229.56269	9403.2375
3231.8527	9384.3375
3234.14133	9356.8375
3236.42858	9333.7375
3238.71446	9339.4375
3240.99896	9277.1375
3243.28209	9286.4375
3245.56384	9253.2375
3247.84423	9260.7375
3250.12324	9253.3375
3252.40088	9245.3375
3254.67715	9228.9375
3256.95205	9219.3375
3259.22558	9248.5375
3261.49775	9256.6375
3263.76855	9248.0375
3266.03799	9241.4375
3268.30606	9230.3375
3270.57277	9198.7375
3272.83812	9180.6375
3275.10211	9166.3375
3277.36474	9132.6375
3279.62601	9129.7375
3281.88593	9103.6375
3284.14448	9090.3375
3286.40168	9117.0375
3288.65753	9105.3375
3290.91202	9096.9375
3293.16516	9087.4375
3295.41695	9052.0375
3297.66738	8983.6375
3299.91647	8945.9375
3302.16421	8879.8375
3304.4106	8843.5375
3306.65564	8792.5375
3308.89933	8706.8375
3311.14169	8668.8375
3313.38269	8588.7375
3315.62236	8556.5375
3317.86068	8505.9375
3320.09766	8433.8375
3322.3333	8358.8375
3324.5676	8322.4375
3326.80056	8208.8375
3329.03219	8162.8375
3331.26248	2.0375
3333.49143	-0.4625
3335.71905	-1.1625
