Data from AgNPs_UA_20uM_CRN_0uM_R6G_10uM_Q_RamanShift__2__12-38-42-003.txt Node

Date: Mon Jul 18 12:38:42 BST 2022
User: TCL
Spectrometer: QEP01345
Trigger mode: 4
Integration Time (sec): 7.000000E0
Scans to average: 10
Electric dark correction enabled: true
Nonlinearity correction enabled: false
Boxcar width: 0
XAxis mode: Raman Shifts
Number of Pixels in Spectrum: 1044
>>>>>Begin Spectral Data<<<<<
46.04893	-1.5875
50.45542	-0.8875
54.85868	0.0125
59.25871	-0.7875
63.6555	130.8125
68.04907	140.8125
72.43941	150.6125
76.82654	155.2125
81.21044	159.8125
85.59113	164.5125
89.96862	167.8125
94.34289	175.0125
98.71396	185.0125
103.08183	190.3125
107.4465	193.4125
111.80798	201.8125
116.16626	207.6125
120.52136	218.0125
124.87327	228.0125
129.222	234.8125
133.56755	256.4125
137.90993	281.3125
142.24913	305.1125
146.58517	345.4125
150.91804	402.4125
155.24774	483.4125
159.57429	603.3125
163.89768	780.1125
168.21792	1037.0125
172.53501	1423.8125
176.84895	1992.2125
181.15975	2810.2125
185.46741	3957.6125
189.77193	5497.2125
194.07331	7332.8125
198.37157	9453.0125
202.6667	11673.2125
206.9587	13859.2125
211.24758	16081.6125
215.53334	18296.4125
219.81599	20692.4125
224.09553	23420.8125
228.37195	26318.0125
232.64527	29521.0125
236.91549	32711.1125
241.18261	35781.4125
245.44663	38426.3125
249.70755	40666.9125
253.96539	42617.5125
258.22014	44297.3125
262.4718	45749.9125
266.72039	46699.7125
270.96589	47141.8125
275.20832	47080.6125
279.44768	46692.7125
283.68397	46128.1125
287.91719	45773.6125
292.14735	45754.4125
296.37445	46224.8125
300.59849	47047.9125
304.81948	48071.7125
309.03742	48954.9125
313.25231	49193.5125
317.46415	48342.1125
321.67296	46719.7125
325.87872	45226.8125
330.08145	44580.8125
334.28114	44593.4125
338.47781	45034.9125
342.67145	45807.3125
346.86207	46805.2125
351.04966	48158.3125
355.23424	49613.3125
359.4158	50649.5125
363.59435	51285.1125
367.76989	51477.2125
371.94243	51391.0125
376.11196	51240.2125
380.27849	51168.2125
384.44203	51252.4125
388.60257	51387.1125
392.76012	51779.9125
396.91468	52356.8125
401.06626	53132.8125
405.21485	53591.3125
409.36047	52898.7125
413.50311	51624.3125
417.64277	50634.6125
421.77947	50146.9125
425.9132	49988.1125
430.04396	50185.8125
434.17176	50507.2125
438.2966	50949.7125
442.41849	51759.5125
446.53742	52872.6125
450.6534	54162.6125
454.76644	54832.9125
458.87653	54941.2125
462.98368	54754.6125
467.08789	54307.7125
471.18916	53565.8125
475.2875	52788.1125
479.38291	52082.6125
483.4754	51480.0125
487.56496	51080.7125
491.6516	50899.2125
495.73531	50844.9125
499.81612	50992.1125
503.89401	51375.9125
507.96899	51532.8125
512.04106	51687.5125
516.11023	51842.3125
520.1765	51920.1125
524.23987	51855.7125
528.30034	51739.6125
532.35792	51464.1125
536.41261	51023.8125
540.46441	50507.8125
544.51333	50488.2125
548.55936	50969.4125
552.60252	51813.9125
556.64279	52745.8125
560.6802	53303.8125
564.71473	53742.3125
568.7464	54499.9125
572.7752	55193.9125
576.80114	55232.8125
580.82422	55420.0125
584.84444	56014.8125
588.86181	56697.6125
592.87633	57448.1125
596.888	57965.2125
600.89682	58655.2125
604.9028	62132.9125
608.90594	70982.4125
612.90624	79536.8125
616.90371	73287.9125
620.89834	59256.8125
624.89015	53610.5125
628.87913	52924.3125
632.86528	53588.7125
636.84862	53953.5125
640.82913	53122.2125
644.80683	51748.3125
648.78172	50863.6125
652.75379	51001.4125
656.72306	52195.4125
660.68952	53491.7125
664.65319	52900.8125
668.61405	51831.8125
672.57211	51766.4125
676.52738	52003.0125
680.47986	51673.0125
684.42955	51155.7125
688.37646	51114.9125
692.32058	51450.9125
696.26192	52072.4125
700.20048	52778.1125
704.13626	53059.2125
708.06928	52783.5125
711.99952	52434.9125
715.927	52351.5125
719.85171	52554.9125
723.77365	52529.1125
727.69284	52039.4125
731.60928	51467.6125
735.52295	51434.5125
739.43388	51473.7125
743.34206	51713.1125
747.24749	51781.4125
751.15017	52106.4125
755.05012	52744.1125
758.94733	54606.1125
762.8418	58553.4125
766.73354	64507.3125
770.62254	69351.8125
774.50882	69915.4125
778.39237	66560.4125
782.27321	61653.2125
786.15132	57103.1125
790.02671	54256.9125
793.89938	52797.2125
797.76935	52166.3125
801.6366	51853.4125
805.50115	51634.4125
809.36299	51461.6125
813.22213	51195.0125
817.07857	51071.4125
820.93231	51026.7125
824.78336	51089.1125
828.63172	51220.6125
832.47738	51171.8125
836.32036	51195.8125
840.16066	51114.7125
843.99827	51045.1125
847.8332	51072.3125
851.66546	51168.7125
855.49504	51346.5125
859.32195	51280.3125
863.1462	51236.0125
866.96777	51251.2125
870.78668	51295.1125
874.60293	51383.7125
878.41652	51522.2125
882.22745	51811.6125
886.03573	52064.6125
889.84136	51992.2125
893.64433	51752.9125
897.44466	51540.6125
901.24235	51430.2125
905.0374	51230.5125
908.8298	51160.2125
912.61957	51112.0125
916.40671	51296.2125
920.19121	51646.5125
923.97308	52079.1125
927.75233	52446.6125
931.52895	52546.6125
935.30295	52066.3125
939.07433	51211.3125
942.84309	50529.4125
946.60924	50293.3125
950.37278	50124.1125
954.13371	50041.9125
957.89203	50073.3125
961.64774	50103.7125
965.40086	50015.3125
969.15137	49999.6125
972.89929	49945.0125
976.64461	50062.7125
980.38733	50165.1125
984.12747	50269.9125
987.86502	50559.3125
991.59999	50728.7125
995.33237	51083.3125
999.06217	51778.0125
1002.78939	52610.8125
1006.51404	53386.2125
1010.23611	54064.8125
1013.95561	54461.3125
1017.67255	54479.0125
1021.38692	54149.6125
1025.09872	53581.7125
1028.80796	53246.1125
1032.51465	53259.6125
1036.21877	53656.7125
1039.92035	53894.2125
1043.61937	53909.2125
1047.31584	53781.3125
1051.00976	53591.5125
1054.70114	53552.8125
1058.38998	53731.4125
1062.07627	54056.8125
1065.76003	54499.1125
1069.44126	55084.1125
1073.11995	55914.1125
1076.79611	56895.4125
1080.46974	57521.3125
1084.14085	58153.4125
1087.80943	58883.3125
1091.47549	59163.2125
1095.13903	58660.4125
1098.80005	57702.5125
1102.45857	56819.4125
1106.11456	56184.7125
1109.76805	55988.3125
1113.41903	56183.5125
1117.06751	56913.8125
1120.71348	57867.8125
1124.35696	59037.1125
1127.99793	59874.9125
1131.63641	59533.6125
1135.2724	58352.3125
1138.90589	57413.1125
1142.5369	56884.5125
1146.16542	56601.3125
1149.79145	56530.8125
1153.415	56511.8125
1157.03607	56777.1125
1160.65467	57440.1125
1164.27079	58978.5125
1167.88443	61097.6125
1171.49561	64124.0125
1175.10432	68577.1125
1178.71056	74067.4125
1182.31434	78716.3125
1185.91565	80389.7125
1189.51451	79694.4125
1193.11091	77529.7125
1196.70485	74872.5125
1200.29634	72327.4125
1203.88538	70003.7125
1207.47197	67477.1125
1211.05612	65252.4125
1214.63782	63724.2125
1218.21708	62733.5125
1221.79391	62135.8125
1225.36829	61886.0125
1228.94024	61623.5125
1232.50976	61279.1125
1236.07685	60911.6125
1239.6415	60831.3125
1243.20374	60919.7125
1246.76355	61352.4125
1250.32093	61957.4125
1253.8759	62891.5125
1257.42845	64254.5125
1260.97859	65804.9125
1264.52631	67425.1125
1268.07163	69023.5125
1271.61453	70259.3125
1275.15503	71451.9125
1278.69312	72383.3125
1282.22882	73079.9125
1285.76211	74344.7125
1289.29301	75997.7125
1292.82151	77897.5125
1296.34761	79989.6125
1299.87133	83074.4125
1303.39266	87407.7125
1306.9116	93372.2125
1310.42815	99276.3125
1313.94233	102091.6125
1317.45412	100017.7125
1320.96354	95878.5125
1324.47058	91902.4125
1327.97525	88603.7125
1331.47754	86411.5125
1334.97747	85796.7125
1338.47502	86114.7125
1341.97022	87428.5125
1345.46305	89581.0125
1348.95352	92642.8125
1352.44163	96158.3125
1355.92738	100435.1125
1359.41078	106873.0125
1362.89183	112651.4125
1366.37053	109501.9125
1369.84688	97709.4125
1373.32088	85859.1125
1376.79254	78387.5125
1380.26186	74955.6125
1383.72883	73356.1125
1387.19347	72026.1125
1390.65578	70402.4125
1394.11575	69053.3125
1397.57339	68172.2125
1401.0287	67688.6125
1404.48168	67509.7125
1407.93234	67379.4125
1411.38068	67381.9125
1414.82669	67149.7125
1418.27039	66507.1125
1421.71177	65785.2125
1425.15083	64850.8125
1428.58758	64532.7125
1432.02203	65016.2125
1435.45416	65965.6125
1438.88399	66707.8125
1442.31151	66987.1125
1445.73673	67288.2125
1449.15965	67406.9125
1452.58027	67263.7125
1455.9986	67043.0125
1459.41463	67117.4125
1462.82837	67837.4125
1466.23982	68920.5125
1469.64898	70122.1125
1473.05586	71213.3125
1476.46045	71865.6125
1479.86276	72262.9125
1483.26279	72982.9125
1486.66054	74056.2125
1490.05602	75666.7125
1493.44922	78004.2125
1496.84016	81584.8125
1500.22882	86805.2125
1503.61521	93852.9125
1506.99934	101130.2125
1510.38121	106010.0125
1513.76081	105545.4125
1517.13816	99221.9125
1520.51324	90555.8125
1523.88607	83416.2125
1527.25665	79147.6125
1530.62498	77096.4125
1533.99105	75798.0125
1537.35488	74649.0125
1540.71647	73585.6125
1544.07581	72574.3125
1547.4329	71452.0125
1550.78776	70561.0125
1554.14038	70168.2125
1557.49077	70160.7125
1560.83892	70829.2125
1564.18484	71930.9125
1567.52853	73352.2125
1570.86999	74442.0125
1574.20922	75102.2125
1577.54624	74796.0125
1580.88103	72798.9125
1584.2136	70463.9125
1587.54395	69557.8125
1590.87208	70540.5125
1594.19801	73217.5125
1597.52172	76461.0125
1600.84321	77659.5125
1604.16251	76164.3125
1607.47959	73303.2125
1610.79447	69791.2125
1614.10715	66071.8125
1617.41763	62779.0125
1620.7259	60419.2125
1624.03199	59147.1125
1627.33587	59020.2125
1630.63757	59980.5125
1633.93707	62147.6125
1637.23439	66065.9125
1640.52951	72233.5125
1643.82246	79998.7125
1647.11321	87418.4125
1650.40179	90557.0125
1653.68819	86373.1125
1656.97241	77093.2125
1660.25446	67730.3125
1663.53433	60930.7125
1666.81203	56765.9125
1670.08756	54160.1125
1673.36092	52619.4125
1676.63211	51575.0125
1679.90115	50900.9125
1683.16801	50287.8125
1686.43272	49769.2125
1689.69527	49407.9125
1692.95567	49153.2125
1696.2139	48962.1125
1699.46999	48819.3125
1702.72392	48783.8125
1705.97571	48770.4125
1709.22535	48776.2125
1712.47284	48805.8125
1715.71819	48756.9125
1718.96139	48669.1125
1722.20246	48539.3125
1725.44139	48364.4125
1728.67818	48156.4125
1731.91284	47930.2125
1735.14537	47742.5125
1738.37576	47611.2125
1741.60403	47481.0125
1744.83017	47273.6125
1748.05418	47227.6125
1751.27607	47176.3125
1754.49584	47026.7125
1757.71349	47011.3125
1760.92903	46989.8125
1764.14244	46941.3125
1767.35375	46876.1125
1770.56294	46917.0125
1773.77002	46816.6125
1776.97499	46706.7125
1780.17785	46586.9125
1783.37861	46527.3125
1786.57727	46476.7125
1789.77382	46400.8125
1792.96828	46310.7125
1796.16064	46187.0125
1799.3509	46182.7125
1802.53907	46062.7125
1805.72514	45934.5125
1808.90913	45868.3125
1812.09102	45867.8125
1815.27083	45734.7125
1818.44856	45688.1125
1821.6242	45700.7125
1824.79776	45592.6125
1827.96924	45513.9125
1831.13864	45376.2125
1834.30597	45445.0125
1837.47122	45403.3125
1840.6344	45299.7125
1843.7955	45239.9125
1846.95454	45237.1125
1850.11151	45259.1125
1853.26642	45280.9125
1856.41926	45240.6125
1859.57004	45263.7125
1862.71876	45204.6125
1865.86542	45218.4125
1869.01003	45247.4125
1872.15258	45106.7125
1875.29308	45078.3125
1878.43152	45001.1125
1881.56792	44953.4125
1884.70227	44950.8125
1887.83457	44916.1125
1890.96482	44845.9125
1894.09304	44806.5125
1897.21921	44828.8125
1900.34335	44789.2125
1903.46544	44617.1125
1906.58551	44582.6125
1909.70353	44595.4125
1912.81953	44560.3125
1915.93349	44516.8125
1919.04543	44394.1125
1922.15534	44331.0125
1925.26322	44296.5125
1928.36908	44247.7125
1931.47292	44192.5125
1934.57473	44065.5125
1937.67453	43942.0125
1940.77232	43842.7125
1943.86808	43676.0125
1946.96184	43547.2125
1950.05358	43432.5125
1953.14331	43272.7125
1956.23103	43162.3125
1959.31675	43078.8125
1962.40046	42999.3125
1965.48217	42853.1125
1968.56188	42775.2125
1971.63959	42648.9125
1974.7153	42544.0125
1977.78901	42436.4125
1980.86073	42297.3125
1983.93046	42190.9125
1986.99819	42060.0125
1990.06394	42033.4125
1993.1277	41853.5125
1996.18947	41778.5125
1999.24925	41694.2125
2002.30706	41510.7125
2005.36288	41496.6125
2008.41672	41469.1125
2011.46859	41328.5125
2014.51848	41179.3125
2017.56639	41075.3125
2020.61233	40958.2125
2023.6563	40901.0125
2026.6983	40801.0125
2029.73833	40670.5125
2032.7764	40628.3125
2035.8125	40531.3125
2038.84664	40403.7125
2041.87881	40401.4125
2044.90903	40298.5125
2047.93729	40165.5125
2050.96359	40207.2125
2053.98794	40159.9125
2057.01034	40112.0125
2060.03078	40095.8125
2063.04927	40091.2125
2066.06582	40086.6125
2069.08042	40057.2125
2072.09307	40113.2125
2075.10378	40027.0125
2078.11255	40057.8125
2081.11938	40041.8125
2084.12426	39980.7125
2087.12722	39935.0125
2090.12824	39962.6125
2093.12732	40004.5125
2096.12447	39957.7125
2099.11969	39961.6125
2102.11299	40002.1125
2105.10435	40007.3125
2108.09379	40054.2125
2111.08131	40086.2125
2114.0669	40073.8125
2117.05057	40074.3125
2120.03233	40078.8125
2123.01216	40167.5125
2125.99008	40199.9125
2128.96609	40339.2125
2131.94018	40391.5125
2134.91236	40465.5125
2137.88263	40466.9125
2140.851	40529.2125
2143.81746	40582.7125
2146.78201	40512.6125
2149.74466	40554.6125
2152.7054	40535.7125
2155.66425	40513.1125
2158.6212	40427.2125
2161.57625	40408.8125
2164.52941	40475.0125
2167.48067	40534.7125
2170.43004	40484.3125
2173.37752	40432.4125
2176.32311	40390.1125
2179.26681	40448.2125
2182.20863	40396.4125
2185.14856	40395.7125
2188.08661	40402.4125
2191.02278	40362.4125
2193.95707	40383.7125
2196.88948	40345.4125
2199.82001	40338.6125
2202.74867	40259.2125
2205.67545	40297.8125
2208.60037	40237.6125
2211.52341	40176.4125
2214.44458	40167.2125
2217.36388	40102.9125
2220.28132	39995.0125
2223.1969	39883.7125
2226.11061	39840.7125
2229.02246	39746.5125
2231.93245	39718.4125
2234.84058	39647.3125
2237.74686	39607.5125
2240.65128	39567.5125
2243.55385	39565.1125
2246.45456	39471.6125
2249.35343	39369.0125
2252.25044	39388.0125
2255.14561	39291.8125
2258.03893	39362.5125
2260.93041	39296.9125
2263.82004	39216.0125
2266.70783	39186.3125
2269.59378	39100.5125
2272.4779	39050.0125
2275.36017	39037.9125
2278.24061	38974.4125
2281.11922	38891.5125
2283.996	38880.0125
2286.87094	38783.6125
2289.74405	38649.9125
2292.61534	38665.4125
2295.4848	38668.6125
2298.35243	38719.0125
2301.21824	38665.4125
2304.08223	38644.2125
2306.94439	38543.5125
2309.80474	38499.2125
2312.66327	38524.9125
2315.51999	38512.0125
2318.37489	38519.5125
2321.22797	38506.9125
2324.07925	38417.2125
2326.92871	38354.4125
2329.77637	38349.9125
2332.62222	38295.4125
2335.46626	38192.9125
2338.3085	38149.1125
2341.14893	38095.4125
2343.98756	38079.3125
2346.8244	38167.9125
2349.65943	38266.9125
2352.49267	38218.0125
2355.32411	38183.3125
2358.15376	38170.0125
2360.98161	38108.6125
2363.80768	38169.1125
2366.63195	38185.7125
2369.45444	38162.4125
2372.27514	38146.4125
2375.09405	38015.1125
2377.91118	37891.2125
2380.72652	37782.2125
2383.54009	37729.7125
2386.35187	37719.3125
2389.16188	37595.2125
2391.97011	37573.6125
2394.77657	37548.5125
2397.58125	37456.8125
2400.38416	37394.9125
2403.18529	37387.6125
2405.98466	37371.3125
2408.78226	37267.9125
2411.57809	37241.0125
2414.37216	37144.3125
2417.16446	37133.7125
2419.955	37034.0125
2422.74378	37101.3125
2425.5308	37015.9125
2428.31606	37059.4125
2431.09956	36985.0125
2433.88131	36959.3125
2436.6613	36976.2125
2439.43954	36937.2125
2442.21603	36931.2125
2444.99077	36880.8125
2447.76377	36887.5125
2450.53501	36890.8125
2453.30451	36824.8125
2456.07226	36790.7125
2458.83827	36867.7125
2461.60254	36850.5125
2464.36507	36821.3125
2467.12586	36731.5125
2469.88492	36754.1125
2472.64224	36704.7125
2475.39782	36711.8125
2478.15167	36794.4125
2480.90379	36705.1125
2483.65417	36783.1125
2486.40283	36838.8125
2489.14976	36851.8125
2491.89497	36845.6125
2494.63845	36782.9125
2497.3802	36817.8125
2500.12024	36869.4125
2502.85855	36769.3125
2505.59514	36711.2125
2508.33002	36567.8125
2511.06318	36534.7125
2513.79462	36464.0125
2516.52435	36394.2125
2519.25237	36455.0125
2521.97867	36403.8125
2524.70327	36353.3125
2527.42616	36321.8125
2530.14734	36270.9125
2532.86681	36200.7125
2535.58458	36211.2125
2538.30065	36196.5125
2541.01501	36265.6125
2543.72768	36229.7125
2546.43864	36156.9125
2549.14791	36049.1125
2551.85548	36057.6125
2554.56136	36020.0125
2557.26554	35939.0125
2559.96803	35886.2125
2562.66883	35773.3125
2565.36794	35748.2125
2568.06536	35762.1125
2570.7611	35674.3125
2573.45514	35572.0125
2576.14751	35562.8125
2578.83819	35534.5125
2581.52719	35519.0125
2584.21451	35488.0125
2586.90015	35376.8125
2589.58411	35324.5125
2592.2664	35346.3125
2594.94701	35242.4125
2597.62594	35291.8125
2600.30321	35245.8125
2602.9788	35164.7125
2605.65273	35090.5125
2608.32498	35105.7125
2610.99557	35085.8125
2613.66449	35054.4125
2616.33175	35006.8125
2618.99734	35137.3125
2621.66128	34977.2125
2624.32355	34909.9125
2626.98416	34847.7125
2629.64311	34732.0125
2632.30041	34710.4125
2634.95605	34757.0125
2637.61004	34690.2125
2640.26238	34623.9125
2642.91306	34646.5125
2645.56209	34647.3125
2648.20948	34606.1125
2650.85521	34559.1125
2653.4993	34614.1125
2656.14175	34556.9125
2658.78255	34658.2125
2661.42171	34655.9125
2664.05923	34704.4125
2666.6951	34719.1125
2669.32934	34742.4125
2671.96194	34700.9125
2674.59291	34667.3125
2677.22224	34624.3125
2679.84993	34678.4125
2682.476	34706.3125
2685.10043	34705.9125
2687.72324	34660.2125
2690.34441	34610.7125
2692.96396	34642.7125
2695.58188	34643.4125
2698.19818	34622.0125
2700.81285	34653.2125
2703.4259	34576.7125
2706.03733	34587.8125
2708.64714	34616.7125
2711.25533	34670.7125
2713.86191	34619.6125
2716.46687	34714.1125
2719.07021	34693.9125
2721.67194	34752.2125
2724.27206	34746.4125
2726.87057	34787.2125
2729.46747	34716.5125
2732.06276	34778.0125
2734.65644	34750.4125
2737.24852	34762.2125
2739.83899	34652.9125
2742.42786	34645.3125
2745.01513	34475.2125
2747.60079	34551.2125
2750.18486	34512.0125
2752.76733	34561.3125
2755.3482	34454.4125
2757.92747	34439.2125
2760.50515	34448.1125
2763.08123	34394.5125
2765.65573	34343.1125
2768.22863	34357.1125
2770.79994	34320.3125
2773.36967	34316.0125
2775.9378	34234.6125
2778.50435	34157.7125
2781.06932	34091.8125
2783.6327	34058.0125
2786.1945	34015.2125
2788.75471	34044.4125
2791.31335	33966.5125
2793.87041	33955.2125
2796.42589	33893.7125
2798.97979	33859.0125
2801.53212	33824.9125
2804.08288	33835.2125
2806.63206	33750.4125
2809.17967	33673.9125
2811.72571	33563.3125
2814.27018	33557.9125
2816.81308	33445.7125
2819.35442	33379.7125
2821.89419	33333.2125
2824.43239	33359.1125
2826.96904	33372.6125
2829.50412	33333.9125
2832.03763	33232.3125
2834.56959	33243.8125
2837.1	33179.4125
2839.62884	33119.6125
2842.15613	33038.2125
2844.68186	33052.7125
2847.20604	32973.7125
2849.72867	33058.4125
2852.24974	33027.9125
2854.76927	33030.1125
2857.28724	32967.6125
2859.80367	32933.0125
2862.31855	32867.7125
2864.83189	32828.0125
2867.34368	32755.8125
2869.85393	32730.0125
2872.36264	32650.0125
2874.8698	32671.5125
2877.37543	32692.2125
2879.87952	32604.2125
2882.38207	32624.0125
2884.88308	32586.5125
2887.38256	32714.0125
2889.88051	32684.0125
2892.37692	32659.9125
2894.8718	32600.9125
2897.36515	32621.2125
2899.85698	32626.5125
2902.34727	32748.9125
2904.83604	32729.7125
2907.32328	32826.2125
2909.809	32834.9125
2912.29319	32870.1125
2914.77587	32858.2125
2917.25702	32873.1125
2919.73665	32859.3125
2922.21476	32896.3125
2924.69136	32773.3125
2927.16644	32764.8125
2929.64	32680.2125
2932.11205	32595.1125
2934.58258	32528.2125
2937.05161	32522.5125
2939.51912	32504.7125
2941.98513	32488.3125
2944.44962	32428.2125
2946.91261	32387.7125
2949.37409	32489.9125
2951.83407	32476.7125
2954.29254	32513.2125
2956.74951	32469.7125
2959.20498	32496.5125
2961.65895	32455.8125
2964.11142	32456.7125
2966.56239	32443.8125
2969.01186	32431.3125
2971.45984	32348.4125
2973.90632	32390.1125
2976.35131	32336.3125
2978.7948	32349.6125
2981.23681	32269.3125
2983.67732	32262.7125
2986.11635	32208.4125
2988.55388	32127.2125
2990.98993	32019.9125
2993.4245	31994.3125
2995.85758	31919.0125
2998.28917	31810.0125
3000.71928	31714.7125
3003.14791	31614.0125
3005.57506	31585.5125
3008.00073	31418.4125
3010.42493	31488.2125
3012.84764	31383.5125
3015.26888	31436.0125
3017.68865	31330.5125
3020.10694	31319.1125
3022.52376	31246.4125
3024.9391	31220.6125
3027.35298	31240.9125
3029.76539	31205.3125
3032.17632	31118.6125
3034.5858	31130.7125
3036.9938	31087.6125
3039.40034	31016.4125
3041.80542	30980.5125
3044.20903	30933.3125
3046.61118	30877.8125
3049.01187	30810.6125
3051.4111	30818.0125
3053.80888	30763.5125
3056.20519	30745.2125
3058.60005	30684.4125
3060.99345	30615.1125
3063.3854	30566.3125
3065.7759	30458.9125
3068.16494	30381.7125
3070.55254	30277.2125
3072.93868	30272.3125
3075.32338	30124.6125
3077.70662	30066.4125
3080.08842	29976.3125
3082.46878	30014.6125
3084.84769	30043.5125
3087.22515	30060.4125
3089.60118	30017.7125
3091.97576	29962.7125
3094.3489	29899.6125
3096.72061	29920.2125
3099.09087	29953.4125
3101.4597	29879.3125
3103.82709	29927.2125
3106.19305	29902.1125
3108.55757	29903.3125
3110.92066	29849.2125
3113.28232	29859.5125
3115.64255	29799.9125
3118.00134	29696.5125
3120.35871	29552.1125
3122.71466	29504.5125
3125.06917	29471.9125
3127.42226	29372.1125
3129.77393	29447.3125
3132.12417	29340.4125
3134.47299	29346.0125
3136.82039	29287.3125
3139.16636	29199.3125
3141.51092	29203.3125
3143.85406	29266.0125
3146.19579	29295.8125
3148.53609	29303.2125
3150.87499	29373.8125
3153.21246	29296.9125
3155.54853	29367.9125
3157.88318	29305.7125
3160.21642	29276.4125
3162.54826	29295.1125
3164.87868	29344.3125
3167.2077	29348.5125
3169.5353	29342.3125
3171.86151	29273.7125
3174.18631	29222.5125
3176.5097	29181.2125
3178.83169	29155.2125
3181.15228	29136.2125
3183.47147	29081.2125
3185.78926	29027.5125
3188.10565	28965.9125
3190.42065	28941.9125
3192.73424	28901.1125
3195.04645	28906.9125
3197.35725	28902.9125
3199.66667	28855.5125
3201.97469	28827.7125
3204.28132	28860.2125
3206.58656	28853.5125
3208.8904	28856.9125
3211.19287	28864.3125
3213.49394	28838.2125
3215.79363	28815.9125
3218.09193	28833.4125
3220.38884	28910.4125
3222.68438	28902.7125
3224.97853	28872.7125
3227.2713	28847.3125
3229.56269	28859.6125
3231.8527	28792.2125
3234.14133	28792.7125
3236.42858	28728.2125
3238.71446	28732.7125
3240.99896	28621.2125
3243.28209	28593.2125
3245.56384	28501.9125
3247.84423	28405.2125
3250.12324	28449.6125
3252.40088	28428.7125
3254.67715	28436.0125
3256.95205	28412.2125
3259.22558	28390.7125
3261.49775	28371.2125
3263.76855	28370.1125
3266.03799	28343.9125
3268.30606	28309.6125
3270.57277	28263.8125
3272.83812	28177.6125
3275.10211	28111.7125
3277.36474	28057.7125
3279.62601	28074.1125
3281.88593	28000.9125
3284.14448	28059.5125
3286.40168	28058.3125
3288.65753	27991.4125
3290.91202	28060.3125
3293.16516	27995.1125
3295.41695	27967.9125
3297.66738	27810.6125
3299.91647	27676.4125
3302.16421	27526.9125
3304.4106	27410.9125
3306.65564	27244.9125
3308.89933	27043.4125
3311.14169	26901.4125
3313.38269	26682.0125
3315.62236	26561.4125
3317.86068	26438.5125
3320.09766	26275.6125
3322.3333	26118.4125
3324.5676	25957.5125
3326.80056	25599.8125
3329.03219	25449.7125
3331.26248	6.2125
3333.49143	-0.6875
3335.71905	-0.0875
