Data from AgNPs_UA_20uM_CRN_0uM_R6G_10uM_Q_RamanShift__13__12-51-32-017.txt Node

Date: Mon Jul 18 12:51:32 BST 2022
User: TCL
Spectrometer: QEP01345
Trigger mode: 4
Integration Time (sec): 7.000000E0
Scans to average: 10
Electric dark correction enabled: true
Nonlinearity correction enabled: false
Boxcar width: 0
XAxis mode: Raman Shifts
Number of Pixels in Spectrum: 1044
>>>>>Begin Spectral Data<<<<<
46.04893	-2.2125
50.45542	0.0875
54.85868	-0.4125
59.25871	-1.3125
63.6555	149.2875
68.04907	159.5875
72.43941	165.9875
76.82654	168.4875
81.21044	176.0875
85.59113	176.8875
89.96862	185.8875
94.34289	189.7875
98.71396	197.1875
103.08183	212.6875
107.4465	208.9875
111.80798	220.0875
116.16626	223.7875
120.52136	239.1875
124.87327	243.2875
129.222	260.5875
133.56755	273.4875
137.90993	300.1875
142.24913	331.1875
146.58517	379.6875
150.91804	440.9875
155.24774	523.3875
159.57429	652.1875
163.89768	839.0875
168.21792	1122.3875
172.53501	1534.9875
176.84895	2138.8875
181.15975	3030.1875
185.46741	4257.3875
189.77193	5905.3875
194.07331	7903.5875
198.37157	10171.3875
202.6667	12577.5875
206.9587	14922.8875
211.24758	17236.9875
215.53334	19492.6875
219.81599	21909.2875
224.09553	24547.7875
228.37195	27462.2875
232.64527	30677.8875
236.91549	34121.7875
241.18261	37592.9875
245.44663	40952.6875
249.70755	44068.0875
253.96539	46823.0875
258.22014	49058.5875
262.4718	50840.5875
266.72039	51972.8875
270.96589	52548.9875
275.20832	52613.4875
279.44768	52421.6875
283.68397	51907.4875
287.91719	51468.9875
292.14735	51144.8875
296.37445	50967.7875
300.59849	50959.8875
304.81948	50999.3875
309.03742	51014.9875
313.25231	50830.6875
317.46415	50321.6875
321.67296	49659.3875
325.87872	49126.1875
330.08145	49058.2875
334.28114	49275.6875
338.47781	49718.9875
342.67145	50302.2875
346.86207	50855.2875
351.04966	51598.7875
355.23424	52437.7875
359.4158	53166.5875
363.59435	53793.5875
367.76989	54292.8875
371.94243	54642.5875
376.11196	54924.8875
380.27849	55238.2875
384.44203	55594.3875
388.60257	56012.3875
392.76012	56542.0875
396.91468	57064.1875
401.06626	57746.1875
405.21485	58213.3875
409.36047	58184.5875
413.50311	57818.2875
417.64277	57682.2875
421.77947	57716.4875
425.9132	57908.4875
430.04396	58239.5875
434.17176	58642.2875
438.2966	59121.4875
442.41849	59580.1875
446.53742	60352.0875
450.6534	61327.4875
454.76644	61966.5875
458.87653	62281.0875
462.98368	62528.3875
467.08789	62596.7875
471.18916	62421.3875
475.2875	62239.3875
479.38291	62054.2875
483.4754	61814.9875
487.56496	61632.0875
491.6516	61532.9875
495.73531	61446.3875
499.81612	61370.1875
503.89401	61751.3875
507.96899	61955.4875
512.04106	62094.0875
516.11023	62224.5875
520.1765	62121.8875
524.23987	61939.6875
528.30034	61868.5875
532.35792	61783.6875
536.41261	61665.9875
540.46441	61531.1875
544.51333	61712.3875
548.55936	62202.0875
552.60252	62752.3875
556.64279	63445.9875
560.6802	63860.7875
564.71473	64227.7875
568.7464	64603.5875
572.7752	65329.3875
576.80114	66062.8875
580.82422	66727.1875
584.84444	67180.7875
588.86181	67338.7875
592.87633	67511.9875
596.888	67718.8875
600.89682	68180.7875
604.9028	69900.9875
608.90594	73542.0875
612.90624	76500.3875
616.90371	72977.4875
620.89834	66977.7875
624.89015	64761.2875
628.87913	64747.9875
632.86528	65234.7875
636.84862	65456.3875
640.82913	65212.9875
644.80683	64438.2875
648.78172	63996.0875
652.75379	64009.7875
656.72306	64563.6875
660.68952	65226.7875
664.65319	65192.9875
668.61405	64958.7875
672.57211	65065.6875
676.52738	65164.0875
680.47986	65113.0875
684.42955	64987.9875
688.37646	64986.6875
692.32058	65257.2875
696.26192	65692.0875
700.20048	66143.6875
704.13626	66540.0875
708.06928	66581.5875
711.99952	66420.4875
715.927	66284.4875
719.85171	66226.3875
723.77365	66105.9875
727.69284	65967.5875
731.60928	65692.3875
735.52295	65600.9875
739.43388	65727.4875
743.34206	65795.9875
747.24749	65975.1875
751.15017	66155.4875
755.05012	66622.1875
758.94733	67642.5875
762.8418	69766.7875
766.73354	72586.6875
770.62254	74892.0875
774.50882	75164.1875
778.39237	73522.6875
782.27321	71154.5875
786.15132	69097.8875
790.02671	67647.9875
793.89938	66731.9875
797.76935	66391.7875
801.6366	66230.3875
805.50115	66170.9875
809.36299	66074.9875
813.22213	65941.2875
817.07857	65973.3875
820.93231	66029.5875
824.78336	66230.7875
828.63172	66277.2875
832.47738	66288.7875
836.32036	66265.2875
840.16066	66285.3875
843.99827	66282.8875
847.8332	66384.4875
851.66546	66543.4875
855.49504	66682.6875
859.32195	66701.6875
863.1462	66804.3875
866.96777	66935.1875
870.78668	66993.0875
874.60293	67064.7875
878.41652	67157.3875
882.22745	67333.0875
886.03573	67435.2875
889.84136	67518.5875
893.64433	67434.1875
897.44466	67365.2875
901.24235	67225.2875
905.0374	67201.5875
908.8298	67291.7875
912.61957	67273.8875
916.40671	67444.2875
920.19121	67631.1875
923.97308	67796.3875
927.75233	67887.0875
931.52895	67833.6875
935.30295	67476.7875
939.07433	67058.9875
942.84309	66583.2875
946.60924	66367.1875
950.37278	66294.1875
954.13371	66199.3875
957.89203	66264.2875
961.64774	66195.2875
965.40086	66099.3875
969.15137	66000.5875
972.89929	65926.3875
976.64461	65864.8875
980.38733	65860.2875
984.12747	65953.8875
987.86502	66219.3875
991.59999	66378.3875
995.33237	66486.9875
999.06217	66878.0875
1002.78939	67464.5875
1006.51404	67903.1875
1010.23611	68265.3875
1013.95561	68618.4875
1017.67255	68695.1875
1021.38692	68454.3875
1025.09872	68199.3875
1028.80796	67854.8875
1032.51465	67762.0875
1036.21877	67884.7875
1039.92035	68054.4875
1043.61937	68220.4875
1047.31584	68292.8875
1051.00976	68474.0875
1054.70114	68669.7875
1058.38998	68922.1875
1062.07627	69344.0875
1065.76003	69857.8875
1069.44126	70309.9875
1073.11995	71039.2875
1076.79611	71633.5875
1080.46974	71728.4875
1084.14085	71930.9875
1087.80943	72258.9875
1091.47549	72457.0875
1095.13903	72427.5875
1098.80005	72045.8875
1102.45857	71530.3875
1106.11456	71022.4875
1109.76805	70631.6875
1113.41903	70526.1875
1117.06751	70694.2875
1120.71348	71086.4875
1124.35696	71402.1875
1127.99793	71753.4875
1131.63641	71736.6875
1135.2724	71421.4875
1138.90589	71116.6875
1142.5369	71052.7875
1146.16542	70990.6875
1149.79145	71069.9875
1153.415	71024.8875
1157.03607	71255.7875
1160.65467	71701.7875
1164.27079	72751.7875
1167.88443	74041.3875
1171.49561	75921.6875
1175.10432	78189.9875
1178.71056	80975.1875
1182.31434	83377.1875
1185.91565	84793.1875
1189.51451	85279.9875
1193.11091	84914.0875
1196.70485	84006.7875
1200.29634	82546.3875
1203.88538	81046.3875
1207.47197	79499.2875
1211.05612	78162.7875
1214.63782	77132.2875
1218.21708	76397.9875
1221.79391	75574.6875
1225.36829	75075.0875
1228.94024	74817.8875
1232.50976	74827.2875
1236.07685	74759.7875
1239.6415	74912.3875
1243.20374	74962.6875
1246.76355	75231.6875
1250.32093	75728.7875
1253.8759	76203.7875
1257.42845	77052.9875
1260.97859	78102.5875
1264.52631	79040.0875
1268.07163	79847.8875
1271.61453	80561.6875
1275.15503	81231.4875
1278.69312	81891.1875
1282.22882	82451.4875
1285.76211	83206.4875
1289.29301	84164.0875
1292.82151	85122.2875
1296.34761	86330.3875
1299.87133	87983.5875
1303.39266	90018.6875
1306.9116	92266.1875
1310.42815	94383.1875
1313.94233	95553.6875
1317.45412	95442.9875
1320.96354	94613.9875
1324.47058	93942.1875
1327.97525	93174.0875
1331.47754	92793.7875
1334.97747	92929.6875
1338.47502	93506.3875
1341.97022	94699.1875
1345.46305	96258.1875
1348.95352	97655.8875
1352.44163	98339.6875
1355.92738	98539.8875
1359.41078	99337.2875
1362.89183	99978.9875
1366.37053	97958.7875
1369.84688	93098.7875
1373.32088	88246.0875
1376.79254	84709.0875
1380.26186	82691.5875
1383.72883	81580.2875
1387.19347	80766.8875
1390.65578	79775.4875
1394.11575	79065.6875
1397.57339	78343.8875
1401.0287	77926.6875
1404.48168	77692.2875
1407.93234	77355.3875
1411.38068	77092.8875
1414.82669	76594.0875
1418.27039	75596.6875
1421.71177	74866.2875
1425.15083	74146.3875
1428.58758	73802.4875
1432.02203	73802.9875
1435.45416	74193.7875
1438.88399	74596.1875
1442.31151	74929.9875
1445.73673	75427.7875
1449.15965	75728.7875
1452.58027	76013.9875
1455.9986	76174.2875
1459.41463	76508.9875
1462.82837	77099.4875
1466.23982	77954.4875
1469.64898	78729.7875
1473.05586	79448.9875
1476.46045	79823.9875
1479.86276	80128.5875
1483.26279	80283.1875
1486.66054	80771.9875
1490.05602	81512.0875
1493.44922	82694.7875
1496.84016	84523.3875
1500.22882	87184.6875
1503.61521	90417.7875
1506.99934	93342.3875
1510.38121	94972.4875
1513.76081	94645.2875
1517.13816	92211.7875
1520.51324	89253.9875
1523.88607	86816.5875
1527.25665	85411.4875
1530.62498	84538.3875
1533.99105	83940.4875
1537.35488	83172.7875
1540.71647	82508.5875
1544.07581	81818.9875
1547.4329	81040.4875
1550.78776	80294.1875
1554.14038	79974.3875
1557.49077	79774.4875
1560.83892	79869.8875
1564.18484	80273.5875
1567.52853	80689.0875
1570.86999	81014.6875
1574.20922	81327.8875
1577.54624	81331.8875
1580.88103	80566.7875
1584.2136	79814.4875
1587.54395	79418.3875
1590.87208	79906.5875
1594.19801	81164.0875
1597.52172	82607.9875
1600.84321	83039.8875
1604.16251	82165.3875
1607.47959	80672.2875
1610.79447	78618.7875
1614.10715	76266.4875
1617.41763	74207.9875
1620.7259	72471.9875
1624.03199	71374.0875
1627.33587	71006.6875
1630.63757	71465.1875
1633.93707	72684.9875
1637.23439	74861.9875
1640.52951	78336.6875
1643.82246	82377.4875
1647.11321	85936.1875
1650.40179	87382.5875
1653.68819	85225.6875
1656.97241	80518.4875
1660.25446	75509.2875
1663.53433	71550.4875
1666.81203	68852.5875
1670.08756	67088.4875
1673.36092	65950.4875
1676.63211	65274.3875
1679.90115	64618.5875
1683.16801	64135.1875
1686.43272	63696.4875
1689.69527	63402.0875
1692.95567	63115.5875
1696.2139	62987.5875
1699.46999	62794.5875
1702.72392	62727.7875
1705.97571	62717.9875
1709.22535	62737.4875
1712.47284	62701.4875
1715.71819	62658.6875
1718.96139	62677.6875
1722.20246	62460.4875
1725.44139	62342.6875
1728.67818	62220.1875
1731.91284	62032.6875
1735.14537	61851.1875
1738.37576	61695.1875
1741.60403	61605.4875
1744.83017	61378.9875
1748.05418	61334.4875
1751.27607	61219.1875
1754.49584	61194.6875
1757.71349	61168.2875
1760.92903	61079.3875
1764.14244	61055.5875
1767.35375	61005.6875
1770.56294	60939.1875
1773.77002	60947.5875
1776.97499	60892.0875
1780.17785	60786.8875
1783.37861	60724.4875
1786.57727	60593.2875
1789.77382	60464.0875
1792.96828	60416.0875
1796.16064	60304.6875
1799.3509	60196.8875
1802.53907	60128.4875
1805.72514	59943.2875
1808.90913	59937.0875
1812.09102	59854.5875
1815.27083	59699.3875
1818.44856	59704.3875
1821.6242	59593.1875
1824.79776	59576.1875
1827.96924	59454.4875
1831.13864	59361.3875
1834.30597	59386.5875
1837.47122	59308.6875
1840.6344	59219.4875
1843.7955	59146.0875
1846.95454	59073.3875
1850.11151	59119.3875
1853.26642	59157.1875
1856.41926	59159.4875
1859.57004	59093.2875
1862.71876	59021.1875
1865.86542	59100.0875
1869.01003	59038.9875
1872.15258	58864.1875
1875.29308	58813.4875
1878.43152	58692.6875
1881.56792	58629.6875
1884.70227	58540.6875
1887.83457	58453.5875
1890.96482	58365.9875
1894.09304	58281.4875
1897.21921	58349.5875
1900.34335	58233.2875
1903.46544	58034.1875
1906.58551	57947.1875
1909.70353	57929.4875
1912.81953	57884.3875
1915.93349	57802.4875
1919.04543	57638.6875
1922.15534	57570.2875
1925.26322	57509.9875
1928.36908	57515.4875
1931.47292	57343.8875
1934.57473	57201.4875
1937.67453	57067.7875
1940.77232	56936.1875
1943.86808	56702.5875
1946.96184	56557.7875
1950.05358	56379.9875
1953.14331	56171.9875
1956.23103	55986.7875
1959.31675	55840.2875
1962.40046	55682.3875
1965.48217	55558.0875
1968.56188	55390.4875
1971.63959	55264.8875
1974.7153	55014.4875
1977.78901	54968.3875
1980.86073	54751.8875
1983.93046	54584.8875
1986.99819	54451.4875
1990.06394	54303.2875
1993.1277	54119.6875
1996.18947	53945.3875
1999.24925	53879.7875
2002.30706	53793.7875
2005.36288	53611.4875
2008.41672	53553.1875
2011.46859	53412.6875
2014.51848	53203.6875
2017.56639	53088.2875
2020.61233	53023.7875
2023.6563	52870.0875
2026.6983	52667.7875
2029.73833	52473.6875
2032.7764	52393.1875
2035.8125	52227.5875
2038.84664	52164.0875
2041.87881	52053.0875
2044.90903	51856.1875
2047.93729	51715.4875
2050.96359	51759.9875
2053.98794	51641.8875
2057.01034	51623.9875
2060.03078	51608.3875
2063.04927	51574.5875
2066.06582	51568.0875
2069.08042	51520.0875
2072.09307	51515.3875
2075.10378	51519.5875
2078.11255	51506.9875
2081.11938	51448.3875
2084.12426	51331.0875
2087.12722	51333.3875
2090.12824	51345.9875
2093.12732	51371.3875
2096.12447	51315.6875
2099.11969	51311.2875
2102.11299	51393.3875
2105.10435	51370.5875
2108.09379	51316.6875
2111.08131	51371.1875
2114.0669	51347.4875
2117.05057	51340.1875
2120.03233	51322.1875
2123.01216	51369.1875
2125.99008	51430.3875
2128.96609	51552.1875
2131.94018	51727.0875
2134.91236	51777.6875
2137.88263	51775.9875
2140.851	51836.8875
2143.81746	51951.9875
2146.78201	51847.9875
2149.74466	51847.2875
2152.7054	51851.6875
2155.66425	51797.6875
2158.6212	51717.8875
2161.57625	51654.8875
2164.52941	51726.8875
2167.48067	51770.0875
2170.43004	51761.6875
2173.37752	51639.3875
2176.32311	51605.5875
2179.26681	51552.2875
2182.20863	51533.6875
2185.14856	51516.3875
2188.08661	51566.8875
2191.02278	51534.3875
2193.95707	51525.1875
2196.88948	51438.7875
2199.82001	51397.7875
2202.74867	51319.5875
2205.67545	51197.3875
2208.60037	51129.5875
2211.52341	51069.9875
2214.44458	51074.1875
2217.36388	50948.2875
2220.28132	50827.0875
2223.1969	50581.7875
2226.11061	50534.5875
2229.02246	50455.6875
2231.93245	50323.5875
2234.84058	50300.9875
2237.74686	50248.0875
2240.65128	50152.5875
2243.55385	50150.3875
2246.45456	50091.1875
2249.35343	49888.1875
2252.25044	49869.2875
2255.14561	49756.8875
2258.03893	49731.9875
2260.93041	49573.5875
2263.82004	49504.3875
2266.70783	49455.0875
2269.59378	49358.2875
2272.4779	49305.5875
2275.36017	49269.9875
2278.24061	49077.6875
2281.11922	49022.7875
2283.996	48914.9875
2286.87094	48845.4875
2289.74405	48704.1875
2292.61534	48709.1875
2295.4848	48707.4875
2298.35243	48725.3875
2301.21824	48630.7875
2304.08223	48650.3875
2306.94439	48461.6875
2309.80474	48388.0875
2312.66327	48344.1875
2315.51999	48350.0875
2318.37489	48373.4875
2321.22797	48256.9875
2324.07925	48130.7875
2326.92871	48066.5875
2329.77637	48021.5875
2332.62222	47902.5875
2335.46626	47771.2875
2338.3085	47679.3875
2341.14893	47547.8875
2343.98756	47574.1875
2346.8244	47617.5875
2349.65943	47681.7875
2352.49267	47623.5875
2355.32411	47520.6875
2358.15376	47469.8875
2360.98161	47446.9875
2363.80768	47403.9875
2366.63195	47373.5875
2369.45444	47351.5875
2372.27514	47241.9875
2375.09405	47171.9875
2377.91118	47071.7875
2380.72652	46939.5875
2383.54009	46828.9875
2386.35187	46792.5875
2389.16188	46736.0875
2391.97011	46607.8875
2394.77657	46516.4875
2397.58125	46434.7875
2400.38416	46350.1875
2403.18529	46321.2875
2405.98466	46322.2875
2408.78226	46190.1875
2411.57809	46076.0875
2414.37216	45975.3875
2417.16446	45936.9875
2419.955	45852.3875
2422.74378	45932.2875
2425.5308	45775.6875
2428.31606	45780.1875
2431.09956	45696.0875
2433.88131	45641.7875
2436.6613	45597.8875
2439.43954	45558.8875
2442.21603	45551.3875
2444.99077	45439.5875
2447.76377	45385.9875
2450.53501	45321.6875
2453.30451	45381.4875
2456.07226	45298.1875
2458.83827	45236.1875
2461.60254	45235.4875
2464.36507	45154.4875
2467.12586	45041.9875
2469.88492	44999.0875
2472.64224	44970.3875
2475.39782	44914.1875
2478.15167	45000.3875
2480.90379	44891.2875
2483.65417	44929.5875
2486.40283	44912.0875
2489.14976	44892.0875
2491.89497	44822.4875
2494.63845	44759.5875
2497.3802	44747.6875
2500.12024	44726.4875
2502.85855	44719.6875
2505.59514	44597.0875
2508.33002	44463.2875
2511.06318	44426.1875
2513.79462	44297.7875
2516.52435	44217.0875
2519.25237	44259.2875
2521.97867	44264.3875
2524.70327	44229.0875
2527.42616	44120.6875
2530.14734	44093.9875
2532.86681	43938.8875
2535.58458	43938.9875
2538.30065	43908.0875
2541.01501	43979.2875
2543.72768	43862.7875
2546.43864	43718.1875
2549.14791	43592.3875
2551.85548	43616.2875
2554.56136	43555.0875
2557.26554	43383.4875
2559.96803	43258.8875
2562.66883	43129.5875
2565.36794	43089.6875
2568.06536	43058.8875
2570.7611	42917.8875
2573.45514	42788.8875
2576.14751	42802.1875
2578.83819	42620.6875
2581.52719	42668.3875
2584.21451	42547.1875
2586.90015	42454.6875
2589.58411	42376.9875
2592.2664	42347.4875
2594.94701	42279.3875
2597.62594	42292.6875
2600.30321	42123.7875
2602.9788	42084.3875
2605.65273	41963.2875
2608.32498	41867.4875
2610.99557	41803.4875
2613.66449	41826.4875
2616.33175	41771.2875
2618.99734	41697.8875
2621.66128	41659.8875
2624.32355	41573.0875
2626.98416	41454.2875
2629.64311	41360.2875
2632.30041	41276.0875
2634.95605	41286.1875
2637.61004	41178.3875
2640.26238	41162.1875
2642.91306	41151.3875
2645.56209	41072.6875
2648.20948	41079.6875
2650.85521	41000.2875
2653.4993	40994.1875
2656.14175	40995.2875
2658.78255	41010.1875
2661.42171	41012.9875
2664.05923	41062.2875
2666.6951	41035.8875
2669.32934	41010.9875
2671.96194	40957.3875
2674.59291	40898.4875
2677.22224	40810.0875
2679.84993	40883.1875
2682.476	40855.1875
2685.10043	40893.8875
2687.72324	40790.6875
2690.34441	40756.6875
2692.96396	40746.1875
2695.58188	40785.7875
2698.19818	40743.4875
2700.81285	40737.6875
2703.4259	40639.8875
2706.03733	40630.3875
2708.64714	40688.4875
2711.25533	40744.2875
2713.86191	40660.3875
2716.46687	40697.5875
2719.07021	40683.9875
2721.67194	40723.8875
2724.27206	40695.4875
2726.87057	40681.5875
2729.46747	40626.1875
2732.06276	40701.5875
2734.65644	40679.7875
2737.24852	40676.1875
2739.83899	40495.1875
2742.42786	40504.3875
2745.01513	40355.9875
2747.60079	40367.5875
2750.18486	40323.5875
2752.76733	40361.6875
2755.3482	40247.6875
2757.92747	40170.8875
2760.50515	40130.5875
2763.08123	40068.2875
2765.65573	39985.3875
2768.22863	39992.8875
2770.79994	39913.4875
2773.36967	39896.6875
2775.9378	39720.4875
2778.50435	39642.7875
2781.06932	39573.6875
2783.6327	39529.1875
2786.1945	39468.1875
2788.75471	39433.2875
2791.31335	39362.4875
2793.87041	39271.8875
2796.42589	39179.4875
2798.97979	39200.4875
2801.53212	39101.1875
2804.08288	39085.5875
2806.63206	38963.1875
2809.17967	38846.1875
2811.72571	38715.8875
2814.27018	38615.6875
2816.81308	38481.8875
2819.35442	38437.6875
2821.89419	38305.1875
2824.43239	38339.7875
2826.96904	38315.7875
2829.50412	38268.7875
2832.03763	38173.4875
2834.56959	38165.8875
2837.1	38039.0875
2839.62884	38005.3875
2842.15613	37887.4875
2844.68186	37897.2875
2847.20604	37752.2875
2849.72867	37801.2875
2852.24974	37777.8875
2854.76927	37725.7875
2857.28724	37664.2875
2859.80367	37597.4875
2862.31855	37525.6875
2864.83189	37476.1875
2867.34368	37342.8875
2869.85393	37302.9875
2872.36264	37165.1875
2874.8698	37164.7875
2877.37543	37166.5875
2879.87952	37087.8875
2882.38207	37044.7875
2884.88308	37066.1875
2887.38256	37126.3875
2889.88051	37129.0875
2892.37692	37048.2875
2894.8718	37026.7875
2897.36515	37037.6875
2899.85698	37038.2875
2902.34727	37035.2875
2904.83604	37078.9875
2907.32328	37154.6875
2909.809	37129.1875
2912.29319	37178.7875
2914.77587	37153.0875
2917.25702	37090.6875
2919.73665	37108.0875
2922.21476	37106.0875
2924.69136	37009.8875
2927.16644	36944.8875
2929.64	36845.7875
2932.11205	36793.4875
2934.58258	36650.2875
2937.05161	36693.8875
2939.51912	36697.8875
2941.98513	36649.0875
2944.44962	36560.9875
2946.91261	36511.0875
2949.37409	36689.5875
2951.83407	36622.6875
2954.29254	36638.7875
2956.74951	36585.2875
2959.20498	36607.6875
2961.65895	36537.7875
2964.11142	36607.2875
2966.56239	36537.5875
2969.01186	36521.6875
2971.45984	36481.5875
2973.90632	36471.9875
2976.35131	36413.4875
2978.7948	36413.5875
2981.23681	36285.0875
2983.67732	36245.4875
2986.11635	36257.8875
2988.55388	36118.4875
2990.98993	36039.5875
2993.4245	35901.5875
2995.85758	35903.9875
2998.28917	35726.0875
3000.71928	35664.4875
3003.14791	35535.1875
3005.57506	35439.9875
3008.00073	35285.5875
3010.42493	35262.7875
3012.84764	35209.0875
3015.26888	35225.6875
3017.68865	35151.9875
3020.10694	35083.2875
3022.52376	35006.8875
3024.9391	35019.8875
3027.35298	34999.1875
3029.76539	34986.7875
3032.17632	34894.9875
3034.5858	34870.8875
3036.9938	34767.8875
3039.40034	34718.6875
3041.80542	34711.8875
3044.20903	34623.4875
3046.61118	34608.2875
3049.01187	34500.4875
3051.4111	34485.1875
3053.80888	34414.0875
3056.20519	34380.1875
3058.60005	34328.9875
3060.99345	34269.6875
3063.3854	34112.5875
3065.7759	34024.5875
3068.16494	33915.9875
3070.55254	33858.9875
3072.93868	33775.0875
3075.32338	33671.3875
3077.70662	33601.1875
3080.08842	33470.7875
3082.46878	33477.4875
3084.84769	33502.7875
3087.22515	33519.7875
3089.60118	33462.9875
3091.97576	33372.7875
3094.3489	33388.0875
3096.72061	33373.5875
3099.09087	33355.9875
3101.4597	33283.2875
3103.82709	33298.8875
3106.19305	33286.0875
3108.55757	33293.1875
3110.92066	33239.9875
3113.28232	33255.6875
3115.64255	33150.8875
3118.00134	32998.8875
3120.35871	32979.9875
3122.71466	32882.4875
3125.06917	32781.6875
3127.42226	32695.5875
3129.77393	32690.7875
3132.12417	32638.5875
3134.47299	32563.4875
3136.82039	32528.2875
3139.16636	32430.8875
3141.51092	32477.0875
3143.85406	32464.2875
3146.19579	32429.9875
3148.53609	32472.4875
3150.87499	32508.0875
3153.21246	32467.8875
3155.54853	32545.3875
3157.88318	32420.5875
3160.21642	32460.3875
3162.54826	32449.0875
3164.87868	32486.0875
3167.2077	32500.6875
3169.5353	32479.9875
3171.86151	32421.9875
3174.18631	32329.8875
3176.5097	32276.5875
3178.83169	32241.4875
3181.15228	32224.2875
3183.47147	32101.9875
3185.78926	32057.9875
3188.10565	31982.4875
3190.42065	31937.8875
3192.73424	31891.9875
3195.04645	31851.2875
3197.35725	31876.6875
3199.66667	31786.4875
3201.97469	31813.3875
3204.28132	31738.0875
3206.58656	31781.9875
3208.8904	31825.3875
3211.19287	31804.6875
3213.49394	31713.5875
3215.79363	31742.0875
3218.09193	31771.2875
3220.38884	31769.4875
3222.68438	31775.9875
3224.97853	31722.4875
3227.2713	31727.1875
3229.56269	31658.1875
3231.8527	31618.2875
3234.14133	31591.7875
3236.42858	31523.5875
3238.71446	31463.4875
3240.99896	31394.9875
3243.28209	31347.1875
3245.56384	31201.3875
3247.84423	31151.0875
3250.12324	31114.9875
3252.40088	31113.5875
3254.67715	31129.2875
3256.95205	31104.0875
3259.22558	31078.1875
3261.49775	31086.8875
3263.76855	31047.2875
3266.03799	30950.9875
3268.30606	30939.7875
3270.57277	30902.2875
3272.83812	30782.1875
3275.10211	30705.7875
3277.36474	30668.3875
3279.62601	30652.4875
3281.88593	30588.2875
3284.14448	30608.9875
3286.40168	30589.4875
3288.65753	30471.3875
3290.91202	30515.4875
3293.16516	30428.7875
3295.41695	30422.1875
3297.66738	30226.7875
3299.91647	30126.8875
3302.16421	29882.5875
3304.4106	29805.4875
3306.65564	29603.5875
3308.89933	29352.3875
3311.14169	29174.1875
3313.38269	28950.1875
3315.62236	28826.1875
3317.86068	28694.2875
3320.09766	28473.6875
3322.3333	28277.6875
3324.5676	28114.1875
3326.80056	27737.4875
3329.03219	27573.3875
3331.26248	6.1875
3333.49143	-0.1125
3335.71905	-0.8125
