Data from AgNPs_UA_100uM_CRN_0uM_R6G_10uM_Q_RamanShift__16__13-31-05-328.txt Node

Date: Tue Jul 26 13:31:05 BST 2022
User: TCL
Spectrometer: QEP01345
Trigger mode: 4
Integration Time (sec): 7.000000E0
Scans to average: 10
Electric dark correction enabled: true
Nonlinearity correction enabled: false
Boxcar width: 0
XAxis mode: Raman Shifts
Number of Pixels in Spectrum: 1044
>>>>>Begin Spectral Data<<<<<
46.04893	-0.1125
50.45542	-0.3125
54.85868	-1.5125
59.25871	-0.3125
63.6555	74.2875
68.04907	81.3875
72.43941	85.9875
76.82654	88.3875
81.21044	90.7875
85.59113	95.5875
89.96862	102.9875
94.34289	103.3875
98.71396	112.0875
103.08183	109.1875
107.4465	108.7875
111.80798	111.4875
116.16626	112.8875
120.52136	113.8875
124.87327	120.7875
129.222	125.1875
133.56755	132.5875
137.90993	140.3875
142.24913	147.4875
146.58517	156.7875
150.91804	174.3875
155.24774	202.5875
159.57429	240.7875
163.89768	305.4875
168.21792	389.3875
172.53501	527.4875
176.84895	713.2875
181.15975	1012.2875
185.46741	1402.0875
189.77193	1933.4875
194.07331	2570.9875
198.37157	3310.2875
202.6667	4087.0875
206.9587	4833.6875
211.24758	5579.8875
215.53334	6327.6875
219.81599	7097.7875
224.09553	7942.6875
228.37195	8859.7875
232.64527	9869.9875
236.91549	10979.9875
241.18261	12117.3875
245.44663	13200.5875
249.70755	14279.7875
253.96539	15170.8875
258.22014	15968.5875
262.4718	16562.2875
266.72039	16987.0875
270.96589	17161.1875
275.20832	17194.8875
279.44768	17059.5875
283.68397	16843.6875
287.91719	16626.2875
292.14735	16463.3875
296.37445	16343.6875
300.59849	16268.6875
304.81948	16245.9875
309.03742	16231.2875
313.25231	16195.7875
317.46415	16102.7875
321.67296	16005.7875
325.87872	15938.3875
330.08145	16010.6875
334.28114	16161.1875
338.47781	16319.7875
342.67145	16556.4875
346.86207	16817.1875
351.04966	17141.7875
355.23424	17433.3875
359.4158	17711.7875
363.59435	18005.9875
367.76989	18248.9875
371.94243	18473.8875
376.11196	18667.4875
380.27849	18847.2875
384.44203	19008.3875
388.60257	19141.7875
392.76012	19317.3875
396.91468	19452.1875
401.06626	19657.2875
405.21485	19833.4875
409.36047	19900.2875
413.50311	19837.1875
417.64277	19799.8875
421.77947	19786.0875
425.9132	19811.7875
430.04396	19923.0875
434.17176	20063.3875
438.2966	20258.1875
442.41849	20482.4875
446.53742	20671.6875
450.6534	20935.5875
454.76644	21152.9875
458.87653	21319.5875
462.98368	21428.6875
467.08789	21499.6875
471.18916	21513.5875
475.2875	21455.5875
479.38291	21395.3875
483.4754	21379.3875
487.56496	21337.7875
491.6516	21361.5875
495.73531	21371.3875
499.81612	21448.0875
503.89401	21594.9875
507.96899	21638.4875
512.04106	21715.1875
516.11023	21784.2875
520.1765	21838.0875
524.23987	21871.3875
528.30034	21912.0875
532.35792	21974.8875
536.41261	21955.6875
540.46441	21901.3875
544.51333	21952.9875
548.55936	21980.2875
552.60252	22076.2875
556.64279	22303.2875
560.6802	22443.8875
564.71473	22537.8875
568.7464	22566.5875
572.7752	22581.1875
576.80114	22551.7875
580.82422	22568.9875
584.84444	22667.4875
588.86181	22735.9875
592.87633	22858.2875
596.888	22980.8875
600.89682	23266.0875
604.9028	23940.6875
608.90594	25167.7875
612.90624	26251.4875
616.90371	25611.1875
620.89834	24056.3875
624.89015	23432.7875
628.87913	23435.0875
632.86528	23586.6875
636.84862	23727.3875
640.82913	23725.2875
644.80683	23545.8875
648.78172	23512.6875
652.75379	23545.7875
656.72306	23735.9875
660.68952	23966.4875
664.65319	24004.1875
668.61405	23986.0875
672.57211	24110.7875
676.52738	24163.8875
680.47986	24173.5875
684.42955	24137.9875
688.37646	24096.6875
692.32058	24236.2875
696.26192	24365.3875
700.20048	24607.4875
704.13626	24702.3875
708.06928	24724.5875
711.99952	24619.5875
715.927	24567.1875
719.85171	24575.6875
723.77365	24638.0875
727.69284	24624.4875
731.60928	24565.8875
735.52295	24604.6875
739.43388	24635.3875
743.34206	24666.6875
747.24749	24727.5875
751.15017	24777.1875
755.05012	24840.2875
758.94733	25014.8875
762.8418	25390.4875
766.73354	25927.1875
770.62254	26514.1875
774.50882	26884.9875
778.39237	26881.2875
782.27321	26465.3875
786.15132	25973.1875
790.02671	25543.5875
793.89938	25356.2875
797.76935	25261.6875
801.6366	25184.9875
805.50115	25199.4875
809.36299	25162.3875
813.22213	25128.2875
817.07857	25158.6875
820.93231	25194.0875
824.78336	25270.2875
828.63172	25328.9875
832.47738	25350.6875
836.32036	25339.9875
840.16066	25386.9875
843.99827	25407.6875
847.8332	25424.8875
851.66546	25450.4875
855.49504	25544.2875
859.32195	25600.5875
863.1462	25636.0875
866.96777	25634.8875
870.78668	25681.5875
874.60293	25757.4875
878.41652	25806.1875
882.22745	25911.9875
886.03573	25978.8875
889.84136	25988.4875
893.64433	25943.0875
897.44466	25913.0875
901.24235	25914.3875
905.0374	25907.0875
908.8298	25897.9875
912.61957	25833.2875
916.40671	25876.3875
920.19121	25915.2875
923.97308	25896.4875
927.75233	25957.2875
931.52895	25966.7875
935.30295	25955.0875
939.07433	25881.0875
942.84309	25837.9875
946.60924	25818.8875
950.37278	25809.3875
954.13371	25770.2875
957.89203	25739.8875
961.64774	25758.4875
965.40086	25759.7875
969.15137	25730.8875
972.89929	25682.7875
976.64461	25707.1875
980.38733	25669.2875
984.12747	25766.9875
987.86502	25837.5875
991.59999	25954.7875
995.33237	25986.3875
999.06217	26147.5875
1002.78939	26297.7875
1006.51404	26414.5875
1010.23611	26545.0875
1013.95561	26674.3875
1017.67255	26725.1875
1021.38692	26732.5875
1025.09872	26625.7875
1028.80796	26568.2875
1032.51465	26607.3875
1036.21877	26582.9875
1039.92035	26616.0875
1043.61937	26628.1875
1047.31584	26660.8875
1051.00976	26724.0875
1054.70114	26698.0875
1058.38998	26742.0875
1062.07627	26870.5875
1065.76003	26967.8875
1069.44126	27110.6875
1073.11995	27348.1875
1076.79611	27602.8875
1080.46974	27760.2875
1084.14085	27779.2875
1087.80943	27772.9875
1091.47549	27800.2875
1095.13903	27882.6875
1098.80005	27881.5875
1102.45857	27896.7875
1106.11456	27925.6875
1109.76805	27770.6875
1113.41903	27644.1875
1117.06751	27578.1875
1120.71348	27726.0875
1124.35696	27775.6875
1127.99793	27820.6875
1131.63641	27770.6875
1135.2724	27689.3875
1138.90589	27577.0875
1142.5369	27514.7875
1146.16542	27424.7875
1149.79145	27335.1875
1153.415	27267.4875
1157.03607	27142.6875
1160.65467	27171.6875
1164.27079	27296.8875
1167.88443	27542.7875
1171.49561	27846.8875
1175.10432	28317.1875
1178.71056	28929.4875
1182.31434	29561.6875
1185.91565	29939.0875
1189.51451	30177.6875
1193.11091	30204.6875
1196.70485	30044.2875
1200.29634	29839.9875
1203.88538	29612.5875
1207.47197	29266.6875
1211.05612	28958.0875
1214.63782	28676.6875
1218.21708	28457.0875
1221.79391	28218.5875
1225.36829	28094.0875
1228.94024	28054.5875
1232.50976	28009.2875
1236.07685	28025.0875
1239.6415	28101.2875
1243.20374	28130.9875
1246.76355	28224.7875
1250.32093	28349.8875
1253.8759	28505.5875
1257.42845	28721.6875
1260.97859	29087.3875
1264.52631	29251.4875
1268.07163	29471.1875
1271.61453	29612.0875
1275.15503	29673.9875
1278.69312	29703.5875
1282.22882	29653.5875
1285.76211	29622.9875
1289.29301	29615.7875
1292.82151	29769.8875
1296.34761	29928.6875
1299.87133	30304.4875
1303.39266	30687.5875
1306.9116	31298.8875
1310.42815	31878.5875
1313.94233	32327.2875
1317.45412	32276.1875
1320.96354	31996.5875
1324.47058	31608.2875
1327.97525	31158.5875
1331.47754	30809.0875
1334.97747	30618.4875
1338.47502	30748.9875
1341.97022	31165.9875
1345.46305	31707.5875
1348.95352	32375.5875
1352.44163	32811.9875
1355.92738	33094.5875
1359.41078	33369.0875
1362.89183	33524.3875
1366.37053	32916.5875
1369.84688	31641.5875
1373.32088	30401.6875
1376.79254	29593.2875
1380.26186	29061.0875
1383.72883	28694.1875
1387.19347	28443.3875
1390.65578	28106.4875
1394.11575	27816.4875
1397.57339	27603.1875
1401.0287	27427.5875
1404.48168	27362.9875
1407.93234	27432.7875
1411.38068	27504.9875
1414.82669	27568.8875
1418.27039	27431.0875
1421.71177	27429.3875
1425.15083	27334.6875
1428.58758	27333.1875
1432.02203	27344.5875
1435.45416	27342.9875
1438.88399	27301.1875
1442.31151	27234.0875
1445.73673	27306.3875
1449.15965	27290.3875
1452.58027	27198.3875
1455.9986	27211.8875
1459.41463	27233.2875
1462.82837	27430.0875
1466.23982	27564.6875
1469.64898	27836.4875
1473.05586	27962.6875
1476.46045	28091.1875
1479.86276	28161.9875
1483.26279	28192.8875
1486.66054	28317.4875
1490.05602	28473.6875
1493.44922	28752.1875
1496.84016	29194.6875
1500.22882	29784.9875
1503.61521	30548.8875
1506.99934	31224.4875
1510.38121	31531.9875
1513.76081	31392.0875
1517.13816	30850.2875
1520.51324	30173.5875
1523.88607	29468.7875
1527.25665	28990.3875
1530.62498	28705.1875
1533.99105	28545.2875
1537.35488	28504.7875
1540.71647	28420.7875
1544.07581	28507.8875
1547.4329	28517.6875
1550.78776	28461.1875
1554.14038	28451.2875
1557.49077	28411.5875
1560.83892	28409.6875
1564.18484	28497.4875
1567.52853	28626.9875
1570.86999	28741.2875
1574.20922	28829.1875
1577.54624	28780.2875
1580.88103	28593.9875
1584.2136	28302.8875
1587.54395	28198.1875
1590.87208	28316.6875
1594.19801	28650.6875
1597.52172	29032.5875
1600.84321	29330.4875
1604.16251	29258.4875
1607.47959	29031.7875
1610.79447	28620.5875
1614.10715	28006.6875
1617.41763	27419.6875
1620.7259	27074.8875
1624.03199	26804.8875
1627.33587	26663.6875
1630.63757	26691.8875
1633.93707	26857.5875
1637.23439	27218.1875
1640.52951	27791.0875
1643.82246	28494.8875
1647.11321	29173.4875
1650.40179	29405.0875
1653.68819	29023.6875
1656.97241	28094.2875
1660.25446	27209.5875
1663.53433	26562.6875
1666.81203	26132.2875
1670.08756	25851.4875
1673.36092	25650.1875
1676.63211	25526.2875
1679.90115	25396.0875
1683.16801	25300.7875
1686.43272	25181.5875
1689.69527	25125.0875
1692.95567	25060.4875
1696.2139	25076.6875
1699.46999	24999.4875
1702.72392	24941.8875
1705.97571	24966.4875
1709.22535	24951.1875
1712.47284	24969.8875
1715.71819	24939.5875
1718.96139	24944.9875
1722.20246	24913.7875
1725.44139	24877.4875
1728.67818	24860.1875
1731.91284	24797.3875
1735.14537	24739.0875
1738.37576	24695.7875
1741.60403	24623.0875
1744.83017	24571.0875
1748.05418	24575.9875
1751.27607	24477.6875
1754.49584	24460.2875
1757.71349	24439.6875
1760.92903	24444.1875
1764.14244	24430.7875
1767.35375	24442.9875
1770.56294	24435.6875
1773.77002	24391.1875
1776.97499	24353.7875
1780.17785	24336.7875
1783.37861	24336.1875
1786.57727	24331.4875
1789.77382	24263.9875
1792.96828	24238.7875
1796.16064	24252.3875
1799.3509	24211.8875
1802.53907	24173.4875
1805.72514	24157.3875
1808.90913	24041.1875
1812.09102	24008.1875
1815.27083	23969.9875
1818.44856	23993.6875
1821.6242	23934.4875
1824.79776	23877.7875
1827.96924	23821.1875
1831.13864	23795.0875
1834.30597	23793.2875
1837.47122	23756.8875
1840.6344	23703.4875
1843.7955	23727.7875
1846.95454	23724.9875
1850.11151	23728.6875
1853.26642	23679.1875
1856.41926	23692.7875
1859.57004	23685.2875
1862.71876	23624.8875
1865.86542	23634.8875
1869.01003	23584.9875
1872.15258	23585.5875
1875.29308	23590.2875
1878.43152	23543.9875
1881.56792	23522.6875
1884.70227	23430.2875
1887.83457	23440.4875
1890.96482	23420.4875
1894.09304	23364.2875
1897.21921	23375.3875
1900.34335	23347.8875
1903.46544	23289.3875
1906.58551	23322.6875
1909.70353	23296.2875
1912.81953	23245.6875
1915.93349	23210.8875
1919.04543	23175.9875
1922.15534	23170.8875
1925.26322	23138.2875
1928.36908	23116.8875
1931.47292	23074.1875
1934.57473	23022.1875
1937.67453	22986.7875
1940.77232	22961.8875
1943.86808	22867.6875
1946.96184	22790.7875
1950.05358	22729.1875
1953.14331	22695.1875
1956.23103	22616.6875
1959.31675	22518.4875
1962.40046	22484.9875
1965.48217	22402.2875
1968.56188	22359.9875
1971.63959	22295.5875
1974.7153	22222.5875
1977.78901	22143.1875
1980.86073	22116.3875
1983.93046	22052.8875
1986.99819	21975.7875
1990.06394	21939.8875
1993.1277	21891.7875
1996.18947	21782.3875
1999.24925	21760.5875
2002.30706	21686.5875
2005.36288	21607.3875
2008.41672	21589.5875
2011.46859	21472.1875
2014.51848	21438.8875
2017.56639	21389.0875
2020.61233	21318.4875
2023.6563	21303.9875
2026.6983	21225.4875
2029.73833	21209.5875
2032.7764	21093.6875
2035.8125	21062.9875
2038.84664	21023.3875
2041.87881	20995.0875
2044.90903	20961.4875
2047.93729	20912.6875
2050.96359	20902.0875
2053.98794	20908.1875
2057.01034	20876.6875
2060.03078	20859.0875
2063.04927	20795.0875
2066.06582	20759.1875
2069.08042	20777.3875
2072.09307	20746.6875
2075.10378	20756.9875
2078.11255	20734.2875
2081.11938	20743.9875
2084.12426	20717.4875
2087.12722	20717.7875
2090.12824	20716.4875
2093.12732	20704.8875
2096.12447	20702.5875
2099.11969	20707.9875
2102.11299	20699.9875
2105.10435	20744.0875
2108.09379	20748.4875
2111.08131	20701.5875
2114.0669	20728.1875
2117.05057	20737.0875
2120.03233	20769.0875
2123.01216	20779.7875
2125.99008	20837.0875
2128.96609	20834.4875
2131.94018	20833.5875
2134.91236	20870.8875
2137.88263	20890.1875
2140.851	20896.9875
2143.81746	20924.9875
2146.78201	20858.5875
2149.74466	20943.7875
2152.7054	20957.7875
2155.66425	20932.8875
2158.6212	20929.5875
2161.57625	20916.1875
2164.52941	20910.6875
2167.48067	20882.8875
2170.43004	20841.4875
2173.37752	20820.1875
2176.32311	20844.4875
2179.26681	20854.7875
2182.20863	20852.3875
2185.14856	20787.1875
2188.08661	20849.4875
2191.02278	20810.3875
2193.95707	20790.0875
2196.88948	20788.0875
2199.82001	20804.4875
2202.74867	20787.3875
2205.67545	20733.8875
2208.60037	20733.4875
2211.52341	20726.0875
2214.44458	20711.8875
2217.36388	20606.0875
2220.28132	20542.2875
2223.1969	20467.5875
2226.11061	20479.7875
2229.02246	20407.6875
2231.93245	20427.1875
2234.84058	20355.0875
2237.74686	20304.0875
2240.65128	20305.6875
2243.55385	20267.2875
2246.45456	20266.3875
2249.35343	20253.0875
2252.25044	20222.2875
2255.14561	20186.0875
2258.03893	20129.8875
2260.93041	20111.9875
2263.82004	20053.3875
2266.70783	20005.6875
2269.59378	19962.6875
2272.4779	19961.7875
2275.36017	19901.2875
2278.24061	19900.1875
2281.11922	19815.9875
2283.996	19797.6875
2286.87094	19746.1875
2289.74405	19685.8875
2292.61534	19650.1875
2295.4848	19649.6875
2298.35243	19689.0875
2301.21824	19629.3875
2304.08223	19644.2875
2306.94439	19620.9875
2309.80474	19597.8875
2312.66327	19594.1875
2315.51999	19561.7875
2318.37489	19540.9875
2321.22797	19504.3875
2324.07925	19447.7875
2326.92871	19434.4875
2329.77637	19404.4875
2332.62222	19365.5875
2335.46626	19320.7875
2338.3085	19253.4875
2341.14893	19237.5875
2343.98756	19226.7875
2346.8244	19193.9875
2349.65943	19209.2875
2352.49267	19191.3875
2355.32411	19138.7875
2358.15376	19099.8875
2360.98161	19072.8875
2363.80768	19039.0875
2366.63195	19033.2875
2369.45444	19049.3875
2372.27514	19037.2875
2375.09405	19016.8875
2377.91118	19017.9875
2380.72652	18953.5875
2383.54009	18899.7875
2386.35187	18900.5875
2389.16188	18854.9875
2391.97011	18808.8875
2394.77657	18767.1875
2397.58125	18712.1875
2400.38416	18685.3875
2403.18529	18650.5875
2405.98466	18643.9875
2408.78226	18607.1875
2411.57809	18580.8875
2414.37216	18573.9875
2417.16446	18538.6875
2419.955	18508.6875
2422.74378	18551.5875
2425.5308	18480.6875
2428.31606	18514.4875
2431.09956	18474.0875
2433.88131	18451.5875
2436.6613	18415.7875
2439.43954	18397.3875
2442.21603	18379.6875
2444.99077	18363.9875
2447.76377	18353.7875
2450.53501	18341.7875
2453.30451	18218.8875
2456.07226	18197.8875
2458.83827	18220.3875
2461.60254	18174.2875
2464.36507	18188.6875
2467.12586	18148.2875
2469.88492	18120.8875
2472.64224	18099.4875
2475.39782	18098.9875
2478.15167	18114.3875
2480.90379	18074.9875
2483.65417	18053.2875
2486.40283	18048.5875
2489.14976	18026.0875
2491.89497	17984.0875
2494.63845	17960.2875
2497.3802	17965.8875
2500.12024	17940.8875
2502.85855	17927.9875
2505.59514	17878.9875
2508.33002	17853.3875
2511.06318	17836.3875
2513.79462	17820.0875
2516.52435	17800.3875
2519.25237	17758.5875
2521.97867	17721.8875
2524.70327	17716.8875
2527.42616	17694.2875
2530.14734	17691.9875
2532.86681	17665.2875
2535.58458	17631.2875
2538.30065	17591.0875
2541.01501	17579.9875
2543.72768	17548.6875
2546.43864	17508.9875
2549.14791	17470.4875
2551.85548	17433.5875
2554.56136	17414.7875
2557.26554	17380.4875
2559.96803	17386.3875
2562.66883	17314.9875
2565.36794	17265.6875
2568.06536	17228.6875
2570.7611	17182.8875
2573.45514	17158.0875
2576.14751	17165.4875
2578.83819	17143.2875
2581.52719	17098.8875
2584.21451	17083.2875
2586.90015	17078.2875
2589.58411	16998.0875
2592.2664	16952.9875
2594.94701	16948.4875
2597.62594	16930.1875
2600.30321	16857.0875
2602.9788	16849.4875
2605.65273	16819.5875
2608.32498	16822.2875
2610.99557	16781.2875
2613.66449	16786.0875
2616.33175	16725.2875
2618.99734	16731.1875
2621.66128	16665.1875
2624.32355	16653.4875
2626.98416	16609.2875
2629.64311	16591.7875
2632.30041	16577.1875
2634.95605	16529.0875
2637.61004	16510.4875
2640.26238	16498.9875
2642.91306	16449.0875
2645.56209	16488.4875
2648.20948	16425.0875
2650.85521	16413.4875
2653.4993	16395.5875
2656.14175	16367.4875
2658.78255	16382.6875
2661.42171	16364.1875
2664.05923	16385.0875
2666.6951	16377.7875
2669.32934	16375.4875
2671.96194	16357.2875
2674.59291	16356.8875
2677.22224	16339.4875
2679.84993	16315.3875
2682.476	16301.8875
2685.10043	16320.5875
2687.72324	16311.7875
2690.34441	16300.2875
2692.96396	16276.8875
2695.58188	16250.7875
2698.19818	16218.6875
2700.81285	16239.4875
2703.4259	16210.5875
2706.03733	16219.3875
2708.64714	16220.2875
2711.25533	16223.9875
2713.86191	16211.9875
2716.46687	16245.0875
2719.07021	16223.8875
2721.67194	16231.7875
2724.27206	16201.1875
2726.87057	16221.6875
2729.46747	16182.7875
2732.06276	16220.1875
2734.65644	16183.3875
2737.24852	16175.0875
2739.83899	16159.4875
2742.42786	16161.2875
2745.01513	16115.3875
2747.60079	16067.6875
2750.18486	16045.3875
2752.76733	16017.3875
2755.3482	16024.5875
2757.92747	16004.0875
2760.50515	15937.4875
2763.08123	15932.9875
2765.65573	15886.8875
2768.22863	15896.4875
2770.79994	15882.0875
2773.36967	15857.5875
2775.9378	15829.6875
2778.50435	15789.0875
2781.06932	15758.2875
2783.6327	15746.9875
2786.1945	15748.0875
2788.75471	15707.3875
2791.31335	15671.5875
2793.87041	15636.9875
2796.42589	15582.6875
2798.97979	15580.0875
2801.53212	15522.2875
2804.08288	15492.3875
2806.63206	15489.5875
2809.17967	15417.7875
2811.72571	15361.9875
2814.27018	15353.5875
2816.81308	15293.4875
2819.35442	15239.8875
2821.89419	15195.4875
2824.43239	15218.7875
2826.96904	15170.5875
2829.50412	15134.3875
2832.03763	15097.2875
2834.56959	15059.6875
2837.1	15064.7875
2839.62884	15105.1875
2842.15613	15055.0875
2844.68186	15039.5875
2847.20604	15021.6875
2849.72867	15007.9875
2852.24974	14934.7875
2854.76927	14918.7875
2857.28724	14902.9875
2859.80367	14896.7875
2862.31855	14892.6875
2864.83189	14862.0875
2867.34368	14842.2875
2869.85393	14752.1875
2872.36264	14763.1875
2874.8698	14728.2875
2877.37543	14737.3875
2879.87952	14726.5875
2882.38207	14739.6875
2884.88308	14713.3875
2887.38256	14712.0875
2889.88051	14703.7875
2892.37692	14702.8875
2894.8718	14686.5875
2897.36515	14694.8875
2899.85698	14680.7875
2902.34727	14721.0875
2904.83604	14726.9875
2907.32328	14740.0875
2909.809	14712.6875
2912.29319	14737.5875
2914.77587	14682.2875
2917.25702	14658.3875
2919.73665	14635.6875
2922.21476	14646.3875
2924.69136	14631.2875
2927.16644	14634.9875
2929.64	14603.9875
2932.11205	14600.4875
2934.58258	14555.7875
2937.05161	14564.3875
2939.51912	14566.6875
2941.98513	14585.7875
2944.44962	14547.4875
2946.91261	14540.3875
2949.37409	14553.3875
2951.83407	14501.5875
2954.29254	14508.0875
2956.74951	14495.0875
2959.20498	14498.6875
2961.65895	14495.4875
2964.11142	14479.6875
2966.56239	14470.9875
2969.01186	14477.1875
2971.45984	14486.7875
2973.90632	14460.4875
2976.35131	14427.8875
2978.7948	14417.0875
2981.23681	14415.7875
2983.67732	14354.5875
2986.11635	14353.4875
2988.55388	14326.3875
2990.98993	14288.9875
2993.4245	14272.8875
2995.85758	14231.3875
2998.28917	14222.4875
3000.71928	14177.3875
3003.14791	14190.6875
3005.57506	14139.2875
3008.00073	14079.2875
3010.42493	14081.0875
3012.84764	14069.8875
3015.26888	14059.2875
3017.68865	14035.6875
3020.10694	14018.2875
3022.52376	13970.0875
3024.9391	13945.1875
3027.35298	13931.5875
3029.76539	13929.3875
3032.17632	13922.2875
3034.5858	13886.4875
3036.9938	13883.0875
3039.40034	13856.5875
3041.80542	13853.4875
3044.20903	13832.1875
3046.61118	13865.8875
3049.01187	13773.6875
3051.4111	13741.8875
3053.80888	13735.3875
3056.20519	13719.2875
3058.60005	13678.9875
3060.99345	13630.2875
3063.3854	13613.0875
3065.7759	13599.4875
3068.16494	13555.2875
3070.55254	13512.3875
3072.93868	13525.5875
3075.32338	13501.2875
3077.70662	13457.0875
3080.08842	13388.9875
3082.46878	13396.9875
3084.84769	13366.0875
3087.22515	13357.9875
3089.60118	13385.2875
3091.97576	13395.3875
3094.3489	13413.2875
3096.72061	13405.2875
3099.09087	13392.3875
3101.4597	13372.7875
3103.82709	13394.3875
3106.19305	13357.8875
3108.55757	13397.4875
3110.92066	13340.9875
3113.28232	13328.4875
3115.64255	13313.5875
3118.00134	13281.2875
3120.35871	13284.3875
3122.71466	13275.4875
3125.06917	13215.7875
3127.42226	13186.4875
3129.77393	13187.3875
3132.12417	13150.4875
3134.47299	13142.4875
3136.82039	13142.9875
3139.16636	13156.2875
3141.51092	13097.5875
3143.85406	13092.6875
3146.19579	13132.2875
3148.53609	13114.4875
3150.87499	13153.9875
3153.21246	13126.1875
3155.54853	13172.5875
3157.88318	13173.0875
3160.21642	13184.2875
3162.54826	13158.9875
3164.87868	13146.7875
3167.2077	13156.6875
3169.5353	13183.8875
3171.86151	13154.5875
3174.18631	13153.4875
3176.5097	13132.9875
3178.83169	13132.3875
3181.15228	13090.0875
3183.47147	13043.8875
3185.78926	13050.1875
3188.10565	12997.8875
3190.42065	12971.7875
3192.73424	12997.8875
3195.04645	12964.2875
3197.35725	12979.7875
3199.66667	12966.4875
3201.97469	12987.8875
3204.28132	12952.2875
3206.58656	12986.0875
3208.8904	12951.2875
3211.19287	12967.0875
3213.49394	12967.6875
3215.79363	12995.6875
3218.09193	12971.2875
3220.38884	12977.6875
3222.68438	13006.5875
3224.97853	12935.6875
3227.2713	12976.0875
3229.56269	12922.5875
3231.8527	12911.1875
3234.14133	12878.5875
3236.42858	12883.2875
3238.71446	12851.6875
3240.99896	12789.3875
3243.28209	12756.7875
3245.56384	12750.2875
3247.84423	12755.2875
3250.12324	12737.8875
3252.40088	12726.1875
3254.67715	12730.6875
3256.95205	12709.2875
3259.22558	12734.0875
3261.49775	12709.9875
3263.76855	12706.3875
3266.03799	12727.4875
3268.30606	12711.0875
3270.57277	12687.1875
3272.83812	12653.3875
3275.10211	12588.6875
3277.36474	12563.2875
3279.62601	12547.2875
3281.88593	12498.7875
3284.14448	12515.2875
3286.40168	12518.7875
3288.65753	12536.2875
3290.91202	12529.5875
3293.16516	12484.4875
3295.41695	12440.3875
3297.66738	12361.6875
3299.91647	12292.9875
3302.16421	12190.9875
3304.4106	12171.4875
3306.65564	12090.0875
3308.89933	12000.1875
3311.14169	11938.1875
3313.38269	11833.6875
3315.62236	11782.4875
3317.86068	11680.1875
3320.09766	11597.6875
3322.3333	11535.7875
3324.5676	11459.4875
3326.80056	11313.9875
3329.03219	11238.5875
3331.26248	3.0875
3333.49143	0.0875
3335.71905	-0.9125
