Data from AgNPs_UA_10uM_CRN_0uM_R6G_10uM_Q_RamanShift__24__12-16-42-653.txt Node

Date: Mon Jul 18 12:16:42 BST 2022
User: TCL
Spectrometer: QEP01345
Trigger mode: 4
Integration Time (sec): 7.000000E0
Scans to average: 10
Electric dark correction enabled: true
Nonlinearity correction enabled: false
Boxcar width: 0
XAxis mode: Raman Shifts
Number of Pixels in Spectrum: 1044
>>>>>Begin Spectral Data<<<<<
46.04893	-1.775
50.45542	-1.975
54.85868	-2.375
59.25871	-0.675
63.6555	118.925
68.04907	126.325
72.43941	128.625
76.82654	132.825
81.21044	139.625
85.59113	142.125
89.96862	148.325
94.34289	153.525
98.71396	159.725
103.08183	164.025
107.4465	168.225
111.80798	174.025
116.16626	173.425
120.52136	188.225
124.87327	195.225
129.222	200.325
133.56755	213.525
137.90993	235.925
142.24913	253.925
146.58517	287.225
150.91804	335.725
155.24774	403.025
159.57429	501.025
163.89768	653.325
168.21792	862.225
172.53501	1178.025
176.84895	1632.325
181.15975	2299.125
185.46741	3230.325
189.77193	4435.025
194.07331	5906.025
198.37157	7577.725
202.6667	9326.825
206.9587	11021.725
211.24758	12744.925
215.53334	14479.425
219.81599	16371.225
224.09553	18511.025
228.37195	20868.425
232.64527	23443.925
236.91549	26089.225
241.18261	28612.825
245.44663	30858.525
249.70755	32850.825
253.96539	34629.325
258.22014	36192.125
262.4718	37445.925
266.72039	38344.625
270.96589	38784.925
275.20832	38828.225
279.44768	38517.125
283.68397	38073.525
287.91719	37743.125
292.14735	37647.725
296.37445	37841.225
300.59849	38259.825
304.81948	38686.025
309.03742	38895.625
313.25231	38609.725
317.46415	37596.325
321.67296	36310.025
325.87872	35259.125
330.08145	34881.825
334.28114	34931.625
338.47781	35388.625
342.67145	35978.225
346.86207	36763.925
351.04966	37834.125
355.23424	39046.125
359.4158	39966.125
363.59435	40576.425
367.76989	40931.025
371.94243	41146.525
376.11196	41253.825
380.27849	41336.725
384.44203	41478.825
388.60257	41540.425
392.76012	41699.025
396.91468	42153.125
401.06626	42974.825
405.21485	43454.525
409.36047	43089.325
413.50311	42179.425
417.64277	41461.325
421.77947	41191.925
425.9132	41282.125
430.04396	41543.225
434.17176	41933.625
438.2966	42621.525
442.41849	43711.225
446.53742	45176.525
450.6534	46755.725
454.76644	47733.725
458.87653	47879.825
462.98368	47317.825
467.08789	46459.625
471.18916	45401.225
475.2875	44510.825
479.38291	43902.225
483.4754	43278.625
487.56496	42671.825
491.6516	41986.225
495.73531	41506.725
499.81612	41326.825
503.89401	41585.325
507.96899	41777.125
512.04106	41853.525
516.11023	41986.325
520.1765	41946.725
524.23987	41798.325
528.30034	41595.025
532.35792	41243.825
536.41261	40709.725
540.46441	40186.325
544.51333	40179.325
548.55936	40692.025
552.60252	41603.525
556.64279	42663.225
560.6802	43242.925
564.71473	43714.125
568.7464	44658.925
572.7752	45487.725
576.80114	45643.225
580.82422	45681.325
584.84444	46295.925
588.86181	47481.425
592.87633	48939.625
596.888	49936.625
600.89682	50406.925
604.9028	53041.125
608.90594	60011.825
612.90624	65836.625
616.90371	59788.325
620.89834	48444.725
624.89015	44229.625
628.87913	43827.225
632.86528	43557.625
636.84862	43013.725
640.82913	42022.325
644.80683	40693.325
648.78172	39838.925
652.75379	39995.025
656.72306	40856.525
660.68952	41803.325
664.65319	41486.925
668.61405	40651.925
672.57211	40398.425
676.52738	40405.425
680.47986	40264.125
684.42955	40010.925
688.37646	40014.525
692.32058	40286.225
696.26192	40744.825
700.20048	41176.825
704.13626	41383.425
708.06928	41113.725
711.99952	40740.225
715.927	40755.325
719.85171	40790.525
723.77365	40592.625
727.69284	40230.525
731.60928	39952.225
735.52295	40018.725
739.43388	40200.025
743.34206	40490.825
747.24749	40700.725
751.15017	41028.625
755.05012	41772.625
758.94733	43366.625
762.8418	46516.125
766.73354	51069.525
770.62254	55158.125
774.50882	55915.825
778.39237	52913.525
782.27321	48143.025
786.15132	44178.325
790.02671	41958.025
793.89938	40890.125
797.76935	40540.825
801.6366	40397.825
805.50115	40243.225
809.36299	39894.125
813.22213	39581.025
817.07857	39515.925
820.93231	39496.125
824.78336	39574.225
828.63172	39662.125
832.47738	39754.425
836.32036	39864.025
840.16066	40149.125
843.99827	40314.625
847.8332	40161.925
851.66546	39821.725
855.49504	39722.925
859.32195	39655.925
863.1462	39446.325
866.96777	39287.525
870.78668	39185.825
874.60293	39166.825
878.41652	39277.025
882.22745	39388.025
886.03573	39521.525
889.84136	39422.825
893.64433	39206.525
897.44466	39069.025
901.24235	38965.325
905.0374	38889.625
908.8298	38811.925
912.61957	38943.325
916.40671	39329.325
920.19121	39940.925
923.97308	40654.125
927.75233	41096.625
931.52895	41179.225
935.30295	40603.925
939.07433	39536.925
942.84309	38928.625
946.60924	38685.325
950.37278	38493.525
954.13371	38266.325
957.89203	38050.225
961.64774	37954.725
965.40086	37883.525
969.15137	37759.725
972.89929	37681.225
976.64461	37697.125
980.38733	37729.425
984.12747	38088.225
987.86502	38536.225
991.59999	39181.525
995.33237	40236.425
999.06217	42124.725
1002.78939	44020.925
1006.51404	44839.625
1010.23611	45089.425
1013.95561	45345.525
1017.67255	45464.825
1021.38692	45018.225
1025.09872	44889.425
1028.80796	45978.625
1032.51465	48075.925
1036.21877	49615.125
1039.92035	49400.225
1043.61937	48076.625
1047.31584	45998.425
1051.00976	44107.025
1054.70114	43191.625
1058.38998	42851.025
1062.07627	42824.925
1065.76003	42765.625
1069.44126	42931.425
1073.11995	43321.225
1076.79611	43783.025
1080.46974	44255.525
1084.14085	44865.625
1087.80943	45459.425
1091.47549	45601.325
1095.13903	45050.625
1098.80005	44125.425
1102.45857	43329.025
1106.11456	43011.925
1109.76805	43196.525
1113.41903	43723.725
1117.06751	44451.325
1120.71348	45348.425
1124.35696	46118.825
1127.99793	46755.025
1131.63641	46622.725
1135.2724	45835.025
1138.90589	45109.425
1142.5369	44716.425
1146.16542	44557.525
1149.79145	44602.025
1153.415	44997.025
1157.03607	45732.425
1160.65467	46857.725
1164.27079	48660.125
1167.88443	51404.225
1171.49561	55237.825
1175.10432	60573.725
1178.71056	67115.325
1182.31434	72736.225
1185.91565	75230.925
1189.51451	73907.425
1193.11091	70232.825
1196.70485	65773.425
1200.29634	62398.325
1203.88538	59566.625
1207.47197	57198.825
1211.05612	55462.525
1214.63782	54728.825
1218.21708	54943.425
1221.79391	55532.725
1225.36829	55868.725
1228.94024	55106.525
1232.50976	53719.825
1236.07685	52654.025
1239.6415	52223.025
1243.20374	52220.525
1246.76355	52633.725
1250.32093	53599.425
1253.8759	54980.425
1257.42845	56814.025
1260.97859	58425.425
1264.52631	59895.725
1268.07163	61521.825
1271.61453	63404.825
1275.15503	65669.725
1278.69312	67894.825
1282.22882	69633.625
1285.76211	71344.725
1289.29301	72933.425
1292.82151	75048.025
1296.34761	78054.325
1299.87133	82390.325
1303.39266	88323.125
1306.9116	96067.225
1310.42815	104015.525
1313.94233	108311.125
1317.45412	107275.525
1320.96354	102905.225
1324.47058	97956.825
1327.97525	93602.825
1331.47754	90658.025
1334.97747	89560.625
1338.47502	89586.425
1341.97022	90064.425
1345.46305	90224.225
1348.95352	90120.625
1352.44163	91280.025
1355.92738	94818.725
1359.41078	101540.325
1362.89183	107216.725
1366.37053	104041.225
1369.84688	92922.525
1373.32088	81479.725
1376.79254	74071.225
1380.26186	70548.025
1383.72883	69245.025
1387.19347	68358.625
1390.65578	67239.725
1394.11575	66985.125
1397.57339	67915.825
1401.0287	69419.425
1404.48168	70768.025
1407.93234	71514.625
1411.38068	71512.725
1414.82669	70374.725
1418.27039	68155.925
1421.71177	65434.625
1425.15083	63206.225
1428.58758	62186.325
1432.02203	62626.425
1435.45416	63782.625
1438.88399	64975.625
1442.31151	65783.625
1445.73673	66422.725
1449.15965	67015.125
1452.58027	67223.125
1455.9986	67139.025
1459.41463	67200.425
1462.82837	67991.225
1466.23982	69455.525
1469.64898	70790.925
1473.05586	71773.125
1476.46045	72133.525
1479.86276	72199.525
1483.26279	72110.925
1486.66054	72250.525
1490.05602	72819.725
1493.44922	73793.825
1496.84016	74969.125
1500.22882	76921.025
1503.61521	80220.825
1506.99934	84497.325
1510.38121	88255.225
1513.76081	89202.925
1517.13816	86286.025
1520.51324	81075.325
1523.88607	76321.025
1527.25665	73438.625
1530.62498	71888.025
1533.99105	71019.525
1537.35488	70343.025
1540.71647	69758.125
1544.07581	68920.325
1547.4329	67891.025
1550.78776	66754.625
1554.14038	65854.325
1557.49077	65360.525
1560.83892	65150.025
1564.18484	65361.025
1567.52853	65637.825
1570.86999	65965.425
1574.20922	66625.825
1577.54624	66799.125
1580.88103	66139.625
1584.2136	65746.825
1587.54395	67125.625
1590.87208	70955.125
1594.19801	76643.125
1597.52172	82383.325
1600.84321	84516.125
1604.16251	81188.525
1607.47959	74609.425
1610.79447	67392.225
1614.10715	61090.925
1617.41763	56359.125
1620.7259	53380.225
1624.03199	52098.625
1627.33587	52426.525
1630.63757	54297.525
1633.93707	57857.125
1637.23439	63147.125
1640.52951	69889.725
1643.82246	77194.225
1647.11321	82587.225
1650.40179	83053.625
1653.68819	76954.825
1656.97241	66813.425
1660.25446	57360.225
1663.53433	50549.225
1666.81203	46279.225
1670.08756	43570.725
1673.36092	41966.125
1676.63211	40851.325
1679.90115	39973.125
1683.16801	39401.625
1686.43272	38929.025
1689.69527	38605.025
1692.95567	38347.725
1696.2139	38166.725
1699.46999	38035.825
1702.72392	37964.725
1705.97571	37883.425
1709.22535	37845.625
1712.47284	37852.925
1715.71819	37798.525
1718.96139	37710.725
1722.20246	37571.325
1725.44139	37396.925
1728.67818	37186.825
1731.91284	36968.825
1735.14537	36767.025
1738.37576	36664.225
1741.60403	36596.025
1744.83017	36586.925
1748.05418	36419.425
1751.27607	36320.125
1754.49584	36302.825
1757.71349	36272.825
1760.92903	36193.225
1764.14244	36179.425
1767.35375	36167.725
1770.56294	36074.325
1773.77002	36084.925
1776.97499	36132.625
1780.17785	36007.825
1783.37861	35933.325
1786.57727	35927.125
1789.77382	35894.225
1792.96828	35876.525
1796.16064	35841.825
1799.3509	35780.425
1802.53907	35675.925
1805.72514	35595.925
1808.90913	35527.425
1812.09102	35478.925
1815.27083	35425.725
1818.44856	35384.325
1821.6242	35374.825
1824.79776	35297.525
1827.96924	35251.325
1831.13864	35232.325
1834.30597	35249.525
1837.47122	35227.725
1840.6344	35224.225
1843.7955	35243.225
1846.95454	35209.325
1850.11151	35188.325
1853.26642	35194.725
1856.41926	35176.925
1859.57004	35255.025
1862.71876	35210.125
1865.86542	35183.725
1869.01003	35218.825
1872.15258	35241.825
1875.29308	35253.425
1878.43152	35188.225
1881.56792	35186.825
1884.70227	35200.825
1887.83457	35184.625
1890.96482	35230.625
1894.09304	35178.925
1897.21921	35201.825
1900.34335	35207.425
1903.46544	35137.025
1906.58551	35170.925
1909.70353	35152.825
1912.81953	35182.025
1915.93349	35156.725
1919.04543	35135.225
1922.15534	35024.825
1925.26322	34986.125
1928.36908	34921.925
1931.47292	34852.525
1934.57473	34727.425
1937.67453	34613.025
1940.77232	34551.525
1943.86808	34511.325
1946.96184	34428.525
1950.05358	34285.425
1953.14331	34128.925
1956.23103	34022.025
1959.31675	33962.625
1962.40046	33916.725
1965.48217	33864.325
1968.56188	33767.125
1971.63959	33719.425
1974.7153	33616.425
1977.78901	33535.025
1980.86073	33400.025
1983.93046	33333.925
1986.99819	33264.725
1990.06394	33140.525
1993.1277	33045.425
1996.18947	32967.225
1999.24925	32951.325
2002.30706	32872.625
2005.36288	32799.125
2008.41672	32759.525
2011.46859	32646.825
2014.51848	32562.625
2017.56639	32525.025
2020.61233	32533.225
2023.6563	32398.025
2026.6983	32293.425
2029.73833	32207.425
2032.7764	32185.725
2035.8125	32196.525
2038.84664	32139.525
2041.87881	32126.825
2044.90903	32086.025
2047.93729	32019.525
2050.96359	32000.725
2053.98794	31965.325
2057.01034	31916.225
2060.03078	31979.725
2063.04927	31916.025
2066.06582	31886.225
2069.08042	31847.725
2072.09307	31853.925
2075.10378	31818.825
2078.11255	31767.225
2081.11938	31774.425
2084.12426	31750.425
2087.12722	31763.225
2090.12824	31744.125
2093.12732	31694.925
2096.12447	31765.725
2099.11969	31787.325
2102.11299	31806.025
2105.10435	31791.425
2108.09379	31781.225
2111.08131	31832.725
2114.0669	31797.825
2117.05057	31807.425
2120.03233	31898.225
2123.01216	31957.725
2125.99008	31969.425
2128.96609	32025.525
2131.94018	32163.125
2134.91236	32170.525
2137.88263	32140.625
2140.851	32162.525
2143.81746	32172.825
2146.78201	32205.325
2149.74466	32312.425
2152.7054	32251.825
2155.66425	32282.325
2158.6212	32260.125
2161.57625	32251.125
2164.52941	32193.225
2167.48067	32229.125
2170.43004	32220.325
2173.37752	32197.425
2176.32311	32243.825
2179.26681	32253.625
2182.20863	32314.625
2185.14856	32359.125
2188.08661	32346.825
2191.02278	32373.225
2193.95707	32379.625
2196.88948	32377.525
2199.82001	32382.725
2202.74867	32369.425
2205.67545	32396.125
2208.60037	32330.625
2211.52341	32302.225
2214.44458	32359.625
2217.36388	32342.325
2220.28132	32345.225
2223.1969	32270.825
2226.11061	32240.425
2229.02246	32118.625
2231.93245	32138.025
2234.84058	32073.725
2237.74686	32021.525
2240.65128	31952.625
2243.55385	31919.325
2246.45456	31892.725
2249.35343	31886.425
2252.25044	31825.025
2255.14561	31786.125
2258.03893	31754.425
2260.93041	31725.225
2263.82004	31671.925
2266.70783	31603.325
2269.59378	31561.125
2272.4779	31504.125
2275.36017	31430.125
2278.24061	31367.825
2281.11922	31355.125
2283.996	31324.625
2286.87094	31283.025
2289.74405	31233.925
2292.61534	31264.025
2295.4848	31216.725
2298.35243	31335.025
2301.21824	31353.425
2304.08223	31395.725
2306.94439	31391.725
2309.80474	31458.925
2312.66327	31483.625
2315.51999	31511.625
2318.37489	31593.825
2321.22797	31544.125
2324.07925	31503.225
2326.92871	31448.625
2329.77637	31478.925
2332.62222	31502.025
2335.46626	31574.525
2338.3085	31592.125
2341.14893	31644.525
2343.98756	31638.725
2346.8244	31728.125
2349.65943	31822.125
2352.49267	31784.325
2355.32411	31754.725
2358.15376	31734.425
2360.98161	31734.325
2363.80768	31694.525
2366.63195	31686.125
2369.45444	31591.125
2372.27514	31541.825
2375.09405	31429.925
2377.91118	31362.825
2380.72652	31259.225
2383.54009	31130.625
2386.35187	31133.525
2389.16188	31139.625
2391.97011	31151.925
2394.77657	31091.825
2397.58125	31043.425
2400.38416	30984.625
2403.18529	31012.325
2405.98466	30930.925
2408.78226	30859.725
2411.57809	30822.925
2414.37216	30737.525
2417.16446	30728.225
2419.955	30680.425
2422.74378	30658.425
2425.5308	30575.825
2428.31606	30559.625
2431.09956	30606.125
2433.88131	30553.025
2436.6613	30553.225
2439.43954	30588.625
2442.21603	30544.725
2444.99077	30558.325
2447.76377	30563.725
2450.53501	30503.425
2453.30451	30550.225
2456.07226	30480.725
2458.83827	30465.425
2461.60254	30567.725
2464.36507	30519.625
2467.12586	30462.925
2469.88492	30512.925
2472.64224	30541.025
2475.39782	30570.825
2478.15167	30636.725
2480.90379	30662.425
2483.65417	30792.725
2486.40283	30843.025
2489.14976	30888.425
2491.89497	30915.025
2494.63845	30988.325
2497.3802	30949.325
2500.12024	30927.025
2502.85855	30942.125
2505.59514	30896.925
2508.33002	30852.225
2511.06318	30806.425
2513.79462	30740.225
2516.52435	30701.825
2519.25237	30715.925
2521.97867	30691.025
2524.70327	30708.625
2527.42616	30664.925
2530.14734	30683.525
2532.86681	30733.625
2535.58458	30736.525
2538.30065	30717.825
2541.01501	30748.725
2543.72768	30723.925
2546.43864	30699.525
2549.14791	30599.725
2551.85548	30630.825
2554.56136	30556.825
2557.26554	30542.925
2559.96803	30591.925
2562.66883	30545.225
2565.36794	30520.725
2568.06536	30533.225
2570.7611	30548.825
2573.45514	30549.925
2576.14751	30561.125
2578.83819	30518.025
2581.52719	30532.125
2584.21451	30545.125
2586.90015	30621.425
2589.58411	30587.425
2592.2664	30614.525
2594.94701	30692.825
2597.62594	30708.425
2600.30321	30612.725
2602.9788	30612.925
2605.65273	30514.825
2608.32498	30577.025
2610.99557	30615.225
2613.66449	30624.425
2616.33175	30663.725
2618.99734	30637.125
2621.66128	30636.525
2624.32355	30712.525
2626.98416	30745.425
2629.64311	30717.725
2632.30041	30727.725
2634.95605	30702.425
2637.61004	30646.025
2640.26238	30709.625
2642.91306	30713.425
2645.56209	30624.125
2648.20948	30582.125
2650.85521	30526.525
2653.4993	30550.125
2656.14175	30515.325
2658.78255	30562.225
2661.42171	30630.125
2664.05923	30674.225
2666.6951	30694.025
2669.32934	30686.525
2671.96194	30697.525
2674.59291	30702.925
2677.22224	30681.625
2679.84993	30702.925
2682.476	30691.025
2685.10043	30669.025
2687.72324	30552.725
2690.34441	30598.325
2692.96396	30570.925
2695.58188	30513.425
2698.19818	30452.825
2700.81285	30454.225
2703.4259	30509.425
2706.03733	30541.525
2708.64714	30610.925
2711.25533	30611.625
2713.86191	30571.325
2716.46687	30611.125
2719.07021	30632.725
2721.67194	30618.625
2724.27206	30663.325
2726.87057	30700.825
2729.46747	30715.225
2732.06276	30754.725
2734.65644	30719.625
2737.24852	30700.625
2739.83899	30662.425
2742.42786	30643.925
2745.01513	30579.225
2747.60079	30626.825
2750.18486	30676.725
2752.76733	30680.625
2755.3482	30666.425
2757.92747	30631.725
2760.50515	30599.325
2763.08123	30616.325
2765.65573	30536.325
2768.22863	30583.225
2770.79994	30580.925
2773.36967	30648.925
2775.9378	30589.325
2778.50435	30545.425
2781.06932	30571.125
2783.6327	30596.625
2786.1945	30605.525
2788.75471	30609.025
2791.31335	30490.925
2793.87041	30459.025
2796.42589	30418.425
2798.97979	30409.525
2801.53212	30418.225
2804.08288	30373.025
2806.63206	30327.925
2809.17967	30279.525
2811.72571	30204.025
2814.27018	30176.325
2816.81308	30124.525
2819.35442	30146.825
2821.89419	30103.225
2824.43239	30107.425
2826.96904	30066.025
2829.50412	30091.725
2832.03763	30033.125
2834.56959	29995.025
2837.1	30010.025
2839.62884	30052.225
2842.15613	29994.325
2844.68186	29957.725
2847.20604	29853.725
2849.72867	29927.825
2852.24974	29886.325
2854.76927	29845.125
2857.28724	29836.025
2859.80367	29856.225
2862.31855	29841.325
2864.83189	29816.925
2867.34368	29798.925
2869.85393	29844.625
2872.36264	29755.525
2874.8698	29715.525
2877.37543	29801.125
2879.87952	29812.725
2882.38207	29852.525
2884.88308	29801.325
2887.38256	29860.625
2889.88051	29814.425
2892.37692	29875.325
2894.8718	29867.225
2897.36515	29945.325
2899.85698	29882.825
2902.34727	29936.525
2904.83604	30001.625
2907.32328	30099.325
2909.809	30086.925
2912.29319	30143.325
2914.77587	30101.625
2917.25702	30132.825
2919.73665	30115.425
2922.21476	30082.125
2924.69136	30044.825
2927.16644	30009.225
2929.64	29927.425
2932.11205	29939.525
2934.58258	29800.525
2937.05161	29849.725
2939.51912	29844.225
2941.98513	29854.325
2944.44962	29807.625
2946.91261	29706.425
2949.37409	29776.725
2951.83407	29773.425
2954.29254	29806.825
2956.74951	29786.625
2959.20498	29783.025
2961.65895	29830.525
2964.11142	29826.925
2966.56239	29749.325
2969.01186	29685.025
2971.45984	29609.825
2973.90632	29598.825
2976.35131	29511.025
2978.7948	29414.725
2981.23681	29424.025
2983.67732	29407.225
2986.11635	29416.425
2988.55388	29294.425
2990.98993	29271.925
2993.4245	29212.125
2995.85758	29151.025
2998.28917	29066.625
3000.71928	29016.325
3003.14791	28960.525
3005.57506	28923.425
3008.00073	28778.925
3010.42493	28782.125
3012.84764	28770.125
3015.26888	28743.025
3017.68865	28632.825
3020.10694	28673.225
3022.52376	28603.525
3024.9391	28535.025
3027.35298	28510.825
3029.76539	28527.925
3032.17632	28518.325
3034.5858	28522.325
3036.9938	28546.625
3039.40034	28491.125
3041.80542	28458.025
3044.20903	28427.425
3046.61118	28418.225
3049.01187	28355.225
3051.4111	28320.925
3053.80888	28238.025
3056.20519	28287.125
3058.60005	28171.125
3060.99345	28125.325
3063.3854	28025.625
3065.7759	27919.425
3068.16494	27863.625
3070.55254	27783.525
3072.93868	27738.925
3075.32338	27647.725
3077.70662	27611.625
3080.08842	27518.825
3082.46878	27547.825
3084.84769	27462.025
3087.22515	27488.925
3089.60118	27511.825
3091.97576	27486.925
3094.3489	27506.125
3096.72061	27494.525
3099.09087	27490.325
3101.4597	27480.125
3103.82709	27520.225
3106.19305	27472.125
3108.55757	27432.325
3110.92066	27347.525
3113.28232	27358.625
3115.64255	27319.425
3118.00134	27240.025
3120.35871	27255.125
3122.71466	27140.225
3125.06917	27111.225
3127.42226	27084.725
3129.77393	27096.225
3132.12417	27030.825
3134.47299	27063.625
3136.82039	27015.825
3139.16636	27004.425
3141.51092	26949.025
3143.85406	26974.825
3146.19579	26940.925
3148.53609	26946.125
3150.87499	27019.325
3153.21246	26945.825
3155.54853	26970.125
3157.88318	26914.225
3160.21642	26981.325
3162.54826	26994.825
3164.87868	27029.325
3167.2077	27068.925
3169.5353	27018.525
3171.86151	26986.425
3174.18631	26897.925
3176.5097	26913.225
3178.83169	26968.825
3181.15228	26974.125
3183.47147	26904.725
3185.78926	26861.425
3188.10565	26899.025
3190.42065	26846.525
3192.73424	26863.225
3195.04645	26791.625
3197.35725	26784.525
3199.66667	26774.125
3201.97469	26767.625
3204.28132	26784.625
3206.58656	26795.625
3208.8904	26800.425
3211.19287	26770.325
3213.49394	26772.525
3215.79363	26824.225
3218.09193	26890.425
3220.38884	26844.425
3222.68438	26850.525
3224.97853	26902.725
3227.2713	26897.525
3229.56269	26908.025
3231.8527	26916.725
3234.14133	26878.625
3236.42858	26837.125
3238.71446	26806.125
3240.99896	26742.125
3243.28209	26759.925
3245.56384	26679.725
3247.84423	26666.425
3250.12324	26671.225
3252.40088	26618.125
3254.67715	26586.025
3256.95205	26572.425
3259.22558	26570.225
3261.49775	26556.125
3263.76855	26597.625
3266.03799	26519.325
3268.30606	26540.225
3270.57277	26530.025
3272.83812	26473.325
3275.10211	26382.125
3277.36474	26367.525
3279.62601	26325.125
3281.88593	26354.825
3284.14448	26403.425
3286.40168	26436.525
3288.65753	26420.225
3290.91202	26393.725
3293.16516	26324.425
3295.41695	26356.325
3297.66738	26231.225
3299.91647	26100.525
3302.16421	25926.825
3304.4106	25833.925
3306.65564	25742.225
3308.89933	25556.625
3311.14169	25371.025
3313.38269	25206.625
3315.62236	25096.225
3317.86068	24917.725
3320.09766	24751.525
3322.3333	24609.625
3324.5676	24524.525
3326.80056	24219.225
3329.03219	24131.925
3331.26248	6.025
3333.49143	0.125
3335.71905	1.825
