Data from AgNPs_UA_200uM_CRN_0uM_R6G_10uM_Q_RamanShift__18__14-20-54-158.txt Node

Date: Tue Jul 26 14:20:54 BST 2022
User: TCL
Spectrometer: QEP01345
Trigger mode: 4
Integration Time (sec): 7.000000E0
Scans to average: 10
Electric dark correction enabled: true
Nonlinearity correction enabled: false
Boxcar width: 0
XAxis mode: Raman Shifts
Number of Pixels in Spectrum: 1044
>>>>>Begin Spectral Data<<<<<
46.04893	-0.4625
50.45542	1.0375
54.85868	-1.1625
59.25871	-0.5625
63.6555	42.8375
68.04907	48.1375
72.43941	52.8375
76.82654	53.5375
81.21044	55.8375
85.59113	61.0375
89.96862	61.8375
94.34289	62.1375
98.71396	66.6375
103.08183	66.5375
107.4465	69.4375
111.80798	65.2375
116.16626	67.2375
120.52136	68.4375
124.87327	70.7375
129.222	71.0375
133.56755	72.2375
137.90993	74.4375
142.24913	77.6375
146.58517	82.2375
150.91804	84.4375
155.24774	93.4375
159.57429	106.7375
163.89768	129.7375
168.21792	159.7375
172.53501	204.1375
176.84895	269.9375
181.15975	370.5375
185.46741	511.3375
189.77193	694.4375
194.07331	910.5375
198.37157	1179.4375
202.6667	1451.6375
206.9587	1719.7375
211.24758	1989.6375
215.53334	2268.7375
219.81599	2560.7375
224.09553	2871.8375
228.37195	3237.5375
232.64527	3617.6375
236.91549	4008.2375
241.18261	4381.1375
245.44663	4728.4375
249.70755	5021.3375
253.96539	5268.7375
258.22014	5474.8375
262.4718	5632.0375
266.72039	5707.8375
270.96589	5742.0375
275.20832	5722.7375
279.44768	5638.9375
283.68397	5548.6375
287.91719	5440.9375
292.14735	5391.4375
296.37445	5386.3375
300.59849	5410.2375
304.81948	5468.5375
309.03742	5496.6375
313.25231	5465.0375
317.46415	5356.1375
321.67296	5254.6375
325.87872	5143.0375
330.08145	5117.7375
334.28114	5131.7375
338.47781	5193.1375
342.67145	5278.7375
346.86207	5387.9375
351.04966	5510.0375
355.23424	5672.5375
359.4158	5830.1375
363.59435	5939.0375
367.76989	5996.2375
371.94243	6077.0375
376.11196	6107.5375
380.27849	6171.8375
384.44203	6213.3375
388.60257	6241.3375
392.76012	6267.7375
396.91468	6326.4375
401.06626	6389.4375
405.21485	6459.7375
409.36047	6412.0375
413.50311	6339.2375
417.64277	6234.9375
421.77947	6185.7375
425.9132	6146.9375
430.04396	6143.1375
434.17176	6184.9375
438.2966	6270.3375
442.41849	6338.7375
446.53742	6446.8375
450.6534	6540.6375
454.76644	6646.2375
458.87653	6681.0375
462.98368	6698.0375
467.08789	6688.9375
471.18916	6648.9375
475.2875	6565.4375
479.38291	6538.6375
483.4754	6503.7375
487.56496	6490.4375
491.6516	6518.5375
495.73531	6483.3375
499.81612	6519.4375
503.89401	6538.5375
507.96899	6569.4375
512.04106	6561.7375
516.11023	6606.1375
520.1765	6644.2375
524.23987	6659.2375
528.30034	6665.7375
532.35792	6647.0375
536.41261	6623.3375
540.46441	6580.7375
544.51333	6552.5375
548.55936	6563.5375
552.60252	6621.6375
556.64279	6702.0375
560.6802	6732.9375
564.71473	6780.9375
568.7464	6827.6375
572.7752	6848.6375
576.80114	6785.0375
580.82422	6767.5375
584.84444	6793.6375
588.86181	6847.7375
592.87633	6915.8375
596.888	6997.7375
600.89682	7136.0375
604.9028	7594.2375
608.90594	8501.2375
612.90624	9368.3375
616.90371	8941.3375
620.89834	7725.2375
624.89015	7251.0375
628.87913	7261.1375
632.86528	7399.3375
636.84862	7447.5375
640.82913	7399.9375
644.80683	7200.9375
648.78172	7030.0375
652.75379	6990.7375
656.72306	7073.4375
660.68952	7208.2375
664.65319	7189.1375
668.61405	7121.5375
672.57211	7129.1375
676.52738	7128.3375
680.47986	7097.3375
684.42955	7075.6375
688.37646	7081.9375
692.32058	7103.1375
696.26192	7122.3375
700.20048	7153.7375
704.13626	7123.3375
708.06928	7064.9375
711.99952	7012.4375
715.927	7005.3375
719.85171	7022.1375
723.77365	7031.9375
727.69284	7038.7375
731.60928	7057.6375
735.52295	7044.0375
739.43388	7010.3375
743.34206	7018.4375
747.24749	6996.6375
751.15017	6998.3375
755.05012	7004.8375
758.94733	7144.1375
762.8418	7427.7375
766.73354	7922.7375
770.62254	8401.1375
774.50882	8680.9375
778.39237	8571.7375
782.27321	8095.5375
786.15132	7622.7375
790.02671	7328.4375
793.89938	7177.7375
797.76935	7132.3375
801.6366	7099.1375
805.50115	7099.9375
809.36299	7105.3375
813.22213	7092.5375
817.07857	7094.0375
820.93231	7053.8375
824.78336	6995.6375
828.63172	6977.0375
832.47738	6983.1375
836.32036	6949.2375
840.16066	6965.4375
843.99827	6974.9375
847.8332	6963.6375
851.66546	6960.0375
855.49504	6980.6375
859.32195	6970.8375
863.1462	6974.4375
866.96777	6982.1375
870.78668	7000.5375
874.60293	7011.3375
878.41652	7061.1375
882.22745	7091.6375
886.03573	7141.8375
889.84136	7161.0375
893.64433	7122.4375
897.44466	7096.2375
901.24235	7050.4375
905.0374	6994.4375
908.8298	6979.3375
912.61957	6941.3375
916.40671	6944.4375
920.19121	6965.2375
923.97308	6994.8375
927.75233	7023.2375
931.52895	7039.0375
935.30295	7027.2375
939.07433	6968.1375
942.84309	6919.5375
946.60924	6908.7375
950.37278	6910.7375
954.13371	6902.7375
957.89203	6854.1375
961.64774	6859.4375
965.40086	6839.1375
969.15137	6829.8375
972.89929	6811.8375
976.64461	6802.2375
980.38733	6811.0375
984.12747	6842.0375
987.86502	6871.3375
991.59999	6929.5375
995.33237	7016.9375
999.06217	7146.5375
1002.78939	7261.6375
1006.51404	7345.4375
1010.23611	7405.2375
1013.95561	7458.4375
1017.67255	7516.0375
1021.38692	7493.0375
1025.09872	7466.6375
1028.80796	7474.0375
1032.51465	7549.6375
1036.21877	7618.5375
1039.92035	7611.2375
1043.61937	7532.5375
1047.31584	7461.3375
1051.00976	7351.1375
1054.70114	7325.2375
1058.38998	7322.7375
1062.07627	7370.5375
1065.76003	7378.9375
1069.44126	7414.7375
1073.11995	7484.1375
1076.79611	7558.3375
1080.46974	7653.3375
1084.14085	7681.6375
1087.80943	7739.3375
1091.47549	7729.8375
1095.13903	7689.2375
1098.80005	7632.0375
1102.45857	7607.2375
1106.11456	7616.0375
1109.76805	7623.8375
1113.41903	7680.1375
1117.06751	7759.5375
1120.71348	7892.3375
1124.35696	8050.5375
1127.99793	8201.0375
1131.63641	8256.6375
1135.2724	8172.8375
1138.90589	8089.1375
1142.5369	7961.5375
1146.16542	7835.5375
1149.79145	7706.5375
1153.415	7614.0375
1157.03607	7587.3375
1160.65467	7615.0375
1164.27079	7717.8375
1167.88443	7902.7375
1171.49561	8159.1375
1175.10432	8571.7375
1178.71056	9117.2375
1182.31434	9625.2375
1185.91565	9897.6375
1189.51451	9894.0375
1193.11091	9663.4375
1196.70485	9376.7375
1200.29634	9132.7375
1203.88538	8909.0375
1207.47197	8680.0375
1211.05612	8453.0375
1214.63782	8268.9375
1218.21708	8174.5375
1221.79391	8120.6375
1225.36829	8125.9375
1228.94024	8089.4375
1232.50976	8043.9375
1236.07685	8026.5375
1239.6415	8002.7375
1243.20374	8020.5375
1246.76355	8061.2375
1250.32093	8139.1375
1253.8759	8231.7375
1257.42845	8377.2375
1260.97859	8514.5375
1264.52631	8688.8375
1268.07163	8826.9375
1271.61453	8971.5375
1275.15503	9090.5375
1278.69312	9158.5375
1282.22882	9243.1375
1285.76211	9267.7375
1289.29301	9357.1375
1292.82151	9460.8375
1296.34761	9660.4375
1299.87133	9973.0375
1303.39266	10463.0375
1306.9116	11148.6375
1310.42815	11810.3375
1313.94233	12119.0375
1317.45412	11960.8375
1320.96354	11536.3375
1324.47058	11039.0375
1327.97525	10598.0375
1331.47754	10301.0375
1334.97747	10187.4375
1338.47502	10252.4375
1341.97022	10431.4375
1345.46305	10712.4375
1348.95352	11093.4375
1352.44163	11513.3375
1355.92738	12046.7375
1359.41078	12812.0375
1362.89183	13410.1375
1366.37053	13010.1375
1369.84688	11760.4375
1373.32088	10647.7375
1376.79254	9943.0375
1380.26186	9557.7375
1383.72883	9288.3375
1387.19347	9064.9375
1390.65578	8849.4375
1394.11575	8681.0375
1397.57339	8558.7375
1401.0287	8512.3375
1404.48168	8503.2375
1407.93234	8484.0375
1411.38068	8522.0375
1414.82669	8505.0375
1418.27039	8455.0375
1421.71177	8403.5375
1425.15083	8357.4375
1428.58758	8295.5375
1432.02203	8348.7375
1435.45416	8393.5375
1438.88399	8421.1375
1442.31151	8402.5375
1445.73673	8394.5375
1449.15965	8431.4375
1452.58027	8410.5375
1455.9986	8375.4375
1459.41463	8405.2375
1462.82837	8470.5375
1466.23982	8590.2375
1469.64898	8710.9375
1473.05586	8819.8375
1476.46045	8897.5375
1479.86276	8941.7375
1483.26279	9017.1375
1486.66054	9090.9375
1490.05602	9203.0375
1493.44922	9382.8375
1496.84016	9688.2375
1500.22882	10180.8375
1503.61521	10850.7375
1506.99934	11504.7375
1510.38121	11857.2375
1513.76081	11781.6375
1517.13816	11223.6375
1520.51324	10482.2375
1523.88607	9834.6375
1527.25665	9400.9375
1530.62498	9181.0375
1533.99105	9078.8375
1537.35488	9021.4375
1540.71647	8970.0375
1544.07581	8935.9375
1547.4329	8908.2375
1550.78776	8892.6375
1554.14038	8881.4375
1557.49077	8894.7375
1560.83892	8935.2375
1564.18484	9025.2375
1567.52853	9128.0375
1570.86999	9237.2375
1574.20922	9309.4375
1577.54624	9269.7375
1580.88103	9084.7375
1584.2136	8818.8375
1587.54395	8754.7375
1590.87208	8865.5375
1594.19801	9166.0375
1597.52172	9546.8375
1600.84321	9756.9375
1604.16251	9619.1375
1607.47959	9300.2375
1610.79447	8940.1375
1614.10715	8557.9375
1617.41763	8231.9375
1620.7259	7999.3375
1624.03199	7884.2375
1627.33587	7845.9375
1630.63757	7922.2375
1633.93707	8154.0375
1637.23439	8470.4375
1640.52951	8942.9375
1643.82246	9522.3375
1647.11321	10078.1375
1650.40179	10285.3375
1653.68819	9924.3375
1656.97241	9167.8375
1660.25446	8450.8375
1663.53433	7901.9375
1666.81203	7596.8375
1670.08756	7376.7375
1673.36092	7260.8375
1676.63211	7186.6375
1679.90115	7108.0375
1683.16801	7065.2375
1686.43272	7017.0375
1689.69527	6964.2375
1692.95567	6917.8375
1696.2139	6868.2375
1699.46999	6823.8375
1702.72392	6783.0375
1705.97571	6730.9375
1709.22535	6701.1375
1712.47284	6674.7375
1715.71819	6668.6375
1718.96139	6639.3375
1722.20246	6605.3375
1725.44139	6578.1375
1728.67818	6533.5375
1731.91284	6491.8375
1735.14537	6445.6375
1738.37576	6416.0375
1741.60403	6396.2375
1744.83017	6376.5375
1748.05418	6342.6375
1751.27607	6333.6375
1754.49584	6321.1375
1757.71349	6335.9375
1760.92903	6303.8375
1764.14244	6315.8375
1767.35375	6310.2375
1770.56294	6274.9375
1773.77002	6273.0375
1776.97499	6268.2375
1780.17785	6280.1375
1783.37861	6246.7375
1786.57727	6229.4375
1789.77382	6214.3375
1792.96828	6186.7375
1796.16064	6198.5375
1799.3509	6202.9375
1802.53907	6194.6375
1805.72514	6173.8375
1808.90913	6162.4375
1812.09102	6138.8375
1815.27083	6135.2375
1818.44856	6118.8375
1821.6242	6105.5375
1824.79776	6100.6375
1827.96924	6107.6375
1831.13864	6085.6375
1834.30597	6085.6375
1837.47122	6074.2375
1840.6344	6063.9375
1843.7955	6054.0375
1846.95454	6044.9375
1850.11151	6056.4375
1853.26642	6034.2375
1856.41926	6037.8375
1859.57004	6032.1375
1862.71876	6034.9375
1865.86542	6029.8375
1869.01003	6023.9375
1872.15258	6007.5375
1875.29308	6013.4375
1878.43152	5992.0375
1881.56792	5996.4375
1884.70227	5991.7375
1887.83457	5975.8375
1890.96482	5982.4375
1894.09304	5975.5375
1897.21921	5989.9375
1900.34335	5966.6375
1903.46544	5948.6375
1906.58551	5977.8375
1909.70353	5962.2375
1912.81953	5933.9375
1915.93349	5946.7375
1919.04543	5947.9375
1922.15534	5929.3375
1925.26322	5919.6375
1928.36908	5905.9375
1931.47292	5917.6375
1934.57473	5896.3375
1937.67453	5860.7375
1940.77232	5883.3375
1943.86808	5830.4375
1946.96184	5827.5375
1950.05358	5824.8375
1953.14331	5814.5375
1956.23103	5775.8375
1959.31675	5770.4375
1962.40046	5770.7375
1965.48217	5744.5375
1968.56188	5737.8375
1971.63959	5701.0375
1974.7153	5679.5375
1977.78901	5695.3375
1980.86073	5668.7375
1983.93046	5659.7375
1986.99819	5639.9375
1990.06394	5612.8375
1993.1277	5609.4375
1996.18947	5586.6375
1999.24925	5585.3375
2002.30706	5553.0375
2005.36288	5540.9375
2008.41672	5533.2375
2011.46859	5536.1375
2014.51848	5499.0375
2017.56639	5494.7375
2020.61233	5481.0375
2023.6563	5470.5375
2026.6983	5453.1375
2029.73833	5447.8375
2032.7764	5425.8375
2035.8125	5436.6375
2038.84664	5412.1375
2041.87881	5403.5375
2044.90903	5392.9375
2047.93729	5388.9375
2050.96359	5380.0375
2053.98794	5373.7375
2057.01034	5379.9375
2060.03078	5366.2375
2063.04927	5389.0375
2066.06582	5359.1375
2069.08042	5355.9375
2072.09307	5354.2375
2075.10378	5352.1375
2078.11255	5348.1375
2081.11938	5349.4375
2084.12426	5343.8375
2087.12722	5346.8375
2090.12824	5351.1375
2093.12732	5342.8375
2096.12447	5348.9375
2099.11969	5338.7375
2102.11299	5351.7375
2105.10435	5359.7375
2108.09379	5351.7375
2111.08131	5369.9375
2114.0669	5340.0375
2117.05057	5359.8375
2120.03233	5380.2375
2123.01216	5387.2375
2125.99008	5387.4375
2128.96609	5372.7375
2131.94018	5388.1375
2134.91236	5393.8375
2137.88263	5398.0375
2140.851	5400.4375
2143.81746	5410.4375
2146.78201	5398.2375
2149.74466	5419.5375
2152.7054	5414.0375
2155.66425	5401.1375
2158.6212	5406.8375
2161.57625	5414.8375
2164.52941	5393.9375
2167.48067	5387.1375
2170.43004	5405.7375
2173.37752	5414.6375
2176.32311	5400.3375
2179.26681	5410.1375
2182.20863	5408.2375
2185.14856	5398.2375
2188.08661	5416.8375
2191.02278	5402.5375
2193.95707	5386.7375
2196.88948	5403.3375
2199.82001	5396.8375
2202.74867	5397.8375
2205.67545	5405.7375
2208.60037	5394.8375
2211.52341	5373.0375
2214.44458	5368.6375
2217.36388	5362.2375
2220.28132	5365.6375
2223.1969	5349.6375
2226.11061	5319.4375
2229.02246	5328.9375
2231.93245	5307.9375
2234.84058	5317.0375
2237.74686	5300.9375
2240.65128	5309.5375
2243.55385	5288.2375
2246.45456	5283.2375
2249.35343	5270.3375
2252.25044	5274.6375
2255.14561	5266.4375
2258.03893	5271.2375
2260.93041	5254.9375
2263.82004	5251.6375
2266.70783	5235.1375
2269.59378	5205.6375
2272.4779	5220.0375
2275.36017	5204.0375
2278.24061	5187.1375
2281.11922	5198.1375
2283.996	5178.3375
2286.87094	5175.1375
2289.74405	5171.4375
2292.61534	5143.1375
2295.4848	5154.2375
2298.35243	5163.2375
2301.21824	5147.2375
2304.08223	5158.7375
2306.94439	5143.8375
2309.80474	5151.0375
2312.66327	5136.1375
2315.51999	5132.9375
2318.37489	5138.6375
2321.22797	5137.3375
2324.07925	5131.3375
2326.92871	5121.2375
2329.77637	5106.9375
2332.62222	5103.2375
2335.46626	5111.3375
2338.3085	5078.7375
2341.14893	5081.7375
2343.98756	5107.6375
2346.8244	5095.6375
2349.65943	5094.0375
2352.49267	5091.2375
2355.32411	5087.7375
2358.15376	5102.5375
2360.98161	5092.2375
2363.80768	5097.8375
2366.63195	5069.6375
2369.45444	5081.6375
2372.27514	5055.7375
2375.09405	5042.7375
2377.91118	5040.5375
2380.72652	5038.9375
2383.54009	5028.8375
2386.35187	5036.2375
2389.16188	5004.3375
2391.97011	5013.9375
2394.77657	5002.2375
2397.58125	4989.1375
2400.38416	4989.7375
2403.18529	4983.9375
2405.98466	4959.9375
2408.78226	4955.8375
2411.57809	4952.7375
2414.37216	4958.9375
2417.16446	4953.5375
2419.955	4928.7375
2422.74378	4933.1375
2425.5308	4937.2375
2428.31606	4923.2375
2431.09956	4930.7375
2433.88131	4931.3375
2436.6613	4909.8375
2439.43954	4923.3375
2442.21603	4919.7375
2444.99077	4904.7375
2447.76377	4906.5375
2450.53501	4912.1375
2453.30451	4899.6375
2456.07226	4898.8375
2458.83827	4868.9375
2461.60254	4888.3375
2464.36507	4873.1375
2467.12586	4873.2375
2469.88492	4876.5375
2472.64224	4889.4375
2475.39782	4888.3375
2478.15167	4886.7375
2480.90379	4873.6375
2483.65417	4876.8375
2486.40283	4893.9375
2489.14976	4884.8375
2491.89497	4881.7375
2494.63845	4900.9375
2497.3802	4887.5375
2500.12024	4888.2375
2502.85855	4871.5375
2505.59514	4859.9375
2508.33002	4866.9375
2511.06318	4838.1375
2513.79462	4852.8375
2516.52435	4839.0375
2519.25237	4825.2375
2521.97867	4817.3375
2524.70327	4815.6375
2527.42616	4807.7375
2530.14734	4807.4375
2532.86681	4813.8375
2535.58458	4813.0375
2538.30065	4809.8375
2541.01501	4810.5375
2543.72768	4791.6375
2546.43864	4789.0375
2549.14791	4779.7375
2551.85548	4768.3375
2554.56136	4778.7375
2557.26554	4782.2375
2559.96803	4762.8375
2562.66883	4750.5375
2565.36794	4737.4375
2568.06536	4746.1375
2570.7611	4740.7375
2573.45514	4741.9375
2576.14751	4728.0375
2578.83819	4714.2375
2581.52719	4708.4375
2584.21451	4694.0375
2586.90015	4699.0375
2589.58411	4706.9375
2592.2664	4708.3375
2594.94701	4685.0375
2597.62594	4675.4375
2600.30321	4670.6375
2602.9788	4669.7375
2605.65273	4660.9375
2608.32498	4660.7375
2610.99557	4664.3375
2613.66449	4677.1375
2616.33175	4658.1375
2618.99734	4645.7375
2621.66128	4641.9375
2624.32355	4657.7375
2626.98416	4636.0375
2629.64311	4647.3375
2632.30041	4639.2375
2634.95605	4630.8375
2637.61004	4635.1375
2640.26238	4622.8375
2642.91306	4610.4375
2645.56209	4616.6375
2648.20948	4599.7375
2650.85521	4618.7375
2653.4993	4610.7375
2656.14175	4604.7375
2658.78255	4625.0375
2661.42171	4614.6375
2664.05923	4610.1375
2666.6951	4617.7375
2669.32934	4615.2375
2671.96194	4622.3375
2674.59291	4622.2375
2677.22224	4622.9375
2679.84993	4626.4375
2682.476	4617.0375
2685.10043	4603.1375
2687.72324	4607.7375
2690.34441	4594.0375
2692.96396	4593.8375
2695.58188	4595.3375
2698.19818	4587.7375
2700.81285	4619.0375
2703.4259	4584.5375
2706.03733	4586.1375
2708.64714	4578.0375
2711.25533	4604.7375
2713.86191	4602.1375
2716.46687	4590.9375
2719.07021	4603.7375
2721.67194	4612.8375
2724.27206	4598.4375
2726.87057	4620.5375
2729.46747	4604.6375
2732.06276	4612.7375
2734.65644	4610.9375
2737.24852	4626.1375
2739.83899	4619.6375
2742.42786	4612.4375
2745.01513	4603.6375
2747.60079	4597.4375
2750.18486	4578.4375
2752.76733	4568.8375
2755.3482	4560.7375
2757.92747	4586.1375
2760.50515	4557.3375
2763.08123	4554.1375
2765.65573	4554.4375
2768.22863	4562.8375
2770.79994	4546.1375
2773.36967	4555.1375
2775.9378	4550.2375
2778.50435	4558.6375
2781.06932	4556.1375
2783.6327	4519.0375
2786.1945	4541.1375
2788.75471	4532.0375
2791.31335	4511.1375
2793.87041	4526.9375
2796.42589	4498.6375
2798.97979	4502.7375
2801.53212	4502.3375
2804.08288	4506.0375
2806.63206	4477.1375
2809.17967	4467.9375
2811.72571	4465.8375
2814.27018	4468.4375
2816.81308	4444.3375
2819.35442	4442.6375
2821.89419	4429.4375
2824.43239	4444.0375
2826.96904	4418.2375
2829.50412	4413.4375
2832.03763	4401.4375
2834.56959	4407.6375
2837.1	4419.8375
2839.62884	4405.9375
2842.15613	4399.9375
2844.68186	4407.1375
2847.20604	4389.6375
2849.72867	4401.2375
2852.24974	4388.2375
2854.76927	4394.9375
2857.28724	4389.3375
2859.80367	4384.7375
2862.31855	4384.6375
2864.83189	4379.7375
2867.34368	4378.7375
2869.85393	4363.6375
2872.36264	4352.4375
2874.8698	4349.3375
2877.37543	4366.3375
2879.87952	4365.0375
2882.38207	4365.0375
2884.88308	4353.5375
2887.38256	4362.8375
2889.88051	4367.2375
2892.37692	4357.7375
2894.8718	4362.1375
2897.36515	4370.6375
2899.85698	4383.1375
2902.34727	4382.6375
2904.83604	4371.2375
2907.32328	4394.6375
2909.809	4404.9375
2912.29319	4408.2375
2914.77587	4401.0375
2917.25702	4395.7375
2919.73665	4384.8375
2922.21476	4394.3375
2924.69136	4378.3375
2927.16644	4373.6375
2929.64	4389.0375
2932.11205	4384.0375
2934.58258	4369.6375
2937.05161	4383.6375
2939.51912	4377.0375
2941.98513	4371.1375
2944.44962	4354.5375
2946.91261	4351.6375
2949.37409	4352.6375
2951.83407	4359.2375
2954.29254	4363.7375
2956.74951	4364.6375
2959.20498	4360.2375
2961.65895	4366.9375
2964.11142	4362.6375
2966.56239	4355.6375
2969.01186	4363.4375
2971.45984	4350.1375
2973.90632	4366.2375
2976.35131	4366.9375
2978.7948	4358.3375
2981.23681	4335.9375
2983.67732	4343.1375
2986.11635	4332.6375
2988.55388	4324.5375
2990.98993	4312.7375
2993.4245	4312.7375
2995.85758	4307.4375
2998.28917	4294.2375
3000.71928	4288.4375
3003.14791	4289.8375
3005.57506	4280.3375
3008.00073	4281.2375
3010.42493	4286.3375
3012.84764	4270.4375
3015.26888	4282.4375
3017.68865	4247.6375
3020.10694	4255.8375
3022.52376	4255.6375
3024.9391	4252.2375
3027.35298	4251.8375
3029.76539	4250.5375
3032.17632	4242.6375
3034.5858	4226.7375
3036.9938	4229.8375
3039.40034	4226.7375
3041.80542	4243.9375
3044.20903	4218.9375
3046.61118	4253.4375
3049.01187	4221.8375
3051.4111	4228.2375
3053.80888	4217.8375
3056.20519	4222.5375
3058.60005	4218.3375
3060.99345	4207.4375
3063.3854	4204.4375
3065.7759	4183.9375
3068.16494	4179.7375
3070.55254	4171.7375
3072.93868	4177.3375
3075.32338	4170.3375
3077.70662	4178.3375
3080.08842	4151.6375
3082.46878	4179.2375
3084.84769	4172.4375
3087.22515	4170.1375
3089.60118	4181.5375
3091.97576	4163.5375
3094.3489	4194.3375
3096.72061	4188.4375
3099.09087	4196.3375
3101.4597	4193.6375
3103.82709	4200.3375
3106.19305	4199.3375
3108.55757	4201.0375
3110.92066	4195.7375
3113.28232	4210.4375
3115.64255	4195.6375
3118.00134	4191.5375
3120.35871	4195.2375
3122.71466	4186.0375
3125.06917	4202.2375
3127.42226	4179.0375
3129.77393	4181.5375
3132.12417	4203.5375
3134.47299	4189.6375
3136.82039	4192.0375
3139.16636	4188.1375
3141.51092	4193.4375
3143.85406	4195.9375
3146.19579	4208.7375
3148.53609	4221.7375
3150.87499	4230.7375
3153.21246	4239.4375
3155.54853	4269.0375
3157.88318	4241.4375
3160.21642	4253.6375
3162.54826	4236.8375
3164.87868	4261.2375
3167.2077	4263.4375
3169.5353	4272.9375
3171.86151	4285.4375
3174.18631	4283.3375
3176.5097	4294.4375
3178.83169	4277.9375
3181.15228	4288.9375
3183.47147	4272.7375
3185.78926	4274.3375
3188.10565	4282.6375
3190.42065	4275.6375
3192.73424	4292.7375
3195.04645	4288.2375
3197.35725	4304.0375
3199.66667	4281.4375
3201.97469	4275.9375
3204.28132	4304.9375
3206.58656	4315.6375
3208.8904	4313.0375
3211.19287	4335.2375
3213.49394	4343.8375
3215.79363	4324.7375
3218.09193	4334.2375
3220.38884	4338.4375
3222.68438	4362.6375
3224.97853	4350.2375
3227.2713	4349.8375
3229.56269	4349.3375
3231.8527	4357.3375
3234.14133	4331.5375
3236.42858	4331.2375
3238.71446	4325.8375
3240.99896	4316.7375
3243.28209	4315.4375
3245.56384	4302.3375
3247.84423	4307.4375
3250.12324	4319.7375
3252.40088	4306.5375
3254.67715	4294.8375
3256.95205	4311.3375
3259.22558	4318.9375
3261.49775	4306.0375
3263.76855	4312.6375
3266.03799	4304.5375
3268.30606	4319.2375
3270.57277	4305.2375
3272.83812	4304.2375
3275.10211	4290.7375
3277.36474	4271.7375
3279.62601	4291.2375
3281.88593	4277.7375
3284.14448	4271.2375
3286.40168	4272.0375
3288.65753	4271.2375
3290.91202	4287.2375
3293.16516	4246.9375
3295.41695	4271.7375
3297.66738	4243.9375
3299.91647	4223.1375
3302.16421	4206.7375
3304.4106	4187.7375
3306.65564	4166.5375
3308.89933	4140.9375
3311.14169	4098.4375
3313.38269	4078.9375
3315.62236	4074.9375
3317.86068	4046.9375
3320.09766	4015.2375
3322.3333	3965.3375
3324.5676	3972.9375
3326.80056	3904.9375
3329.03219	3888.2375
3331.26248	1.0375
3333.49143	0.4375
3335.71905	-0.5625
