Data from AgNPs_UA_200uM_CRN_0uM_R6G_10uM_Q_RamanShift__29__14-33-44-173.txt Node

Date: Tue Jul 26 14:33:44 BST 2022
User: TCL
Spectrometer: QEP01345
Trigger mode: 4
Integration Time (sec): 7.000000E0
Scans to average: 10
Electric dark correction enabled: true
Nonlinearity correction enabled: false
Boxcar width: 0
XAxis mode: Raman Shifts
Number of Pixels in Spectrum: 1044
>>>>>Begin Spectral Data<<<<<
46.04893	-0.075
50.45542	-0.175
54.85868	-0.375
59.25871	0.425
63.6555	49.125
68.04907	52.725
72.43941	56.925
76.82654	55.925
81.21044	62.125
85.59113	62.325
89.96862	65.225
94.34289	67.425
98.71396	72.125
103.08183	71.625
107.4465	74.225
111.80798	72.325
116.16626	76.025
120.52136	77.625
124.87327	74.225
129.222	79.325
133.56755	80.325
137.90993	83.325
142.24913	86.225
146.58517	93.625
150.91804	100.525
155.24774	113.025
159.57429	132.625
163.89768	156.725
168.21792	207.325
172.53501	270.725
176.84895	361.725
181.15975	498.525
185.46741	687.725
189.77193	948.725
194.07331	1255.525
198.37157	1616.625
202.6667	2005.025
206.9587	2401.625
211.24758	2806.125
215.53334	3273.525
219.81599	3768.525
224.09553	4354.425
228.37195	4988.025
232.64527	5661.825
236.91549	6240.425
241.18261	6728.525
245.44663	7077.425
249.70755	7320.125
253.96539	7493.525
258.22014	7673.825
262.4718	7825.225
266.72039	7880.425
270.96589	7815.525
275.20832	7655.825
279.44768	7421.625
283.68397	7178.525
287.91719	7084.125
292.14735	7154.425
296.37445	7539.725
300.59849	8104.925
304.81948	8742.425
309.03742	9246.325
313.25231	9314.325
317.46415	8771.625
321.67296	7862.325
325.87872	7103.625
330.08145	6770.225
334.28114	6755.925
338.47781	6930.325
342.67145	7235.825
346.86207	7708.125
351.04966	8414.225
355.23424	9193.425
359.4158	9721.125
363.59435	9914.425
367.76989	9863.325
371.94243	9735.025
376.11196	9579.825
380.27849	9378.725
384.44203	9166.025
388.60257	8973.425
392.76012	8855.725
396.91468	8910.925
401.06626	9133.325
405.21485	9197.625
409.36047	8841.425
413.50311	8153.225
417.64277	7512.525
421.77947	7093.025
425.9132	6911.225
430.04396	6834.125
434.17176	6854.225
438.2966	7017.925
442.41849	7201.125
446.53742	7422.525
450.6534	7585.625
454.76644	7653.625
458.87653	7633.825
462.98368	7524.925
467.08789	7413.725
471.18916	7237.825
475.2875	7035.625
479.38291	6870.025
483.4754	6759.525
487.56496	6713.325
491.6516	6688.125
495.73531	6717.725
499.81612	6752.525
503.89401	6838.725
507.96899	6974.525
512.04106	7203.725
516.11023	7441.425
520.1765	7629.925
524.23987	7689.425
528.30034	7615.825
532.35792	7500.325
536.41261	7354.225
540.46441	7149.425
544.51333	7008.525
548.55936	7011.025
552.60252	7174.825
556.64279	7378.825
560.6802	7533.125
564.71473	7828.825
568.7464	8342.525
572.7752	8385.925
576.80114	7699.025
580.82422	7069.125
584.84444	6845.925
588.86181	6834.425
592.87633	6939.825
596.888	7133.225
600.89682	7712.025
604.9028	9469.525
608.90594	13847.225
612.90624	18640.625
616.90371	16962.525
620.89834	10931.325
624.89015	8461.225
628.87913	8203.125
632.86528	8512.925
636.84862	8681.925
640.82913	8344.525
644.80683	7644.025
648.78172	7157.325
652.75379	7125.825
656.72306	7518.925
660.68952	7944.325
664.65319	7634.725
668.61405	7039.825
672.57211	6767.125
676.52738	6715.725
680.47986	6678.825
684.42955	6590.525
688.37646	6589.825
692.32058	6604.825
696.26192	6661.725
700.20048	6774.725
704.13626	6802.325
708.06928	6742.325
711.99952	6671.025
715.927	6728.525
719.85171	6841.725
723.77365	6912.725
727.69284	6903.025
731.60928	6857.725
735.52295	6822.825
739.43388	6830.525
743.34206	6835.825
747.24749	6841.825
751.15017	6883.425
755.05012	7058.125
758.94733	7714.925
762.8418	9271.925
766.73354	11566.325
770.62254	13442.125
774.50882	14215.025
778.39237	13310.625
782.27321	11053.925
786.15132	8866.425
790.02671	7666.125
793.89938	7173.925
797.76935	6969.925
801.6366	6914.925
805.50115	6957.025
809.36299	7018.725
813.22213	7040.225
817.07857	7012.625
820.93231	6965.125
824.78336	6890.325
828.63172	6875.825
832.47738	6873.125
836.32036	6801.125
840.16066	6744.225
843.99827	6687.425
847.8332	6681.725
851.66546	6643.825
855.49504	6634.925
859.32195	6647.625
863.1462	6610.225
866.96777	6594.825
870.78668	6606.125
874.60293	6711.325
878.41652	6840.625
882.22745	6952.025
886.03573	7057.425
889.84136	7098.325
893.64433	7002.425
897.44466	6959.225
901.24235	6878.925
905.0374	6744.325
908.8298	6638.925
912.61957	6543.025
916.40671	6513.225
920.19121	6543.525
923.97308	6647.525
927.75233	6856.625
931.52895	7073.425
935.30295	6937.825
939.07433	6646.025
942.84309	6416.425
946.60924	6308.225
950.37278	6270.425
954.13371	6193.425
957.89203	6168.825
961.64774	6152.125
965.40086	6130.525
969.15137	6115.625
972.89929	6101.925
976.64461	6079.725
980.38733	6098.125
984.12747	6115.125
987.86502	6166.325
991.59999	6244.525
995.33237	6372.325
999.06217	6594.125
1002.78939	6852.925
1006.51404	7047.125
1010.23611	7183.225
1013.95561	7226.325
1017.67255	7248.225
1021.38692	7191.125
1025.09872	7128.225
1028.80796	7205.225
1032.51465	7381.725
1036.21877	7501.025
1039.92035	7484.925
1043.61937	7366.225
1047.31584	7195.125
1051.00976	7011.425
1054.70114	6875.225
1058.38998	6850.025
1062.07627	6836.725
1065.76003	6820.925
1069.44126	6843.125
1073.11995	6932.125
1076.79611	7060.725
1080.46974	7334.225
1084.14085	7691.025
1087.80943	7967.325
1091.47549	7985.125
1095.13903	7692.125
1098.80005	7326.725
1102.45857	7118.325
1106.11456	7148.725
1109.76805	7369.125
1113.41903	7781.525
1117.06751	8325.725
1120.71348	9111.525
1124.35696	9920.825
1127.99793	10409.725
1131.63641	10038.025
1135.2724	9231.625
1138.90589	8625.925
1142.5369	8176.325
1146.16542	7805.125
1149.79145	7520.525
1153.415	7355.825
1157.03607	7331.625
1160.65467	7454.825
1164.27079	7749.025
1167.88443	8229.525
1171.49561	9088.725
1175.10432	10473.025
1178.71056	12395.425
1182.31434	13888.625
1185.91565	14136.425
1189.51451	13362.125
1193.11091	12067.025
1196.70485	10908.325
1200.29634	10251.825
1203.88538	9786.125
1207.47197	9107.425
1211.05612	8413.025
1214.63782	7989.625
1218.21708	7771.625
1221.79391	7680.725
1225.36829	7691.625
1228.94024	7650.525
1232.50976	7553.525
1236.07685	7490.125
1239.6415	7506.225
1243.20374	7586.925
1246.76355	7700.325
1250.32093	7843.625
1253.8759	8038.025
1257.42845	8357.725
1260.97859	8711.125
1264.52631	9092.225
1268.07163	9426.125
1271.61453	9641.025
1275.15503	9816.225
1278.69312	9897.025
1282.22882	10091.425
1285.76211	10448.625
1289.29301	10924.625
1292.82151	11350.925
1296.34761	11819.925
1299.87133	12848.725
1303.39266	14681.825
1306.9116	17444.525
1310.42815	20035.325
1313.94233	20507.025
1317.45412	18576.125
1320.96354	15942.325
1324.47058	13650.625
1327.97525	11976.425
1331.47754	10992.725
1334.97747	10677.625
1338.47502	10912.325
1341.97022	11629.225
1345.46305	12919.625
1348.95352	14581.325
1352.44163	16627.025
1355.92738	19588.425
1359.41078	24085.725
1362.89183	27426.925
1366.37053	25039.825
1369.84688	19256.725
1373.32088	14852.625
1376.79254	12470.725
1380.26186	11127.225
1383.72883	10230.325
1387.19347	9548.025
1390.65578	8960.825
1394.11575	8530.925
1397.57339	8343.025
1401.0287	8252.225
1404.48168	8233.225
1407.93234	8187.925
1411.38068	8266.625
1414.82669	8429.925
1418.27039	8502.225
1421.71177	8473.925
1425.15083	8377.725
1428.58758	8405.125
1432.02203	8591.725
1435.45416	8698.725
1438.88399	8578.525
1442.31151	8480.825
1445.73673	8454.925
1449.15965	8479.525
1452.58027	8395.725
1455.9986	8255.025
1459.41463	8193.325
1462.82837	8288.725
1466.23982	8521.725
1469.64898	8752.825
1473.05586	8887.225
1476.46045	8969.225
1479.86276	9146.625
1483.26279	9448.525
1486.66054	9904.925
1490.05602	10562.325
1493.44922	11577.425
1496.84016	13217.125
1500.22882	15805.425
1503.61521	19438.425
1506.99934	23471.025
1510.38121	26135.625
1513.76081	25889.225
1517.13816	22538.325
1520.51324	18081.425
1523.88607	14491.325
1527.25665	12341.425
1530.62498	11165.425
1533.99105	10511.025
1537.35488	10092.925
1540.71647	9892.625
1544.07581	9851.725
1547.4329	9936.025
1550.78776	10085.225
1554.14038	10238.225
1557.49077	10439.725
1560.83892	10773.925
1564.18484	11289.425
1567.52853	11891.325
1570.86999	12299.525
1574.20922	12452.325
1577.54624	12155.625
1580.88103	11142.725
1584.2136	9963.325
1587.54395	9310.725
1590.87208	9359.425
1594.19801	9991.125
1597.52172	10845.325
1600.84321	11145.025
1604.16251	10726.825
1607.47959	10055.225
1610.79447	9384.625
1614.10715	8708.525
1617.41763	8172.225
1620.7259	7884.225
1624.03199	7760.225
1627.33587	7836.625
1630.63757	8098.625
1633.93707	8656.525
1637.23439	9533.825
1640.52951	10832.725
1643.82246	12866.225
1647.11321	15323.325
1650.40179	16752.025
1653.68819	15774.525
1656.97241	13021.725
1660.25446	10363.325
1663.53433	8654.325
1666.81203	7705.325
1670.08756	7188.625
1673.36092	6848.725
1676.63211	6648.025
1679.90115	6479.825
1683.16801	6367.725
1686.43272	6277.525
1689.69527	6210.225
1692.95567	6143.125
1696.2139	6107.225
1699.46999	6074.725
1702.72392	6022.225
1705.97571	5981.725
1709.22535	5969.925
1712.47284	5942.625
1715.71819	5936.525
1718.96139	5909.125
1722.20246	5869.125
1725.44139	5832.225
1728.67818	5761.425
1731.91284	5699.925
1735.14537	5659.625
1738.37576	5642.725
1741.60403	5621.725
1744.83017	5580.725
1748.05418	5571.525
1751.27607	5531.225
1754.49584	5504.025
1757.71349	5529.725
1760.92903	5498.325
1764.14244	5483.225
1767.35375	5473.025
1770.56294	5429.025
1773.77002	5422.125
1776.97499	5382.025
1780.17785	5355.025
1783.37861	5353.325
1786.57727	5338.525
1789.77382	5322.625
1792.96828	5324.825
1796.16064	5313.325
1799.3509	5314.925
1802.53907	5303.425
1805.72514	5277.825
1808.90913	5275.325
1812.09102	5236.825
1815.27083	5230.925
1818.44856	5224.825
1821.6242	5212.425
1824.79776	5179.925
1827.96924	5192.025
1831.13864	5171.625
1834.30597	5174.325
1837.47122	5133.625
1840.6344	5125.525
1843.7955	5130.825
1846.95454	5135.525
1850.11151	5133.025
1853.26642	5126.025
1856.41926	5109.225
1859.57004	5101.825
1862.71876	5100.825
1865.86542	5127.725
1869.01003	5114.325
1872.15258	5109.725
1875.29308	5111.125
1878.43152	5098.225
1881.56792	5119.025
1884.70227	5092.025
1887.83457	5101.025
1890.96482	5091.325
1894.09304	5071.425
1897.21921	5080.925
1900.34335	5081.625
1903.46544	5079.325
1906.58551	5059.125
1909.70353	5082.825
1912.81953	5052.625
1915.93349	5062.225
1919.04543	5049.625
1922.15534	5034.125
1925.26322	5029.725
1928.36908	5026.625
1931.47292	5003.725
1934.57473	4977.125
1937.67453	4971.725
1940.77232	4938.425
1943.86808	4943.625
1946.96184	4914.925
1950.05358	4922.925
1953.14331	4915.825
1956.23103	4891.625
1959.31675	4883.825
1962.40046	4874.425
1965.48217	4865.425
1968.56188	4854.125
1971.63959	4851.425
1974.7153	4836.825
1977.78901	4833.025
1980.86073	4807.225
1983.93046	4777.425
1986.99819	4760.625
1990.06394	4725.925
1993.1277	4708.225
1996.18947	4690.825
1999.24925	4676.625
2002.30706	4672.525
2005.36288	4649.725
2008.41672	4644.125
2011.46859	4612.625
2014.51848	4615.925
2017.56639	4590.625
2020.61233	4588.725
2023.6563	4597.025
2026.6983	4564.625
2029.73833	4570.325
2032.7764	4556.925
2035.8125	4542.125
2038.84664	4525.125
2041.87881	4541.425
2044.90903	4534.525
2047.93729	4523.325
2050.96359	4515.725
2053.98794	4504.725
2057.01034	4514.625
2060.03078	4504.025
2063.04927	4491.825
2066.06582	4488.325
2069.08042	4472.625
2072.09307	4476.225
2075.10378	4459.625
2078.11255	4448.825
2081.11938	4470.625
2084.12426	4467.825
2087.12722	4469.825
2090.12824	4444.125
2093.12732	4450.425
2096.12447	4450.125
2099.11969	4446.725
2102.11299	4464.325
2105.10435	4460.425
2108.09379	4460.525
2111.08131	4482.325
2114.0669	4466.025
2117.05057	4474.325
2120.03233	4484.325
2123.01216	4496.925
2125.99008	4497.925
2128.96609	4520.625
2131.94018	4508.325
2134.91236	4505.925
2137.88263	4501.525
2140.851	4497.525
2143.81746	4489.425
2146.78201	4492.925
2149.74466	4508.725
2152.7054	4492.925
2155.66425	4492.525
2158.6212	4479.625
2161.57625	4460.725
2164.52941	4465.725
2167.48067	4446.525
2170.43004	4477.625
2173.37752	4472.725
2176.32311	4463.125
2179.26681	4474.525
2182.20863	4478.925
2185.14856	4497.025
2188.08661	4472.125
2191.02278	4465.825
2193.95707	4471.825
2196.88948	4458.125
2199.82001	4458.725
2202.74867	4450.225
2205.67545	4468.925
2208.60037	4448.925
2211.52341	4460.225
2214.44458	4456.725
2217.36388	4444.925
2220.28132	4458.025
2223.1969	4427.425
2226.11061	4422.325
2229.02246	4399.525
2231.93245	4398.925
2234.84058	4399.225
2237.74686	4378.425
2240.65128	4379.025
2243.55385	4377.025
2246.45456	4356.125
2249.35343	4368.425
2252.25044	4371.925
2255.14561	4376.225
2258.03893	4382.625
2260.93041	4390.025
2263.82004	4378.325
2266.70783	4376.425
2269.59378	4355.825
2272.4779	4346.125
2275.36017	4343.425
2278.24061	4321.125
2281.11922	4322.525
2283.996	4302.625
2286.87094	4305.025
2289.74405	4284.325
2292.61534	4285.025
2295.4848	4269.225
2298.35243	4281.925
2301.21824	4267.225
2304.08223	4278.125
2306.94439	4284.425
2309.80474	4277.725
2312.66327	4267.525
2315.51999	4265.525
2318.37489	4280.725
2321.22797	4283.825
2324.07925	4264.425
2326.92871	4261.625
2329.77637	4259.525
2332.62222	4260.225
2335.46626	4260.725
2338.3085	4247.525
2341.14893	4261.625
2343.98756	4258.125
2346.8244	4284.325
2349.65943	4283.525
2352.49267	4285.325
2355.32411	4291.225
2358.15376	4301.425
2360.98161	4304.025
2363.80768	4301.125
2366.63195	4312.825
2369.45444	4315.925
2372.27514	4291.025
2375.09405	4294.825
2377.91118	4280.725
2380.72652	4262.325
2383.54009	4240.325
2386.35187	4212.825
2389.16188	4198.225
2391.97011	4196.425
2394.77657	4169.825
2397.58125	4168.125
2400.38416	4155.825
2403.18529	4148.325
2405.98466	4134.325
2408.78226	4131.325
2411.57809	4116.025
2414.37216	4100.325
2417.16446	4109.725
2419.955	4110.925
2422.74378	4098.925
2425.5308	4079.025
2428.31606	4092.525
2431.09956	4097.125
2433.88131	4085.625
2436.6613	4096.825
2439.43954	4095.725
2442.21603	4095.025
2444.99077	4110.825
2447.76377	4103.425
2450.53501	4100.225
2453.30451	4097.325
2456.07226	4094.325
2458.83827	4084.625
2461.60254	4092.625
2464.36507	4082.125
2467.12586	4069.925
2469.88492	4086.525
2472.64224	4091.025
2475.39782	4085.225
2478.15167	4105.025
2480.90379	4118.425
2483.65417	4144.925
2486.40283	4140.525
2489.14976	4150.825
2491.89497	4149.025
2494.63845	4169.625
2497.3802	4144.425
2500.12024	4141.925
2502.85855	4119.325
2505.59514	4102.325
2508.33002	4088.325
2511.06318	4084.225
2513.79462	4072.725
2516.52435	4037.925
2519.25237	4030.425
2521.97867	4014.525
2524.70327	3999.725
2527.42616	3984.325
2530.14734	4001.925
2532.86681	3989.225
2535.58458	3995.625
2538.30065	3996.525
2541.01501	4000.625
2543.72768	3998.125
2546.43864	3998.725
2549.14791	3990.225
2551.85548	3992.325
2554.56136	3983.525
2557.26554	3983.525
2559.96803	3981.225
2562.66883	3974.125
2565.36794	3984.825
2568.06536	3969.825
2570.7611	3970.825
2573.45514	3963.425
2576.14751	3949.725
2578.83819	3937.325
2581.52719	3941.125
2584.21451	3933.525
2586.90015	3928.925
2589.58411	3932.025
2592.2664	3920.325
2594.94701	3910.325
2597.62594	3924.925
2600.30321	3909.425
2602.9788	3915.325
2605.65273	3905.725
2608.32498	3919.825
2610.99557	3913.325
2613.66449	3909.125
2616.33175	3926.825
2618.99734	3925.925
2621.66128	3923.825
2624.32355	3913.325
2626.98416	3911.925
2629.64311	3906.325
2632.30041	3902.025
2634.95605	3901.925
2637.61004	3892.625
2640.26238	3888.425
2642.91306	3886.125
2645.56209	3877.225
2648.20948	3863.625
2650.85521	3860.925
2653.4993	3850.425
2656.14175	3862.625
2658.78255	3845.925
2661.42171	3860.125
2664.05923	3881.825
2666.6951	3895.825
2669.32934	3895.625
2671.96194	3893.725
2674.59291	3890.225
2677.22224	3904.425
2679.84993	3910.225
2682.476	3895.725
2685.10043	3873.525
2687.72324	3865.725
2690.34441	3874.525
2692.96396	3850.225
2695.58188	3876.325
2698.19818	3870.725
2700.81285	3865.625
2703.4259	3856.325
2706.03733	3864.725
2708.64714	3859.225
2711.25533	3851.725
2713.86191	3857.625
2716.46687	3858.225
2719.07021	3855.925
2721.67194	3861.225
2724.27206	3856.025
2726.87057	3864.325
2729.46747	3856.225
2732.06276	3868.225
2734.65644	3861.125
2737.24852	3854.125
2739.83899	3838.125
2742.42786	3836.225
2745.01513	3822.025
2747.60079	3824.325
2750.18486	3825.425
2752.76733	3797.825
2755.3482	3792.425
2757.92747	3800.825
2760.50515	3780.325
2763.08123	3789.625
2765.65573	3776.925
2768.22863	3777.625
2770.79994	3771.525
2773.36967	3798.725
2775.9378	3771.625
2778.50435	3776.925
2781.06932	3782.825
2783.6327	3761.625
2786.1945	3782.425
2788.75471	3781.425
2791.31335	3763.725
2793.87041	3777.925
2796.42589	3766.425
2798.97979	3767.325
2801.53212	3768.025
2804.08288	3770.325
2806.63206	3752.225
2809.17967	3740.125
2811.72571	3747.225
2814.27018	3750.425
2816.81308	3771.125
2819.35442	3754.125
2821.89419	3762.625
2824.43239	3782.125
2826.96904	3761.925
2829.50412	3757.125
2832.03763	3772.925
2834.56959	3755.925
2837.1	3753.425
2839.62884	3743.025
2842.15613	3737.825
2844.68186	3732.125
2847.20604	3743.625
2849.72867	3752.325
2852.24974	3740.825
2854.76927	3750.625
2857.28724	3743.625
2859.80367	3753.325
2862.31855	3752.325
2864.83189	3764.325
2867.34368	3762.425
2869.85393	3761.525
2872.36264	3759.225
2874.8698	3752.925
2877.37543	3760.025
2879.87952	3775.825
2882.38207	3758.425
2884.88308	3771.325
2887.38256	3761.225
2889.88051	3753.225
2892.37692	3753.325
2894.8718	3753.225
2897.36515	3757.125
2899.85698	3761.325
2902.34727	3758.225
2904.83604	3758.425
2907.32328	3773.025
2909.809	3777.225
2912.29319	3766.425
2914.77587	3754.225
2917.25702	3749.525
2919.73665	3752.725
2922.21476	3746.725
2924.69136	3738.225
2927.16644	3746.725
2929.64	3727.325
2932.11205	3723.025
2934.58258	3707.325
2937.05161	3712.125
2939.51912	3723.325
2941.98513	3700.725
2944.44962	3716.825
2946.91261	3688.825
2949.37409	3705.925
2951.83407	3719.425
2954.29254	3713.025
2956.74951	3702.725
2959.20498	3713.325
2961.65895	3706.125
2964.11142	3704.425
2966.56239	3705.925
2969.01186	3697.125
2971.45984	3694.625
2973.90632	3685.325
2976.35131	3678.525
2978.7948	3675.025
2981.23681	3666.225
2983.67732	3662.825
2986.11635	3651.125
2988.55388	3631.425
2990.98993	3633.925
2993.4245	3636.925
2995.85758	3631.625
2998.28917	3644.325
3000.71928	3632.225
3003.14791	3623.125
3005.57506	3611.625
3008.00073	3619.625
3010.42493	3610.525
3012.84764	3620.225
3015.26888	3606.925
3017.68865	3600.125
3020.10694	3600.625
3022.52376	3591.925
3024.9391	3573.125
3027.35298	3596.225
3029.76539	3580.325
3032.17632	3559.225
3034.5858	3561.725
3036.9938	3546.925
3039.40034	3561.325
3041.80542	3562.525
3044.20903	3546.725
3046.61118	3559.225
3049.01187	3538.325
3051.4111	3526.525
3053.80888	3537.925
3056.20519	3533.325
3058.60005	3525.625
3060.99345	3530.625
3063.3854	3508.625
3065.7759	3511.525
3068.16494	3510.725
3070.55254	3488.725
3072.93868	3494.525
3075.32338	3478.925
3077.70662	3483.725
3080.08842	3483.025
3082.46878	3480.725
3084.84769	3468.625
3087.22515	3472.825
3089.60118	3471.825
3091.97576	3478.125
3094.3489	3479.125
3096.72061	3482.225
3099.09087	3502.125
3101.4597	3494.525
3103.82709	3501.825
3106.19305	3491.525
3108.55757	3501.125
3110.92066	3496.425
3113.28232	3519.025
3115.64255	3494.825
3118.00134	3499.025
3120.35871	3513.025
3122.71466	3501.225
3125.06917	3506.625
3127.42226	3487.525
3129.77393	3496.025
3132.12417	3509.625
3134.47299	3499.725
3136.82039	3508.425
3139.16636	3511.625
3141.51092	3509.625
3143.85406	3513.125
3146.19579	3537.625
3148.53609	3536.725
3150.87499	3554.025
3153.21246	3559.725
3155.54853	3555.425
3157.88318	3564.625
3160.21642	3583.925
3162.54826	3578.825
3164.87868	3583.025
3167.2077	3589.025
3169.5353	3595.625
3171.86151	3594.225
3174.18631	3606.325
3176.5097	3623.025
3178.83169	3612.625
3181.15228	3601.625
3183.47147	3595.525
3185.78926	3600.425
3188.10565	3591.425
3190.42065	3606.025
3192.73424	3615.225
3195.04645	3624.325
3197.35725	3621.425
3199.66667	3634.125
3201.97469	3640.625
3204.28132	3640.725
3206.58656	3663.825
3208.8904	3654.925
3211.19287	3669.025
3213.49394	3658.425
3215.79363	3678.325
3218.09193	3684.625
3220.38884	3698.925
3222.68438	3701.825
3224.97853	3699.625
3227.2713	3707.425
3229.56269	3699.825
3231.8527	3700.625
3234.14133	3702.225
3236.42858	3699.625
3238.71446	3704.625
3240.99896	3689.825
3243.28209	3686.025
3245.56384	3681.125
3247.84423	3685.625
3250.12324	3685.325
3252.40088	3677.425
3254.67715	3672.025
3256.95205	3674.725
3259.22558	3689.225
3261.49775	3679.025
3263.76855	3679.325
3266.03799	3692.825
3268.30606	3685.325
3270.57277	3686.425
3272.83812	3680.725
3275.10211	3664.925
3277.36474	3667.425
3279.62601	3659.325
3281.88593	3654.125
3284.14448	3676.425
3286.40168	3667.425
3288.65753	3667.525
3290.91202	3674.425
3293.16516	3670.925
3295.41695	3645.825
3297.66738	3648.625
3299.91647	3612.825
3302.16421	3596.925
3304.4106	3583.525
3306.65564	3566.225
3308.89933	3537.725
3311.14169	3510.525
3313.38269	3484.825
3315.62236	3482.125
3317.86068	3441.925
3320.09766	3425.425
3322.3333	3401.225
3324.5676	3373.925
3326.80056	3322.025
3329.03219	3317.825
3331.26248	0.225
3333.49143	-0.975
3335.71905	1.525
