Data from AgNPs_UA_0uM_CRN_0uM_R6G_10uM_Q_RamanShift__17__11-38-18-765.txt Node

Date: Wed Jul 13 11:38:18 BST 2022
User: TCL
Spectrometer: QEP01345
Trigger mode: 4
Integration Time (sec): 7.000000E0
Scans to average: 10
Electric dark correction enabled: true
Nonlinearity correction enabled: false
Boxcar width: 0
XAxis mode: Raman Shifts
Number of Pixels in Spectrum: 1044
>>>>>Begin Spectral Data<<<<<
46.04893	0.0375
50.45542	-1.5625
54.85868	-2.0625
59.25871	0.3375
63.6555	58.4375
68.04907	61.5375
72.43941	66.2375
76.82654	71.5375
81.21044	75.4375
85.59113	76.9375
89.96862	81.9375
94.34289	82.2375
98.71396	81.5375
103.08183	88.7375
107.4465	89.3375
111.80798	89.8375
116.16626	94.3375
120.52136	96.3375
124.87327	98.4375
129.222	102.0375
133.56755	105.2375
137.90993	115.5375
142.24913	118.0375
146.58517	135.6375
150.91804	155.6375
155.24774	173.3375
159.57429	210.5375
163.89768	269.8375
168.21792	356.8375
172.53501	474.5375
176.84895	655.9375
181.15975	921.9375
185.46741	1286.3375
189.77193	1775.4375
194.07331	2382.3375
198.37157	3087.0375
202.6667	3803.5375
206.9587	4535.7375
211.24758	5274.4375
215.53334	6005.3375
219.81599	6815.9375
224.09553	7700.7375
228.37195	8649.8375
232.64527	9633.3375
236.91549	10637.6375
241.18261	11583.6375
245.44663	12441.5375
249.70755	13174.7375
253.96539	13843.7375
258.22014	14430.3375
262.4718	14882.0375
266.72039	15175.8375
270.96589	15261.7375
275.20832	15190.7375
279.44768	14940.2375
283.68397	14664.1375
287.91719	14427.0375
292.14735	14335.1375
296.37445	14479.0375
300.59849	14795.8375
304.81948	15218.8375
309.03742	15591.9375
313.25231	15726.7375
317.46415	15443.3375
321.67296	14780.6375
325.87872	14129.7375
330.08145	13755.1375
334.28114	13734.7375
338.47781	13952.4375
342.67145	14232.9375
346.86207	14695.9375
351.04966	15371.5375
355.23424	16002.6375
359.4158	16346.6375
363.59435	16443.5375
367.76989	16366.1375
371.94243	16259.2375
376.11196	16161.5375
380.27849	16109.4375
384.44203	16033.8375
388.60257	16030.6375
392.76012	16151.5375
396.91468	16340.7375
401.06626	16663.7375
405.21485	16836.7375
409.36047	16531.7375
413.50311	15991.2375
417.64277	15526.9375
421.77947	15252.6375
425.9132	15181.7375
430.04396	15184.6375
434.17176	15229.6375
438.2966	15392.8375
442.41849	15577.4375
446.53742	15818.3375
450.6534	16046.9375
454.76644	16169.7375
458.87653	16212.0375
462.98368	16243.3375
467.08789	16150.2375
471.18916	16015.7375
475.2875	15756.8375
479.38291	15563.3375
483.4754	15471.8375
487.56496	15360.9375
491.6516	15324.4375
495.73531	15362.5375
499.81612	15416.2375
503.89401	15562.4375
507.96899	15719.2375
512.04106	15887.7375
516.11023	16078.8375
520.1765	16161.6375
524.23987	16189.7375
528.30034	16149.4375
532.35792	16054.1375
536.41261	15964.1375
540.46441	15801.6375
544.51333	15709.2375
548.55936	15813.8375
552.60252	15983.7375
556.64279	16283.7375
560.6802	16485.6375
564.71473	16725.0375
568.7464	17067.2375
572.7752	17128.7375
576.80114	16760.7375
580.82422	16411.0375
584.84444	16390.3375
588.86181	16436.8375
592.87633	16517.4375
596.888	16736.2375
600.89682	17282.6375
604.9028	18869.4375
608.90594	22696.7375
612.90624	26812.3375
616.90371	25111.2375
620.89834	19546.6375
624.89015	17095.8375
628.87913	16691.9375
632.86528	16946.1375
636.84862	17150.8375
640.82913	16837.5375
644.80683	16296.9375
648.78172	15979.1375
652.75379	16057.0375
656.72306	16487.9375
660.68952	16943.1375
664.65319	16771.8375
668.61405	16271.0375
672.57211	16137.7375
676.52738	16170.3375
680.47986	16089.9375
684.42955	15987.2375
688.37646	15937.9375
692.32058	15964.3375
696.26192	16137.8375
700.20048	16266.2375
704.13626	16404.1375
708.06928	16355.1375
711.99952	16244.7375
715.927	16240.6375
719.85171	16286.9375
723.77365	16330.7375
727.69284	16241.6375
731.60928	16210.6375
735.52295	16203.7375
739.43388	16281.3375
743.34206	16311.5375
747.24749	16374.1375
751.15017	16381.8375
755.05012	16549.6375
758.94733	17118.9375
762.8418	18509.3375
766.73354	20688.4375
770.62254	22345.7375
774.50882	22605.9375
778.39237	21668.9375
782.27321	20075.9375
786.15132	18394.7375
790.02671	17226.6375
793.89938	16692.8375
797.76935	16456.1375
801.6366	16341.5375
805.50115	16240.5375
809.36299	16181.2375
813.22213	16138.7375
817.07857	16133.6375
820.93231	16133.0375
824.78336	16188.9375
828.63172	16238.1375
832.47738	16241.8375
836.32036	16240.9375
840.16066	16161.4375
843.99827	16153.0375
847.8332	16130.3375
851.66546	16159.6375
855.49504	16204.8375
859.32195	16201.9375
863.1462	16185.1375
866.96777	16230.9375
870.78668	16232.8375
874.60293	16297.8375
878.41652	16363.4375
882.22745	16456.9375
886.03573	16561.0375
889.84136	16550.4375
893.64433	16552.1375
897.44466	16540.8375
901.24235	16561.5375
905.0374	16595.2375
908.8298	16565.9375
912.61957	16524.8375
916.40671	16554.5375
920.19121	16610.8375
923.97308	16714.8375
927.75233	16876.9375
931.52895	16984.9375
935.30295	16861.1375
939.07433	16517.3375
942.84309	16239.8375
946.60924	16087.3375
950.37278	15980.4375
954.13371	15988.4375
957.89203	15889.4375
961.64774	15858.4375
965.40086	15800.0375
969.15137	15777.2375
972.89929	15694.9375
976.64461	15691.7375
980.38733	15701.4375
984.12747	15643.6375
987.86502	15687.6375
991.59999	15819.6375
995.33237	15877.5375
999.06217	15930.4375
1002.78939	16119.4375
1006.51404	16367.5375
1010.23611	16555.0375
1013.95561	16565.3375
1017.67255	16529.9375
1021.38692	16408.0375
1025.09872	16282.4375
1028.80796	16129.6375
1032.51465	16125.5375
1036.21877	16127.7375
1039.92035	16196.9375
1043.61937	16242.3375
1047.31584	16299.2375
1051.00976	16351.1375
1054.70114	16384.5375
1058.38998	16378.7375
1062.07627	16398.5375
1065.76003	16429.1375
1069.44126	16504.1375
1073.11995	16716.5375
1076.79611	16956.9375
1080.46974	17208.5375
1084.14085	17539.5375
1087.80943	17844.7375
1091.47549	17918.6375
1095.13903	17625.6375
1098.80005	17309.8375
1102.45857	17159.7375
1106.11456	17054.3375
1109.76805	17032.7375
1113.41903	17106.4375
1117.06751	17346.6375
1120.71348	17744.6375
1124.35696	18244.8375
1127.99793	18737.5375
1131.63641	18607.1375
1135.2724	17936.3375
1138.90589	17387.3375
1142.5369	17051.8375
1146.16542	16792.6375
1149.79145	16685.3375
1153.415	16592.7375
1157.03607	16602.0375
1160.65467	16809.6375
1164.27079	17143.0375
1167.88443	17735.9375
1171.49561	18558.7375
1175.10432	19872.6375
1178.71056	21674.2375
1182.31434	23063.8375
1185.91565	23425.3375
1189.51451	22999.1375
1193.11091	22209.7375
1196.70485	21363.8375
1200.29634	20590.5375
1203.88538	19791.5375
1207.47197	18958.8375
1211.05612	18229.3375
1214.63782	17721.2375
1218.21708	17436.5375
1221.79391	17260.8375
1225.36829	17238.2375
1228.94024	17196.3375
1232.50976	17214.4375
1236.07685	17263.9375
1239.6415	17315.9375
1243.20374	17382.0375
1246.76355	17440.1375
1250.32093	17507.1375
1253.8759	17698.5375
1257.42845	18004.0375
1260.97859	18453.2375
1264.52631	18911.4375
1268.07163	19287.2375
1271.61453	19574.0375
1275.15503	19687.5375
1278.69312	19647.1375
1282.22882	19651.2375
1285.76211	19945.8375
1289.29301	20384.1375
1292.82151	20816.9375
1296.34761	21281.4375
1299.87133	21966.5375
1303.39266	23181.6375
1306.9116	25161.9375
1310.42815	27484.3375
1313.94233	28612.8375
1317.45412	27749.6375
1320.96354	25896.2375
1324.47058	24136.4375
1327.97525	22649.9375
1331.47754	21699.7375
1334.97747	21232.0375
1338.47502	21240.9375
1341.97022	21817.9375
1345.46305	23040.0375
1348.95352	24657.3375
1352.44163	26298.2375
1355.92738	28020.2375
1359.41078	30679.4375
1362.89183	33475.1375
1366.37053	32767.6375
1369.84688	28338.3375
1373.32088	23881.9375
1376.79254	21314.8375
1380.26186	19974.1375
1383.72883	19255.0375
1387.19347	18552.7375
1390.65578	17927.3375
1394.11575	17504.8375
1397.57339	17253.7375
1401.0287	17132.5375
1404.48168	17030.3375
1407.93234	17016.4375
1411.38068	17042.1375
1414.82669	17144.8375
1418.27039	17175.6375
1421.71177	17133.9375
1425.15083	16959.7375
1428.58758	16883.0375
1432.02203	16970.1375
1435.45416	17088.1375
1438.88399	17108.5375
1442.31151	17059.5375
1445.73673	17060.4375
1449.15965	17041.6375
1452.58027	17007.9375
1455.9986	16999.3375
1459.41463	16962.1375
1462.82837	17111.4375
1466.23982	17299.3375
1469.64898	17492.4375
1473.05586	17705.8375
1476.46045	17825.1375
1479.86276	17988.2375
1483.26279	18252.5375
1486.66054	18645.7375
1490.05602	19249.8375
1493.44922	20190.8375
1496.84016	21537.9375
1500.22882	23617.7375
1503.61521	26394.5375
1506.99934	29542.3375
1510.38121	32133.4375
1513.76081	32685.6375
1517.13816	30581.1375
1520.51324	26976.8375
1523.88607	23663.8375
1527.25665	21444.1375
1530.62498	20181.9375
1533.99105	19404.3375
1537.35488	18913.8375
1540.71647	18491.1375
1544.07581	18228.8375
1547.4329	18084.7375
1550.78776	18075.5375
1554.14038	18108.9375
1557.49077	18250.8375
1560.83892	18600.7375
1564.18484	19111.8375
1567.52853	19771.5375
1570.86999	20329.3375
1574.20922	20613.8375
1577.54624	20472.7375
1580.88103	19632.6375
1584.2136	18509.5375
1587.54395	17785.8375
1590.87208	17651.0375
1594.19801	17988.0375
1597.52172	18616.1375
1600.84321	18791.6375
1604.16251	18380.6375
1607.47959	17916.6375
1610.79447	17383.6375
1614.10715	16817.9375
1617.41763	16202.9375
1620.7259	15747.9375
1624.03199	15517.0375
1627.33587	15500.0375
1630.63757	15686.0375
1633.93707	16159.0375
1637.23439	16967.3375
1640.52951	18343.7375
1643.82246	20313.8375
1647.11321	22541.9375
1650.40179	24112.4375
1653.68819	23582.5375
1656.97241	21268.6375
1660.25446	18538.5375
1663.53433	16595.9375
1666.81203	15405.1375
1670.08756	14703.2375
1673.36092	14333.5375
1676.63211	14083.6375
1679.90115	13914.7375
1683.16801	13765.7375
1686.43272	13670.9375
1689.69527	13579.4375
1692.95567	13491.2375
1696.2139	13481.3375
1699.46999	13453.4375
1702.72392	13377.4375
1705.97571	13422.3375
1709.22535	13380.1375
1712.47284	13409.1375
1715.71819	13408.9375
1718.96139	13409.9375
1722.20246	13405.1375
1725.44139	13337.9375
1728.67818	13306.2375
1731.91284	13225.5375
1735.14537	13194.6375
1738.37576	13171.7375
1741.60403	13124.5375
1744.83017	13088.8375
1748.05418	13073.3375
1751.27607	13013.8375
1754.49584	13010.2375
1757.71349	12979.1375
1760.92903	12965.3375
1764.14244	12917.8375
1767.35375	12913.0375
1770.56294	12914.9375
1773.77002	12902.7375
1776.97499	12880.6375
1780.17785	12852.7375
1783.37861	12813.9375
1786.57727	12797.7375
1789.77382	12760.3375
1792.96828	12749.8375
1796.16064	12723.7375
1799.3509	12700.8375
1802.53907	12653.5375
1805.72514	12631.7375
1808.90913	12575.7375
1812.09102	12539.0375
1815.27083	12522.7375
1818.44856	12476.2375
1821.6242	12447.4375
1824.79776	12379.5375
1827.96924	12389.3375
1831.13864	12359.2375
1834.30597	12378.2375
1837.47122	12346.9375
1840.6344	12307.4375
1843.7955	12318.1375
1846.95454	12323.0375
1850.11151	12274.6375
1853.26642	12253.0375
1856.41926	12241.2375
1859.57004	12248.7375
1862.71876	12225.1375
1865.86542	12210.7375
1869.01003	12203.0375
1872.15258	12197.3375
1875.29308	12153.7375
1878.43152	12144.0375
1881.56792	12115.5375
1884.70227	12095.7375
1887.83457	12056.1375
1890.96482	12028.0375
1894.09304	11993.3375
1897.21921	11980.8375
1900.34335	11971.9375
1903.46544	11944.7375
1906.58551	11969.3375
1909.70353	11929.6375
1912.81953	11878.5375
1915.93349	11918.8375
1919.04543	11882.8375
1922.15534	11861.0375
1925.26322	11783.0375
1928.36908	11770.8375
1931.47292	11750.0375
1934.57473	11727.4375
1937.67453	11659.0375
1940.77232	11605.9375
1943.86808	11596.3375
1946.96184	11572.2375
1950.05358	11556.4375
1953.14331	11481.7375
1956.23103	11471.8375
1959.31675	11429.1375
1962.40046	11397.0375
1965.48217	11378.2375
1968.56188	11338.8375
1971.63959	11294.2375
1974.7153	11278.7375
1977.78901	11235.3375
1980.86073	11180.9375
1983.93046	11163.7375
1986.99819	11078.8375
1990.06394	11016.8375
1993.1277	11012.0375
1996.18947	10970.3375
1999.24925	10937.4375
2002.30706	10898.6375
2005.36288	10858.6375
2008.41672	10826.6375
2011.46859	10801.7375
2014.51848	10797.4375
2017.56639	10733.7375
2020.61233	10725.6375
2023.6563	10668.7375
2026.6983	10620.7375
2029.73833	10596.3375
2032.7764	10548.1375
2035.8125	10553.2375
2038.84664	10531.7375
2041.87881	10529.1375
2044.90903	10499.3375
2047.93729	10463.7375
2050.96359	10437.8375
2053.98794	10419.5375
2057.01034	10420.4375
2060.03078	10395.9375
2063.04927	10387.5375
2066.06582	10383.6375
2069.08042	10362.5375
2072.09307	10345.8375
2075.10378	10307.5375
2078.11255	10302.9375
2081.11938	10334.5375
2084.12426	10315.8375
2087.12722	10307.0375
2090.12824	10321.9375
2093.12732	10314.9375
2096.12447	10318.7375
2099.11969	10324.9375
2102.11299	10288.7375
2105.10435	10300.6375
2108.09379	10286.1375
2111.08131	10306.0375
2114.0669	10324.0375
2117.05057	10285.2375
2120.03233	10324.9375
2123.01216	10341.0375
2125.99008	10355.3375
2128.96609	10362.1375
2131.94018	10349.5375
2134.91236	10338.3375
2137.88263	10373.1375
2140.851	10350.2375
2143.81746	10352.4375
2146.78201	10349.4375
2149.74466	10316.0375
2152.7054	10313.7375
2155.66425	10325.0375
2158.6212	10300.7375
2161.57625	10299.3375
2164.52941	10270.5375
2167.48067	10292.6375
2170.43004	10284.0375
2173.37752	10241.3375
2176.32311	10264.0375
2179.26681	10276.2375
2182.20863	10286.3375
2185.14856	10260.5375
2188.08661	10243.1375
2191.02278	10263.0375
2193.95707	10247.6375
2196.88948	10203.6375
2199.82001	10180.5375
2202.74867	10188.8375
2205.67545	10158.7375
2208.60037	10126.2375
2211.52341	10130.0375
2214.44458	10114.7375
2217.36388	10089.0375
2220.28132	10055.6375
2223.1969	10023.7375
2226.11061	10017.3375
2229.02246	10005.4375
2231.93245	9983.7375
2234.84058	9910.2375
2237.74686	9908.9375
2240.65128	9914.8375
2243.55385	9924.9375
2246.45456	9901.2375
2249.35343	9888.4375
2252.25044	9890.1375
2255.14561	9869.8375
2258.03893	9873.0375
2260.93041	9849.7375
2263.82004	9820.5375
2266.70783	9820.4375
2269.59378	9783.3375
2272.4779	9764.6375
2275.36017	9739.3375
2278.24061	9716.2375
2281.11922	9677.8375
2283.996	9680.2375
2286.87094	9642.8375
2289.74405	9599.2375
2292.61534	9585.2375
2295.4848	9584.1375
2298.35243	9579.0375
2301.21824	9545.9375
2304.08223	9524.4375
2306.94439	9531.2375
2309.80474	9504.5375
2312.66327	9530.9375
2315.51999	9508.2375
2318.37489	9486.5375
2321.22797	9461.5375
2324.07925	9433.6375
2326.92871	9418.8375
2329.77637	9419.0375
2332.62222	9377.4375
2335.46626	9358.5375
2338.3085	9317.1375
2341.14893	9309.1375
2343.98756	9303.1375
2346.8244	9301.0375
2349.65943	9291.5375
2352.49267	9310.8375
2355.32411	9312.3375
2358.15376	9300.6375
2360.98161	9316.6375
2363.80768	9294.2375
2366.63195	9277.7375
2369.45444	9304.6375
2372.27514	9295.0375
2375.09405	9297.5375
2377.91118	9246.0375
2380.72652	9228.1375
2383.54009	9211.1375
2386.35187	9182.5375
2389.16188	9130.6375
2391.97011	9096.6375
2394.77657	9105.6375
2397.58125	9039.8375
2400.38416	9028.2375
2403.18529	9006.6375
2405.98466	9005.7375
2408.78226	9003.3375
2411.57809	8974.6375
2414.37216	8966.3375
2417.16446	8945.4375
2419.955	8912.5375
2422.74378	8936.6375
2425.5308	8925.5375
2428.31606	8931.3375
2431.09956	8935.0375
2433.88131	8909.9375
2436.6613	8894.8375
2439.43954	8877.0375
2442.21603	8855.6375
2444.99077	8865.1375
2447.76377	8861.5375
2450.53501	8867.0375
2453.30451	8849.5375
2456.07226	8804.5375
2458.83827	8801.4375
2461.60254	8799.7375
2464.36507	8788.5375
2467.12586	8765.7375
2469.88492	8774.9375
2472.64224	8752.5375
2475.39782	8747.1375
2478.15167	8767.5375
2480.90379	8730.5375
2483.65417	8740.8375
2486.40283	8749.3375
2489.14976	8750.2375
2491.89497	8728.7375
2494.63845	8712.4375
2497.3802	8721.9375
2500.12024	8697.1375
2502.85855	8698.3375
2505.59514	8658.9375
2508.33002	8667.1375
2511.06318	8637.5375
2513.79462	8589.9375
2516.52435	8548.7375
2519.25237	8580.9375
2521.97867	8548.5375
2524.70327	8544.0375
2527.42616	8486.7375
2530.14734	8468.5375
2532.86681	8455.9375
2535.58458	8444.3375
2538.30065	8429.1375
2541.01501	8426.9375
2543.72768	8415.1375
2546.43864	8411.5375
2549.14791	8387.0375
2551.85548	8378.9375
2554.56136	8370.6375
2557.26554	8396.5375
2559.96803	8372.7375
2562.66883	8326.2375
2565.36794	8308.3375
2568.06536	8279.3375
2570.7611	8253.6375
2573.45514	8247.4375
2576.14751	8244.6375
2578.83819	8213.0375
2581.52719	8208.7375
2584.21451	8180.7375
2586.90015	8165.7375
2589.58411	8155.2375
2592.2664	8139.1375
2594.94701	8121.4375
2597.62594	8114.9375
2600.30321	8079.7375
2602.9788	8072.7375
2605.65273	8051.3375
2608.32498	8028.5375
2610.99557	8023.9375
2613.66449	8027.6375
2616.33175	8000.1375
2618.99734	7976.8375
2621.66128	7991.3375
2624.32355	7990.9375
2626.98416	7969.4375
2629.64311	7949.3375
2632.30041	7928.8375
2634.95605	7932.4375
2637.61004	7900.8375
2640.26238	7889.6375
2642.91306	7880.6375
2645.56209	7861.8375
2648.20948	7836.1375
2650.85521	7838.2375
2653.4993	7817.9375
2656.14175	7811.2375
2658.78255	7833.8375
2661.42171	7836.1375
2664.05923	7834.8375
2666.6951	7828.7375
2669.32934	7847.8375
2671.96194	7826.6375
2674.59291	7813.9375
2677.22224	7829.3375
2679.84993	7820.3375
2682.476	7828.8375
2685.10043	7798.9375
2687.72324	7784.7375
2690.34441	7797.5375
2692.96396	7772.8375
2695.58188	7792.9375
2698.19818	7761.7375
2700.81285	7772.9375
2703.4259	7770.8375
2706.03733	7757.6375
2708.64714	7762.7375
2711.25533	7774.5375
2713.86191	7744.7375
2716.46687	7759.8375
2719.07021	7777.4375
2721.67194	7759.9375
2724.27206	7763.4375
2726.87057	7755.8375
2729.46747	7744.5375
2732.06276	7730.9375
2734.65644	7724.4375
2737.24852	7733.1375
2739.83899	7723.6375
2742.42786	7710.5375
2745.01513	7672.4375
2747.60079	7677.9375
2750.18486	7659.0375
2752.76733	7649.4375
2755.3482	7618.3375
2757.92747	7623.3375
2760.50515	7593.5375
2763.08123	7564.1375
2765.65573	7574.9375
2768.22863	7569.9375
2770.79994	7549.7375
2773.36967	7554.4375
2775.9378	7522.9375
2778.50435	7532.0375
2781.06932	7515.6375
2783.6327	7507.9375
2786.1945	7464.9375
2788.75471	7479.2375
2791.31335	7443.9375
2793.87041	7440.6375
2796.42589	7433.5375
2798.97979	7431.4375
2801.53212	7405.1375
2804.08288	7387.2375
2806.63206	7363.8375
2809.17967	7334.4375
2811.72571	7339.7375
2814.27018	7315.6375
2816.81308	7325.9375
2819.35442	7287.9375
2821.89419	7277.8375
2824.43239	7264.9375
2826.96904	7281.5375
2829.50412	7263.0375
2832.03763	7243.4375
2834.56959	7225.1375
2837.1	7264.9375
2839.62884	7222.7375
2842.15613	7221.3375
2844.68186	7230.9375
2847.20604	7222.7375
2849.72867	7200.7375
2852.24974	7191.3375
2854.76927	7202.5375
2857.28724	7211.1375
2859.80367	7203.2375
2862.31855	7177.4375
2864.83189	7179.1375
2867.34368	7167.1375
2869.85393	7160.8375
2872.36264	7150.4375
2874.8698	7121.6375
2877.37543	7119.9375
2879.87952	7123.1375
2882.38207	7119.9375
2884.88308	7104.4375
2887.38256	7075.0375
2889.88051	7093.5375
2892.37692	7072.9375
2894.8718	7069.8375
2897.36515	7083.2375
2899.85698	7100.4375
2902.34727	7101.1375
2904.83604	7093.1375
2907.32328	7101.6375
2909.809	7109.8375
2912.29319	7117.6375
2914.77587	7121.2375
2917.25702	7136.8375
2919.73665	7127.4375
2922.21476	7100.9375
2924.69136	7103.3375
2927.16644	7075.6375
2929.64	7052.8375
2932.11205	7047.0375
2934.58258	7021.2375
2937.05161	7059.7375
2939.51912	7032.4375
2941.98513	7020.7375
2944.44962	6992.2375
2946.91261	6973.5375
2949.37409	6985.5375
2951.83407	6957.6375
2954.29254	7000.3375
2956.74951	6984.3375
2959.20498	6968.2375
2961.65895	6948.8375
2964.11142	6960.3375
2966.56239	6960.4375
2969.01186	6971.9375
2971.45984	6946.4375
2973.90632	6944.4375
2976.35131	6953.5375
2978.7948	6913.9375
2981.23681	6883.6375
2983.67732	6905.1375
2986.11635	6889.5375
2988.55388	6849.7375
2990.98993	6854.8375
2993.4245	6818.7375
2995.85758	6822.1375
2998.28917	6790.8375
3000.71928	6795.0375
3003.14791	6744.5375
3005.57506	6757.8375
3008.00073	6745.6375
3010.42493	6755.2375
3012.84764	6730.6375
3015.26888	6744.7375
3017.68865	6710.4375
3020.10694	6696.0375
3022.52376	6672.0375
3024.9391	6683.3375
3027.35298	6667.4375
3029.76539	6662.0375
3032.17632	6669.0375
3034.5858	6642.0375
3036.9938	6636.3375
3039.40034	6625.0375
3041.80542	6603.6375
3044.20903	6559.5375
3046.61118	6594.0375
3049.01187	6569.5375
3051.4111	6565.1375
3053.80888	6546.9375
3056.20519	6537.2375
3058.60005	6515.7375
3060.99345	6517.9375
3063.3854	6477.5375
3065.7759	6494.5375
3068.16494	6476.5375
3070.55254	6444.0375
3072.93868	6442.0375
3075.32338	6406.9375
3077.70662	6398.2375
3080.08842	6413.6375
3082.46878	6417.8375
3084.84769	6406.9375
3087.22515	6374.1375
3089.60118	6379.8375
3091.97576	6388.1375
3094.3489	6378.2375
3096.72061	6380.8375
3099.09087	6397.0375
3101.4597	6378.9375
3103.82709	6378.5375
3106.19305	6379.3375
3108.55757	6378.0375
3110.92066	6364.9375
3113.28232	6349.9375
3115.64255	6351.4375
3118.00134	6328.7375
3120.35871	6333.5375
3122.71466	6318.8375
3125.06917	6314.0375
3127.42226	6290.4375
3129.77393	6295.4375
3132.12417	6287.6375
3134.47299	6274.5375
3136.82039	6264.8375
3139.16636	6264.3375
3141.51092	6277.1375
3143.85406	6290.9375
3146.19579	6288.0375
3148.53609	6297.9375
3150.87499	6305.4375
3153.21246	6292.8375
3155.54853	6303.0375
3157.88318	6327.1375
3160.21642	6335.7375
3162.54826	6347.1375
3164.87868	6298.1375
3167.2077	6307.1375
3169.5353	6305.8375
3171.86151	6326.2375
3174.18631	6320.8375
3176.5097	6319.8375
3178.83169	6291.6375
3181.15228	6297.8375
3183.47147	6296.1375
3185.78926	6270.4375
3188.10565	6269.2375
3190.42065	6265.6375
3192.73424	6265.3375
3195.04645	6234.4375
3197.35725	6263.8375
3199.66667	6260.3375
3201.97469	6237.0375
3204.28132	6233.2375
3206.58656	6246.1375
3208.8904	6251.2375
3211.19287	6246.5375
3213.49394	6246.1375
3215.79363	6264.2375
3218.09193	6273.4375
3220.38884	6270.3375
3222.68438	6262.3375
3224.97853	6260.2375
3227.2713	6281.9375
3229.56269	6269.8375
3231.8527	6259.0375
3234.14133	6221.2375
3236.42858	6221.7375
3238.71446	6222.1375
3240.99896	6188.6375
3243.28209	6200.5375
3245.56384	6182.9375
3247.84423	6174.1375
3250.12324	6155.5375
3252.40088	6172.3375
3254.67715	6157.9375
3256.95205	6175.7375
3259.22558	6159.5375
3261.49775	6149.6375
3263.76855	6165.0375
3266.03799	6156.0375
3268.30606	6127.9375
3270.57277	6102.7375
3272.83812	6095.8375
3275.10211	6102.1375
3277.36474	6072.2375
3279.62601	6054.6375
3281.88593	6048.5375
3284.14448	6054.1375
3286.40168	6053.2375
3288.65753	6054.1375
3290.91202	6051.8375
3293.16516	6013.9375
3295.41695	6046.8375
3297.66738	5997.9375
3299.91647	5978.5375
3302.16421	5931.1375
3304.4106	5911.0375
3306.65564	5867.8375
3308.89933	5829.8375
3311.14169	5794.4375
3313.38269	5771.2375
3315.62236	5748.1375
3317.86068	5683.0375
3320.09766	5630.0375
3322.3333	5591.9375
3324.5676	5565.8375
3326.80056	5476.9375
3329.03219	5440.5375
3331.26248	1.0375
3333.49143	1.4375
3335.71905	0.8375
