Data from AgNPs_UA_20uM_CRN_0uM_R6G_10uM_Q_RamanShift__10__12-48-02-014.txt Node

Date: Mon Jul 18 12:48:02 BST 2022
User: TCL
Spectrometer: QEP01345
Trigger mode: 4
Integration Time (sec): 7.000000E0
Scans to average: 10
Electric dark correction enabled: true
Nonlinearity correction enabled: false
Boxcar width: 0
XAxis mode: Raman Shifts
Number of Pixels in Spectrum: 1044
>>>>>Begin Spectral Data<<<<<
46.04893	-0.9875
50.45542	-1.0875
54.85868	0.3125
59.25871	-0.4875
63.6555	118.7125
68.04907	128.1125
72.43941	130.2125
76.82654	138.5125
81.21044	140.3125
85.59113	145.2125
89.96862	150.2125
94.34289	156.2125
98.71396	163.5125
103.08183	168.2125
107.4465	173.4125
111.80798	177.9125
116.16626	184.0125
120.52136	189.0125
124.87327	201.0125
129.222	207.6125
133.56755	224.1125
137.90993	245.9125
142.24913	268.0125
146.58517	306.3125
150.91804	356.7125
155.24774	427.9125
159.57429	532.9125
163.89768	688.7125
168.21792	907.0125
172.53501	1246.4125
176.84895	1741.6125
181.15975	2451.7125
185.46741	3448.8125
189.77193	4740.9125
194.07331	6360.4125
198.37157	8176.1125
202.6667	10086.4125
206.9587	11987.2125
211.24758	13880.0125
215.53334	15735.4125
219.81599	17757.6125
224.09553	20016.6125
228.37195	22475.4125
232.64527	25152.6125
236.91549	27894.2125
241.18261	30618.9125
245.44663	33019.2125
249.70755	35136.5125
253.96539	37017.9125
258.22014	38569.3125
262.4718	39846.4125
266.72039	40740.6125
270.96589	41155.9125
275.20832	41208.6125
279.44768	41032.5125
283.68397	40657.0125
287.91719	40533.2125
292.14735	40533.3125
296.37445	40784.1125
300.59849	41250.4125
304.81948	41774.1125
309.03742	42138.5125
313.25231	42068.0125
317.46415	41304.1125
321.67296	40132.3125
325.87872	39123.7125
330.08145	38725.2125
334.28114	38715.9125
338.47781	39152.0125
342.67145	39647.4125
346.86207	40313.1125
351.04966	41109.8125
355.23424	42042.0125
359.4158	42724.1125
363.59435	43238.6125
367.76989	43428.5125
371.94243	43491.4125
376.11196	43504.5125
380.27849	43541.8125
384.44203	43671.2125
388.60257	43894.0125
392.76012	44259.1125
396.91468	44780.3125
401.06626	45383.5125
405.21485	45801.2125
409.36047	45426.7125
413.50311	44675.3125
417.64277	44103.9125
421.77947	43940.4125
425.9132	43968.0125
430.04396	44220.1125
434.17176	44440.3125
438.2966	44715.0125
442.41849	45155.6125
446.53742	45940.9125
450.6534	46891.6125
454.76644	47499.9125
458.87653	47652.0125
462.98368	47669.7125
467.08789	47542.7125
471.18916	47112.2125
475.2875	46587.8125
479.38291	46214.2125
483.4754	45710.5125
487.56496	45395.4125
491.6516	45203.4125
495.73531	45056.7125
499.81612	45105.5125
503.89401	45352.8125
507.96899	45542.3125
512.04106	45621.9125
516.11023	45663.7125
520.1765	45534.8125
524.23987	45336.9125
528.30034	45139.0125
532.35792	44919.0125
536.41261	44592.4125
540.46441	44403.3125
544.51333	44522.5125
548.55936	45073.2125
552.60252	45837.9125
556.64279	46522.0125
560.6802	46940.2125
564.71473	47265.7125
568.7464	47882.2125
572.7752	48645.5125
576.80114	49262.1125
580.82422	49870.3125
584.84444	50460.1125
588.86181	50711.9125
592.87633	50909.9125
596.888	50913.6125
600.89682	51383.1125
604.9028	53698.5125
608.90594	59390.9125
612.90624	64382.0125
616.90371	59483.3125
620.89834	50244.3125
624.89015	46515.7125
628.87913	46279.3125
632.86528	46861.0125
636.84862	47260.2125
640.82913	46661.9125
644.80683	45649.7125
648.78172	44867.7125
652.75379	44929.4125
656.72306	45680.1125
660.68952	46531.1125
664.65319	46205.4125
668.61405	45629.5125
672.57211	45531.6125
676.52738	45654.6125
680.47986	45431.6125
684.42955	45107.7125
688.37646	45078.7125
692.32058	45274.1125
696.26192	45784.7125
700.20048	46311.0125
704.13626	46609.7125
708.06928	46606.2125
711.99952	46266.2125
715.927	46132.6125
719.85171	46150.0125
723.77365	46073.9125
727.69284	45673.4125
731.60928	45194.4125
735.52295	45168.3125
739.43388	45216.9125
743.34206	45377.3125
747.24749	45448.4125
751.15017	45694.4125
755.05012	46306.0125
758.94733	47727.3125
762.8418	50705.6125
766.73354	54995.1125
770.62254	58323.1125
774.50882	58586.1125
778.39237	55989.8125
782.27321	52324.9125
786.15132	49219.8125
790.02671	47132.9125
793.89938	46085.8125
797.76935	45593.8125
801.6366	45321.9125
805.50115	45193.0125
809.36299	44969.4125
813.22213	44809.1125
817.07857	44714.7125
820.93231	44738.0125
824.78336	44723.0125
828.63172	44780.1125
832.47738	44647.5125
836.32036	44614.2125
840.16066	44535.3125
843.99827	44533.5125
847.8332	44543.4125
851.66546	44699.9125
855.49504	44810.1125
859.32195	44745.9125
863.1462	44725.9125
866.96777	44787.7125
870.78668	44780.6125
874.60293	44833.6125
878.41652	44941.1125
882.22745	45157.2125
886.03573	45278.5125
889.84136	45295.8125
893.64433	45140.3125
897.44466	44997.7125
901.24235	44884.9125
905.0374	44770.5125
908.8298	44798.2125
912.61957	44730.1125
916.40671	45026.4125
920.19121	45299.5125
923.97308	45569.9125
927.75233	45640.0125
931.52895	45538.6125
935.30295	45120.8125
939.07433	44534.8125
942.84309	43982.8125
946.60924	43797.9125
950.37278	43606.5125
954.13371	43577.6125
957.89203	43623.2125
961.64774	43643.1125
965.40086	43522.6125
969.15137	43496.8125
972.89929	43403.3125
976.64461	43415.2125
980.38733	43420.3125
984.12747	43483.6125
987.86502	43652.7125
991.59999	43738.5125
995.33237	43926.9125
999.06217	44300.4125
1002.78939	44885.6125
1006.51404	45430.6125
1010.23611	46009.5125
1013.95561	46380.7125
1017.67255	46378.7125
1021.38692	46108.4125
1025.09872	45740.9125
1028.80796	45356.9125
1032.51465	45159.0125
1036.21877	45268.3125
1039.92035	45473.7125
1043.61937	45658.8125
1047.31584	45705.0125
1051.00976	45858.6125
1054.70114	46033.8125
1058.38998	46331.9125
1062.07627	46727.8125
1065.76003	47258.7125
1069.44126	47819.5125
1073.11995	48559.0125
1076.79611	49265.9125
1080.46974	49638.8125
1084.14085	49980.6125
1087.80943	50426.7125
1091.47549	50693.8125
1095.13903	50424.0125
1098.80005	49780.0125
1102.45857	49033.6125
1106.11456	48419.1125
1109.76805	48070.3125
1113.41903	48028.4125
1117.06751	48377.4125
1120.71348	49054.1125
1124.35696	49805.2125
1127.99793	50356.8125
1131.63641	50265.3125
1135.2724	49589.8125
1138.90589	49101.1125
1142.5369	48873.2125
1146.16542	48700.6125
1149.79145	48718.6125
1153.415	48838.4125
1157.03607	49110.6125
1160.65467	49862.1125
1164.27079	51233.3125
1167.88443	52975.5125
1171.49561	55354.6125
1175.10432	58650.5125
1178.71056	62631.4125
1182.31434	66100.9125
1185.91565	67833.4125
1189.51451	67947.7125
1193.11091	66956.9125
1196.70485	65066.6125
1200.29634	62939.6125
1203.88538	60804.3125
1207.47197	58704.1125
1211.05612	56867.6125
1214.63782	55545.0125
1218.21708	54534.6125
1221.79391	53660.1125
1225.36829	53155.0125
1228.94024	52963.4125
1232.50976	52831.3125
1236.07685	52836.1125
1239.6415	52783.6125
1243.20374	52828.6125
1246.76355	53062.7125
1250.32093	53501.6125
1253.8759	54161.0125
1257.42845	55255.0125
1260.97859	56615.8125
1264.52631	57895.1125
1268.07163	59075.9125
1271.61453	60016.2125
1275.15503	60913.3125
1278.69312	61695.6125
1282.22882	62407.8125
1285.76211	63456.2125
1289.29301	64778.1125
1292.82151	66301.9125
1296.34761	68019.7125
1299.87133	70399.0125
1303.39266	73431.3125
1306.9116	77173.8125
1310.42815	80681.0125
1313.94233	82286.2125
1317.45412	81225.9125
1320.96354	79302.3125
1324.47058	77558.5125
1327.97525	76176.3125
1331.47754	75504.5125
1334.97747	75572.0125
1338.47502	76242.7125
1341.97022	77543.6125
1345.46305	79282.9125
1348.95352	81258.8125
1352.44163	82836.1125
1355.92738	84544.9125
1359.41078	87362.8125
1362.89183	89905.8125
1366.37053	87351.8125
1369.84688	79729.0125
1373.32088	71845.5125
1376.79254	66530.6125
1380.26186	63845.5125
1383.72883	62671.2125
1387.19347	61752.5125
1390.65578	60627.0125
1394.11575	59674.8125
1397.57339	58941.8125
1401.0287	58519.8125
1404.48168	58226.5125
1407.93234	58002.2125
1411.38068	57687.4125
1414.82669	57162.6125
1418.27039	56220.1125
1421.71177	55291.6125
1425.15083	54589.5125
1428.58758	54085.2125
1432.02203	54323.8125
1435.45416	55036.1125
1438.88399	55632.0125
1442.31151	56013.8125
1445.73673	56490.6125
1449.15965	56795.8125
1452.58027	57028.3125
1455.9986	57060.6125
1459.41463	57364.0125
1462.82837	58103.1125
1466.23982	58983.0125
1469.64898	59874.5125
1473.05586	60717.5125
1476.46045	61137.1125
1479.86276	61426.7125
1483.26279	61852.4125
1486.66054	62548.5125
1490.05602	63626.4125
1493.44922	65380.9125
1496.84016	67962.0125
1500.22882	71985.8125
1503.61521	77118.5125
1506.99934	82071.4125
1510.38121	85053.7125
1513.76081	84375.9125
1517.13816	80281.5125
1520.51324	74954.7125
1523.88607	70653.8125
1527.25665	68134.9125
1530.62498	66883.7125
1533.99105	65992.4125
1537.35488	64955.9125
1540.71647	63923.7125
1544.07581	62870.7125
1547.4329	61695.6125
1550.78776	60744.2125
1554.14038	60202.9125
1557.49077	60046.3125
1560.83892	60276.3125
1564.18484	60979.9125
1567.52853	61729.3125
1570.86999	62444.1125
1574.20922	63058.5125
1577.54624	62941.9125
1580.88103	61592.5125
1584.2136	60161.3125
1587.54395	59511.2125
1590.87208	60068.5125
1594.19801	61847.6125
1597.52172	63860.2125
1600.84321	64436.8125
1604.16251	63164.7125
1607.47959	61211.5125
1610.79447	58670.3125
1614.10715	55918.6125
1617.41763	53292.7125
1620.7259	51182.5125
1624.03199	49996.4125
1627.33587	49754.2125
1630.63757	50326.6125
1633.93707	51975.6125
1637.23439	55041.2125
1640.52951	59673.1125
1643.82246	65325.0125
1647.11321	70630.5125
1650.40179	72827.2125
1653.68819	69929.7125
1656.97241	63366.3125
1660.25446	56354.3125
1663.53433	51049.1125
1666.81203	47569.1125
1670.08756	45373.4125
1673.36092	43928.4125
1676.63211	43082.1125
1679.90115	42432.9125
1683.16801	41870.9125
1686.43272	41453.7125
1689.69527	41138.7125
1692.95567	40874.4125
1696.2139	40735.2125
1699.46999	40532.3125
1702.72392	40485.4125
1705.97571	40397.5125
1709.22535	40331.4125
1712.47284	40352.6125
1715.71819	40293.2125
1718.96139	40266.9125
1722.20246	40110.5125
1725.44139	40001.7125
1728.67818	39813.4125
1731.91284	39600.5125
1735.14537	39442.2125
1738.37576	39298.5125
1741.60403	39191.7125
1744.83017	39023.5125
1748.05418	38963.8125
1751.27607	38908.5125
1754.49584	38824.6125
1757.71349	38814.3125
1760.92903	38732.0125
1764.14244	38675.8125
1767.35375	38673.8125
1770.56294	38634.3125
1773.77002	38546.2125
1776.97499	38472.2125
1780.17785	38393.0125
1783.37861	38344.2125
1786.57727	38229.5125
1789.77382	38161.2125
1792.96828	38077.6125
1796.16064	38066.6125
1799.3509	37976.6125
1802.53907	37863.0125
1805.72514	37773.3125
1808.90913	37713.9125
1812.09102	37684.0125
1815.27083	37519.8125
1818.44856	37558.5125
1821.6242	37528.0125
1824.79776	37404.9125
1827.96924	37386.7125
1831.13864	37310.2125
1834.30597	37306.4125
1837.47122	37298.8125
1840.6344	37242.8125
1843.7955	37199.1125
1846.95454	37148.6125
1850.11151	37217.7125
1853.26642	37180.5125
1856.41926	37115.9125
1859.57004	37120.4125
1862.71876	37054.7125
1865.86542	37111.1125
1869.01003	37078.2125
1872.15258	36980.3125
1875.29308	36888.4125
1878.43152	36843.7125
1881.56792	36766.7125
1884.70227	36741.9125
1887.83457	36674.9125
1890.96482	36642.7125
1894.09304	36599.7125
1897.21921	36597.2125
1900.34335	36498.4125
1903.46544	36369.5125
1906.58551	36336.6125
1909.70353	36299.5125
1912.81953	36255.4125
1915.93349	36247.0125
1919.04543	36157.2125
1922.15534	36114.1125
1925.26322	36042.2125
1928.36908	36025.3125
1931.47292	35929.5125
1934.57473	35810.2125
1937.67453	35741.3125
1940.77232	35576.9125
1943.86808	35476.6125
1946.96184	35396.9125
1950.05358	35236.0125
1953.14331	35158.3125
1956.23103	35025.4125
1959.31675	34968.3125
1962.40046	34818.5125
1965.48217	34747.3125
1968.56188	34688.6125
1971.63959	34583.2125
1974.7153	34486.5125
1977.78901	34369.8125
1980.86073	34251.2125
1983.93046	34194.5125
1986.99819	34031.4125
1990.06394	33951.5125
1993.1277	33846.1125
1996.18947	33761.8125
1999.24925	33705.4125
2002.30706	33595.8125
2005.36288	33509.1125
2008.41672	33444.9125
2011.46859	33331.0125
2014.51848	33269.2125
2017.56639	33147.6125
2020.61233	33092.2125
2023.6563	33029.9125
2026.6983	32917.1125
2029.73833	32798.0125
2032.7764	32718.4125
2035.8125	32583.1125
2038.84664	32548.4125
2041.87881	32536.2125
2044.90903	32442.7125
2047.93729	32322.3125
2050.96359	32326.2125
2053.98794	32246.1125
2057.01034	32226.2125
2060.03078	32214.3125
2063.04927	32217.3125
2066.06582	32206.6125
2069.08042	32193.9125
2072.09307	32139.9125
2075.10378	32160.4125
2078.11255	32177.8125
2081.11938	32135.9125
2084.12426	32056.5125
2087.12722	32049.3125
2090.12824	32062.2125
2093.12732	32084.6125
2096.12447	32063.5125
2099.11969	32066.0125
2102.11299	32013.9125
2105.10435	32071.5125
2108.09379	32078.4125
2111.08131	32124.8125
2114.0669	32088.7125
2117.05057	32060.9125
2120.03233	32091.7125
2123.01216	32089.8125
2125.99008	32165.0125
2128.96609	32229.9125
2131.94018	32309.4125
2134.91236	32312.9125
2137.88263	32307.6125
2140.851	32358.2125
2143.81746	32387.0125
2146.78201	32358.1125
2149.74466	32414.1125
2152.7054	32354.0125
2155.66425	32318.3125
2158.6212	32270.1125
2161.57625	32229.1125
2164.52941	32270.1125
2167.48067	32321.6125
2170.43004	32262.3125
2173.37752	32217.7125
2176.32311	32200.7125
2179.26681	32150.8125
2182.20863	32160.5125
2185.14856	32192.6125
2188.08661	32195.0125
2191.02278	32127.6125
2193.95707	32148.5125
2196.88948	32086.6125
2199.82001	32038.3125
2202.74867	31991.1125
2205.67545	31984.2125
2208.60037	31942.6125
2211.52341	31861.3125
2214.44458	31833.0125
2217.36388	31765.2125
2220.28132	31662.9125
2223.1969	31582.0125
2226.11061	31563.8125
2229.02246	31440.6125
2231.93245	31460.4125
2234.84058	31389.1125
2237.74686	31379.6125
2240.65128	31316.9125
2243.55385	31267.4125
2246.45456	31271.6125
2249.35343	31116.5125
2252.25044	31104.2125
2255.14561	31077.2125
2258.03893	31036.7125
2260.93041	31016.7125
2263.82004	30945.2125
2266.70783	30897.6125
2269.59378	30828.1125
2272.4779	30807.5125
2275.36017	30742.3125
2278.24061	30723.7125
2281.11922	30608.7125
2283.996	30621.1125
2286.87094	30522.0125
2289.74405	30440.9125
2292.61534	30441.9125
2295.4848	30427.4125
2298.35243	30415.2125
2301.21824	30410.4125
2304.08223	30415.4125
2306.94439	30269.7125
2309.80474	30238.4125
2312.66327	30247.5125
2315.51999	30210.5125
2318.37489	30205.1125
2321.22797	30161.8125
2324.07925	30121.2125
2326.92871	30043.5125
2329.77637	30037.5125
2332.62222	29989.6125
2335.46626	29923.1125
2338.3085	29842.1125
2341.14893	29802.7125
2343.98756	29800.0125
2346.8244	29859.6125
2349.65943	29889.9125
2352.49267	29877.6125
2355.32411	29839.0125
2358.15376	29775.6125
2360.98161	29783.6125
2363.80768	29807.2125
2366.63195	29819.4125
2369.45444	29810.1125
2372.27514	29738.9125
2375.09405	29704.3125
2377.91118	29603.6125
2380.72652	29531.2125
2383.54009	29446.1125
2386.35187	29399.5125
2389.16188	29345.6125
2391.97011	29319.0125
2394.77657	29233.6125
2397.58125	29201.3125
2400.38416	29148.2125
2403.18529	29107.5125
2405.98466	29142.7125
2408.78226	29033.3125
2411.57809	29001.7125
2414.37216	28895.8125
2417.16446	28893.1125
2419.955	28801.0125
2422.74378	28839.6125
2425.5308	28812.5125
2428.31606	28799.8125
2431.09956	28804.9125
2433.88131	28725.3125
2436.6613	28707.1125
2439.43954	28716.7125
2442.21603	28721.8125
2444.99077	28668.3125
2447.76377	28665.0125
2450.53501	28662.0125
2453.30451	28605.6125
2456.07226	28592.8125
2458.83827	28559.5125
2461.60254	28584.4125
2464.36507	28517.9125
2467.12586	28502.2125
2469.88492	28476.4125
2472.64224	28479.9125
2475.39782	28412.6125
2478.15167	28489.3125
2480.90379	28422.3125
2483.65417	28490.6125
2486.40283	28457.9125
2489.14976	28504.0125
2491.89497	28470.3125
2494.63845	28474.4125
2497.3802	28458.5125
2500.12024	28425.3125
2502.85855	28388.5125
2505.59514	28367.5125
2508.33002	28256.0125
2511.06318	28165.2125
2513.79462	28177.6125
2516.52435	28072.8125
2519.25237	28141.3125
2521.97867	28115.0125
2524.70327	28076.8125
2527.42616	28037.5125
2530.14734	27986.2125
2532.86681	27894.4125
2535.58458	27926.9125
2538.30065	27902.4125
2541.01501	27929.2125
2543.72768	27853.1125
2546.43864	27814.7125
2549.14791	27748.7125
2551.85548	27742.5125
2554.56136	27688.6125
2557.26554	27627.6125
2559.96803	27602.4125
2562.66883	27506.1125
2565.36794	27487.6125
2568.06536	27455.2125
2570.7611	27376.4125
2573.45514	27299.2125
2576.14751	27313.9125
2578.83819	27233.5125
2581.52719	27236.6125
2584.21451	27168.4125
2586.90015	27105.3125
2589.58411	27042.4125
2592.2664	27083.2125
2594.94701	26994.1125
2597.62594	27015.8125
2600.30321	26939.1125
2602.9788	26913.0125
2605.65273	26863.4125
2608.32498	26815.3125
2610.99557	26810.1125
2613.66449	26794.0125
2616.33175	26783.0125
2618.99734	26774.7125
2621.66128	26701.4125
2624.32355	26689.4125
2626.98416	26605.8125
2629.64311	26537.2125
2632.30041	26481.5125
2634.95605	26475.4125
2637.61004	26454.6125
2640.26238	26434.5125
2642.91306	26413.8125
2645.56209	26368.2125
2648.20948	26366.2125
2650.85521	26344.0125
2653.4993	26333.2125
2656.14175	26358.6125
2658.78255	26394.4125
2661.42171	26420.4125
2664.05923	26453.8125
2666.6951	26456.5125
2669.32934	26450.6125
2671.96194	26412.5125
2674.59291	26416.2125
2677.22224	26358.6125
2679.84993	26377.5125
2682.476	26383.8125
2685.10043	26372.7125
2687.72324	26325.8125
2690.34441	26320.4125
2692.96396	26318.1125
2695.58188	26387.8125
2698.19818	26335.2125
2700.81285	26298.8125
2703.4259	26270.4125
2706.03733	26278.9125
2708.64714	26274.5125
2711.25533	26301.5125
2713.86191	26251.9125
2716.46687	26314.4125
2719.07021	26313.0125
2721.67194	26356.6125
2724.27206	26352.7125
2726.87057	26389.9125
2729.46747	26333.8125
2732.06276	26392.6125
2734.65644	26371.7125
2737.24852	26351.8125
2739.83899	26280.9125
2742.42786	26265.2125
2745.01513	26164.5125
2747.60079	26143.4125
2750.18486	26161.6125
2752.76733	26172.9125
2755.3482	26079.5125
2757.92747	26087.7125
2760.50515	26062.1125
2763.08123	26004.8125
2765.65573	25962.9125
2768.22863	26015.5125
2770.79994	25912.1125
2773.36967	25925.5125
2775.9378	25825.0125
2778.50435	25810.5125
2781.06932	25742.1125
2783.6327	25727.4125
2786.1945	25708.0125
2788.75471	25673.3125
2791.31335	25620.0125
2793.87041	25604.0125
2796.42589	25546.2125
2798.97979	25569.4125
2801.53212	25517.3125
2804.08288	25505.4125
2806.63206	25454.8125
2809.17967	25409.0125
2811.72571	25298.1125
2814.27018	25256.3125
2816.81308	25187.0125
2819.35442	25153.8125
2821.89419	25106.9125
2824.43239	25082.0125
2826.96904	25088.9125
2829.50412	25086.7125
2832.03763	24999.5125
2834.56959	24971.2125
2837.1	24925.3125
2839.62884	24921.9125
2842.15613	24843.4125
2844.68186	24830.3125
2847.20604	24777.1125
2849.72867	24806.7125
2852.24974	24782.4125
2854.76927	24774.4125
2857.28724	24747.4125
2859.80367	24695.9125
2862.31855	24661.6125
2864.83189	24610.6125
2867.34368	24595.8125
2869.85393	24564.1125
2872.36264	24527.4125
2874.8698	24486.9125
2877.37543	24497.1125
2879.87952	24436.0125
2882.38207	24421.1125
2884.88308	24391.7125
2887.38256	24477.0125
2889.88051	24412.5125
2892.37692	24436.4125
2894.8718	24362.1125
2897.36515	24428.7125
2899.85698	24417.8125
2902.34727	24437.7125
2904.83604	24469.9125
2907.32328	24551.0125
2909.809	24513.4125
2912.29319	24560.7125
2914.77587	24540.7125
2917.25702	24560.0125
2919.73665	24528.3125
2922.21476	24537.4125
2924.69136	24481.1125
2927.16644	24480.1125
2929.64	24384.3125
2932.11205	24341.1125
2934.58258	24252.5125
2937.05161	24283.9125
2939.51912	24243.9125
2941.98513	24254.1125
2944.44962	24190.3125
2946.91261	24134.9125
2949.37409	24213.5125
2951.83407	24175.7125
2954.29254	24215.0125
2956.74951	24177.7125
2959.20498	24172.0125
2961.65895	24144.3125
2964.11142	24179.8125
2966.56239	24150.0125
2969.01186	24122.3125
2971.45984	24075.8125
2973.90632	24087.3125
2976.35131	24062.6125
2978.7948	24036.0125
2981.23681	23974.3125
2983.67732	23968.5125
2986.11635	23935.8125
2988.55388	23871.6125
2990.98993	23790.7125
2993.4245	23756.8125
2995.85758	23698.7125
2998.28917	23621.7125
3000.71928	23524.6125
3003.14791	23444.1125
3005.57506	23426.2125
3008.00073	23354.9125
3010.42493	23330.1125
3012.84764	23282.5125
3015.26888	23255.1125
3017.68865	23178.6125
3020.10694	23191.7125
3022.52376	23143.5125
3024.9391	23151.7125
3027.35298	23148.2125
3029.76539	23092.2125
3032.17632	23042.1125
3034.5858	23032.5125
3036.9938	23010.2125
3039.40034	22980.7125
3041.80542	22956.2125
3044.20903	22863.8125
3046.61118	22856.1125
3049.01187	22792.7125
3051.4111	22801.4125
3053.80888	22769.0125
3056.20519	22736.9125
3058.60005	22696.1125
3060.99345	22666.7125
3063.3854	22570.8125
3065.7759	22512.0125
3068.16494	22441.5125
3070.55254	22390.2125
3072.93868	22349.7125
3075.32338	22247.4125
3077.70662	22203.7125
3080.08842	22144.9125
3082.46878	22160.8125
3084.84769	22165.0125
3087.22515	22170.1125
3089.60118	22122.3125
3091.97576	22084.5125
3094.3489	22052.6125
3096.72061	22055.5125
3099.09087	22108.5125
3101.4597	22027.6125
3103.82709	22039.6125
3106.19305	22034.3125
3108.55757	22036.9125
3110.92066	21970.1125
3113.28232	21984.4125
3115.64255	21936.6125
3118.00134	21852.4125
3120.35871	21807.4125
3122.71466	21746.4125
3125.06917	21678.9125
3127.42226	21613.8125
3129.77393	21627.4125
3132.12417	21607.8125
3134.47299	21586.5125
3136.82039	21521.2125
3139.16636	21514.4125
3141.51092	21503.6125
3143.85406	21524.5125
3146.19579	21501.2125
3148.53609	21528.4125
3150.87499	21549.3125
3153.21246	21573.1125
3155.54853	21580.7125
3157.88318	21567.0125
3160.21642	21529.3125
3162.54826	21511.7125
3164.87868	21567.5125
3167.2077	21545.1125
3169.5353	21536.5125
3171.86151	21544.4125
3174.18631	21465.6125
3176.5097	21389.6125
3178.83169	21407.7125
3181.15228	21440.2125
3183.47147	21360.5125
3185.78926	21305.1125
3188.10565	21252.7125
3190.42065	21225.8125
3192.73424	21216.5125
3195.04645	21198.9125
3197.35725	21195.0125
3199.66667	21171.2125
3201.97469	21177.9125
3204.28132	21146.9125
3206.58656	21169.4125
3208.8904	21176.6125
3211.19287	21177.7125
3213.49394	21146.6125
3215.79363	21167.2125
3218.09193	21166.4125
3220.38884	21176.0125
3222.68438	21198.6125
3224.97853	21147.4125
3227.2713	21172.0125
3229.56269	21144.4125
3231.8527	21108.1125
3234.14133	21065.4125
3236.42858	21002.5125
3238.71446	21062.4125
3240.99896	20955.9125
3243.28209	20930.0125
3245.56384	20833.0125
3247.84423	20828.2125
3250.12324	20774.2125
3252.40088	20775.7125
3254.67715	20771.4125
3256.95205	20762.3125
3259.22558	20741.4125
3261.49775	20722.5125
3263.76855	20728.1125
3266.03799	20675.2125
3268.30606	20654.8125
3270.57277	20626.1125
3272.83812	20540.4125
3275.10211	20549.1125
3277.36474	20489.8125
3279.62601	20444.5125
3281.88593	20463.8125
3284.14448	20435.3125
3286.40168	20426.4125
3288.65753	20425.5125
3290.91202	20431.9125
3293.16516	20371.9125
3295.41695	20347.6125
3297.66738	20271.1125
3299.91647	20147.1125
3302.16421	20038.2125
3304.4106	19942.7125
3306.65564	19829.5125
3308.89933	19660.3125
3311.14169	19527.2125
3313.38269	19396.9125
3315.62236	19294.4125
3317.86068	19212.4125
3320.09766	19085.7125
3322.3333	18956.0125
3324.5676	18848.7125
3326.80056	18595.2125
3329.03219	18474.7125
3331.26248	3.3125
3333.49143	-0.7875
3335.71905	1.1125
