Data from AgNPs_UA_100uM_CRN_0uM_R6G_10uM_Q_RamanShift__27__13-43-55-344.txt Node

Date: Tue Jul 26 13:43:55 BST 2022
User: TCL
Spectrometer: QEP01345
Trigger mode: 4
Integration Time (sec): 7.000000E0
Scans to average: 10
Electric dark correction enabled: true
Nonlinearity correction enabled: false
Boxcar width: 0
XAxis mode: Raman Shifts
Number of Pixels in Spectrum: 1044
>>>>>Begin Spectral Data<<<<<
46.04893	-0.5
50.45542	1.6
54.85868	-1.3
59.25871	-0.1
63.6555	53
68.04907	57.6
72.43941	61.4
76.82654	68.5
81.21044	65
85.59113	70.8
89.96862	76.9
94.34289	76.6
98.71396	77.7
103.08183	80.7
107.4465	79.1
111.80798	82.9
116.16626	81.7
120.52136	85
124.87327	82.9
129.222	90.9
133.56755	91.2
137.90993	94.2
142.24913	98.4
146.58517	100.3
150.91804	110.2
155.24774	125.7
159.57429	147.6
163.89768	179.4
168.21792	228.2
172.53501	297
176.84895	396.9
181.15975	552.3
185.46741	763.8
189.77193	1036.7
194.07331	1380.3
198.37157	1775.3
202.6667	2183.3
206.9587	2599.6
211.24758	3017.2
215.53334	3458.6
219.81599	3944.1
224.09553	4470.1
228.37195	5057.4
232.64527	5723
236.91549	6354.9
241.18261	6950
245.44663	7398.9
249.70755	7778
253.96539	8117
258.22014	8402.9
262.4718	8648
266.72039	8840.8
270.96589	8890.1
275.20832	8812.4
279.44768	8635.1
283.68397	8439.8
287.91719	8358.9
292.14735	8355.8
296.37445	8505.6
300.59849	8806.5
304.81948	9190.6
309.03742	9425.4
313.25231	9397.7
317.46415	9057.4
321.67296	8514
325.87872	8077.7
330.08145	7889.3
334.28114	7932
338.47781	8085.9
342.67145	8296.2
346.86207	8603.1
351.04966	9051.6
355.23424	9578.7
359.4158	9949.3
363.59435	10205.7
367.76989	10301
371.94243	10288.7
376.11196	10276.6
380.27849	10273.5
384.44203	10208.1
388.60257	10137.7
392.76012	10076.9
396.91468	10139.6
401.06626	10343.9
405.21485	10471.7
409.36047	10285.6
413.50311	9883.4
417.64277	9468.7
421.77947	9255.7
425.9132	9176.1
430.04396	9181.2
434.17176	9243.7
438.2966	9378.6
442.41849	9548
446.53742	9800.5
450.6534	9990.4
454.76644	10121.6
458.87653	10176.3
462.98368	10097.1
467.08789	10009.6
471.18916	9860.9
475.2875	9673.5
479.38291	9525.9
483.4754	9406.1
487.56496	9354.1
491.6516	9316.8
495.73531	9323.9
499.81612	9313.2
503.89401	9425.5
507.96899	9524.2
512.04106	9610.3
516.11023	9799.3
520.1765	9919.7
524.23987	9952.5
528.30034	9890.6
532.35792	9793.6
536.41261	9700.6
540.46441	9604.2
544.51333	9527.4
548.55936	9545.9
552.60252	9688.3
556.64279	9846.9
560.6802	9937.3
564.71473	10063.2
568.7464	10360.2
572.7752	10416
576.80114	10103.5
580.82422	9839.3
584.84444	9754.6
588.86181	9838.8
592.87633	9947.9
596.888	10162.5
600.89682	10544.9
604.9028	11780.5
608.90594	14642.5
612.90624	17755.8
616.90371	16526.5
620.89834	12477.5
624.89015	10798.6
628.87913	10629.3
632.86528	10717.2
636.84862	10824.1
640.82913	10594
644.80683	10138.7
648.78172	9893.5
652.75379	9908.6
656.72306	10192
660.68952	10518.1
664.65319	10356.5
668.61405	10000
672.57211	9835.9
676.52738	9819.9
680.47986	9798.2
684.42955	9756.3
688.37646	9751.1
692.32058	9823.9
696.26192	9883
700.20048	9967.3
704.13626	10004.8
708.06928	9972
711.99952	9875.5
715.927	9905.6
719.85171	9984.4
723.77365	10022.2
727.69284	10006.7
731.60928	9938
735.52295	9944
739.43388	9991.5
743.34206	10025.3
747.24749	10078.8
751.15017	10097.6
755.05012	10237.5
758.94733	10661.8
762.8418	11640.8
766.73354	13135.3
770.62254	14603.2
774.50882	15240.5
778.39237	14576.2
782.27321	12959.5
786.15132	11499.8
790.02671	10672
793.89938	10314.8
797.76935	10176.8
801.6366	10135.5
805.50115	10115.9
809.36299	10129.1
813.22213	10110.9
817.07857	10092.6
820.93231	10080.9
824.78336	10113
828.63172	10114.6
832.47738	10132.4
836.32036	10123.6
840.16066	10117
843.99827	10116.3
847.8332	10087.2
851.66546	10102.7
855.49504	10103.7
859.32195	10102.6
863.1462	10070.7
866.96777	10040.6
870.78668	10034.6
874.60293	10072.6
878.41652	10146.2
882.22745	10228.6
886.03573	10318.4
889.84136	10305.7
893.64433	10247.5
897.44466	10224.5
901.24235	10184.4
905.0374	10119.3
908.8298	10076.7
912.61957	10057
916.40671	10053.7
920.19121	10109.6
923.97308	10209
927.75233	10363.6
931.52895	10467.1
935.30295	10405.2
939.07433	10184.5
942.84309	10051.7
946.60924	9973.3
950.37278	9903.8
954.13371	9853.1
957.89203	9810.8
961.64774	9789.3
965.40086	9764.7
969.15137	9739.3
972.89929	9712.5
976.64461	9717.9
980.38733	9726.4
984.12747	9787.1
987.86502	9834.3
991.59999	9973.1
995.33237	10134.1
999.06217	10398.5
1002.78939	10707.6
1006.51404	10881.6
1010.23611	11012.8
1013.95561	11086.9
1017.67255	11114.7
1021.38692	11082.5
1025.09872	11095.4
1028.80796	11240.5
1032.51465	11527
1036.21877	11712.1
1039.92035	11697.9
1043.61937	11525.8
1047.31584	11258.4
1051.00976	10979
1054.70114	10787
1058.38998	10735
1062.07627	10715.7
1065.76003	10760.4
1069.44126	10735.4
1073.11995	10811.5
1076.79611	10935.4
1080.46974	11100.1
1084.14085	11295.4
1087.80943	11518
1091.47549	11533
1095.13903	11346.6
1098.80005	11096.9
1102.45857	10955.4
1106.11456	10952.4
1109.76805	11087.5
1113.41903	11343.9
1117.06751	11706.1
1120.71348	12153.6
1124.35696	12562.4
1127.99793	12819
1131.63641	12671.6
1135.2724	12234.9
1138.90589	11816.2
1142.5369	11479.8
1146.16542	11256.9
1149.79145	11113.7
1153.415	11064.4
1157.03607	11079.4
1160.65467	11200.5
1164.27079	11473.4
1167.88443	11923.9
1171.49561	12589
1175.10432	13699.3
1178.71056	15204
1182.31434	16511.4
1185.91565	16928.4
1189.51451	16511.8
1193.11091	15538.1
1196.70485	14560.5
1200.29634	13871.1
1203.88538	13408.6
1207.47197	12837.8
1211.05612	12354.7
1214.63782	12036.8
1218.21708	11959.7
1221.79391	11959.6
1225.36829	12011.6
1228.94024	12001.6
1232.50976	11891.9
1236.07685	11836.8
1239.6415	11846.7
1243.20374	11928.3
1246.76355	12040.2
1250.32093	12164.4
1253.8759	12396.3
1257.42845	12695.2
1260.97859	13024.2
1264.52631	13291.6
1268.07163	13576.4
1271.61453	13883.6
1275.15503	14127
1278.69312	14338.5
1282.22882	14541.6
1285.76211	14798.6
1289.29301	15109.1
1292.82151	15471.6
1296.34761	15915.9
1299.87133	16765.7
1303.39266	18126.5
1306.9116	20089.8
1310.42815	21940.3
1313.94233	22473.1
1317.45412	21366.3
1320.96354	19716.7
1324.47058	18106
1327.97525	16835.4
1331.47754	16115.6
1334.97747	15904.9
1338.47502	16121.4
1341.97022	16659.8
1345.46305	17414.7
1348.95352	18371.1
1352.44163	19610.8
1355.92738	21428.3
1359.41078	24302.8
1362.89183	26638
1366.37053	25232.7
1369.84688	21285.9
1373.32088	17938.4
1376.79254	16000.6
1380.26186	14966.4
1383.72883	14344.1
1387.19347	13865.2
1390.65578	13477.3
1394.11575	13172.3
1397.57339	13023.3
1401.0287	13036.9
1404.48168	13091.9
1407.93234	13209.8
1411.38068	13385.8
1414.82669	13530.3
1418.27039	13506.4
1421.71177	13381.7
1425.15083	13199.1
1428.58758	13155.2
1432.02203	13285.8
1435.45416	13371.3
1438.88399	13361.3
1442.31151	13272.5
1445.73673	13297.9
1449.15965	13305
1452.58027	13238
1455.9986	13131.2
1459.41463	13095.3
1462.82837	13179.4
1466.23982	13366.2
1469.64898	13609.1
1473.05586	13850.9
1476.46045	13963.1
1479.86276	14172.2
1483.26279	14448.8
1486.66054	14804.8
1490.05602	15276.6
1493.44922	15940.1
1496.84016	16947
1500.22882	18511.1
1503.61521	20704.7
1506.99934	23158.8
1510.38121	24695.7
1513.76081	24483.4
1517.13816	22390.2
1520.51324	19676.9
1523.88607	17368.5
1527.25665	16008
1530.62498	15227.6
1533.99105	14799.1
1537.35488	14560.6
1540.71647	14425.4
1544.07581	14408.2
1547.4329	14452.8
1550.78776	14476.6
1554.14038	14538
1557.49077	14638.3
1560.83892	14767.1
1564.18484	15027
1567.52853	15333.5
1570.86999	15570.3
1574.20922	15698.9
1577.54624	15582
1580.88103	14980.5
1584.2136	14284.8
1587.54395	14004.9
1590.87208	14263.4
1594.19801	15009.1
1597.52172	15981.1
1600.84321	16379.4
1604.16251	15990.1
1607.47959	15200.7
1610.79447	14309.8
1614.10715	13470.8
1617.41763	12819.4
1620.7259	12401
1624.03199	12260.5
1627.33587	12272
1630.63757	12564.1
1633.93707	13063.8
1637.23439	13799.5
1640.52951	14813.3
1643.82246	16207.5
1647.11321	17700.2
1650.40179	18519.3
1653.68819	17713.5
1656.97241	15723.2
1660.25446	13713.8
1663.53433	12391.6
1666.81203	11656.8
1670.08756	11168.9
1673.36092	10887.6
1676.63211	10685.3
1679.90115	10533.9
1683.16801	10439.9
1686.43272	10330
1689.69527	10260.4
1692.95567	10233.1
1696.2139	10196.6
1699.46999	10162.1
1702.72392	10127
1705.97571	10123.1
1709.22535	10124.9
1712.47284	10102.3
1715.71819	10088.1
1718.96139	10083
1722.20246	10042
1725.44139	9993.7
1728.67818	9951.3
1731.91284	9912.1
1735.14537	9885.3
1738.37576	9858.3
1741.60403	9824.8
1744.83017	9808
1748.05418	9782.3
1751.27607	9770.4
1754.49584	9727.7
1757.71349	9708.8
1760.92903	9747.9
1764.14244	9704
1767.35375	9713.7
1770.56294	9703
1773.77002	9683
1776.97499	9659.5
1780.17785	9640
1783.37861	9658
1786.57727	9645.9
1789.77382	9634.5
1792.96828	9648
1796.16064	9623.4
1799.3509	9626.6
1802.53907	9593.7
1805.72514	9585.6
1808.90913	9558.9
1812.09102	9530.8
1815.27083	9500.1
1818.44856	9518
1821.6242	9514.1
1824.79776	9489.5
1827.96924	9494
1831.13864	9477.4
1834.30597	9481.7
1837.47122	9440.2
1840.6344	9445.9
1843.7955	9469.1
1846.95454	9448.2
1850.11151	9419.7
1853.26642	9433.5
1856.41926	9453.1
1859.57004	9425.3
1862.71876	9435.2
1865.86542	9453.2
1869.01003	9444.4
1872.15258	9448.7
1875.29308	9451.4
1878.43152	9440.7
1881.56792	9464.4
1884.70227	9425.4
1887.83457	9404.5
1890.96482	9436.9
1894.09304	9411.4
1897.21921	9407.9
1900.34335	9394.4
1903.46544	9392.6
1906.58551	9400.9
1909.70353	9379.6
1912.81953	9382.1
1915.93349	9380.7
1919.04543	9389.4
1922.15534	9374
1925.26322	9372.7
1928.36908	9336.2
1931.47292	9328.8
1934.57473	9335.6
1937.67453	9299.7
1940.77232	9288.1
1943.86808	9263.1
1946.96184	9240.7
1950.05358	9193.7
1953.14331	9197.9
1956.23103	9164.9
1959.31675	9155.7
1962.40046	9130.7
1965.48217	9106.7
1968.56188	9099.8
1971.63959	9076.2
1974.7153	9050.5
1977.78901	9012.1
1980.86073	8989.5
1983.93046	8979.8
1986.99819	8946.7
1990.06394	8920.8
1993.1277	8914.4
1996.18947	8878.7
1999.24925	8839.5
2002.30706	8841.7
2005.36288	8795.3
2008.41672	8786.7
2011.46859	8769.3
2014.51848	8734.7
2017.56639	8721.9
2020.61233	8692.4
2023.6563	8687.6
2026.6983	8657.4
2029.73833	8682.3
2032.7764	8636.3
2035.8125	8620.9
2038.84664	8607.9
2041.87881	8615.4
2044.90903	8603.6
2047.93729	8617.6
2050.96359	8591.1
2053.98794	8598.3
2057.01034	8584.9
2060.03078	8561.6
2063.04927	8564.4
2066.06582	8580.7
2069.08042	8554.8
2072.09307	8525.2
2075.10378	8537.8
2078.11255	8551.6
2081.11938	8564.4
2084.12426	8525.8
2087.12722	8533.3
2090.12824	8538.1
2093.12732	8545.1
2096.12447	8545.4
2099.11969	8525.2
2102.11299	8546.3
2105.10435	8563.7
2108.09379	8578.5
2111.08131	8572.5
2114.0669	8582.2
2117.05057	8568
2120.03233	8611.6
2123.01216	8606.9
2125.99008	8624.3
2128.96609	8627.9
2131.94018	8623.7
2134.91236	8648.3
2137.88263	8674.9
2140.851	8650.1
2143.81746	8677.2
2146.78201	8671.1
2149.74466	8702.8
2152.7054	8690.8
2155.66425	8700.8
2158.6212	8679
2161.57625	8687.2
2164.52941	8672.3
2167.48067	8645.9
2170.43004	8674.5
2173.37752	8637.9
2176.32311	8665.8
2179.26681	8677.2
2182.20863	8676.2
2185.14856	8713.6
2188.08661	8689.9
2191.02278	8692.9
2193.95707	8685.4
2196.88948	8689.5
2199.82001	8691.9
2202.74867	8691.6
2205.67545	8683.6
2208.60037	8700
2211.52341	8693.2
2214.44458	8702.8
2217.36388	8682
2220.28132	8653.3
2223.1969	8615.9
2226.11061	8618
2229.02246	8610.8
2231.93245	8606.5
2234.84058	8601.8
2237.74686	8566.3
2240.65128	8546.6
2243.55385	8559.8
2246.45456	8534.4
2249.35343	8527.3
2252.25044	8542.5
2255.14561	8549.9
2258.03893	8531.9
2260.93041	8510.4
2263.82004	8513.8
2266.70783	8517.3
2269.59378	8476.7
2272.4779	8489.7
2275.36017	8469.9
2278.24061	8445.1
2281.11922	8422.3
2283.996	8415.6
2286.87094	8388.4
2289.74405	8389
2292.61534	8378.4
2295.4848	8397.3
2298.35243	8395.3
2301.21824	8392.9
2304.08223	8389.9
2306.94439	8401.8
2309.80474	8382.9
2312.66327	8403.1
2315.51999	8418.4
2318.37489	8408.9
2321.22797	8386.1
2324.07925	8397.4
2326.92871	8387.7
2329.77637	8384.6
2332.62222	8383.1
2335.46626	8376
2338.3085	8376.1
2341.14893	8383.9
2343.98756	8349
2346.8244	8378.5
2349.65943	8396.6
2352.49267	8385.7
2355.32411	8378.9
2358.15376	8372.9
2360.98161	8366.1
2363.80768	8370.4
2366.63195	8348.3
2369.45444	8361.4
2372.27514	8355
2375.09405	8327.3
2377.91118	8311.7
2380.72652	8293.6
2383.54009	8289.7
2386.35187	8263.9
2389.16188	8246.1
2391.97011	8228.4
2394.77657	8197
2397.58125	8195.8
2400.38416	8182.4
2403.18529	8183.2
2405.98466	8154.2
2408.78226	8134.9
2411.57809	8138.8
2414.37216	8121.3
2417.16446	8120.4
2419.955	8128.4
2422.74378	8115.1
2425.5308	8110.8
2428.31606	8102.8
2431.09956	8102.3
2433.88131	8111
2436.6613	8091.5
2439.43954	8106.8
2442.21603	8094.5
2444.99077	8089.8
2447.76377	8117.1
2450.53501	8065.5
2453.30451	8057.1
2456.07226	8063.3
2458.83827	8058.4
2461.60254	8059.4
2464.36507	8065.3
2467.12586	8030.4
2469.88492	8062
2472.64224	8058.2
2475.39782	8065.9
2478.15167	8082.1
2480.90379	8083.5
2483.65417	8083
2486.40283	8076.7
2489.14976	8098.4
2491.89497	8106.8
2494.63845	8096
2497.3802	8086.9
2500.12024	8103.6
2502.85855	8109.3
2505.59514	8076.1
2508.33002	8071.5
2511.06318	8039
2513.79462	8012.1
2516.52435	8021.9
2519.25237	8006.5
2521.97867	8008.7
2524.70327	7981.6
2527.42616	7971.3
2530.14734	7970.6
2532.86681	7959
2535.58458	7981.5
2538.30065	7957.8
2541.01501	7966.7
2543.72768	7961.7
2546.43864	7950.6
2549.14791	7962.3
2551.85548	7956.1
2554.56136	7943.7
2557.26554	7939.4
2559.96803	7925.4
2562.66883	7915.4
2565.36794	7892.1
2568.06536	7894.1
2570.7611	7859.1
2573.45514	7865.9
2576.14751	7875.6
2578.83819	7881.8
2581.52719	7869.5
2584.21451	7857.7
2586.90015	7861.1
2589.58411	7824.9
2592.2664	7842.3
2594.94701	7840.3
2597.62594	7861.8
2600.30321	7829.2
2602.9788	7801.9
2605.65273	7801.6
2608.32498	7817.9
2610.99557	7830
2613.66449	7824.9
2616.33175	7817.2
2618.99734	7832.3
2621.66128	7812.1
2624.32355	7807.4
2626.98416	7817.3
2629.64311	7831.1
2632.30041	7804.8
2634.95605	7800.3
2637.61004	7783.8
2640.26238	7790.3
2642.91306	7762.2
2645.56209	7760.9
2648.20948	7762.2
2650.85521	7749.5
2653.4993	7744.6
2656.14175	7719.9
2658.78255	7753.3
2661.42171	7738.7
2664.05923	7742
2666.6951	7775.6
2669.32934	7772.9
2671.96194	7751.5
2674.59291	7758.6
2677.22224	7788.1
2679.84993	7775.1
2682.476	7759.4
2685.10043	7762.4
2687.72324	7770.2
2690.34441	7746.1
2692.96396	7755.9
2695.58188	7758.2
2698.19818	7741.6
2700.81285	7752
2703.4259	7731.4
2706.03733	7751.7
2708.64714	7749.6
2711.25533	7763.7
2713.86191	7757.6
2716.46687	7762
2719.07021	7783.2
2721.67194	7764.1
2724.27206	7776.1
2726.87057	7765
2729.46747	7775.9
2732.06276	7778.5
2734.65644	7777
2737.24852	7757.1
2739.83899	7762.4
2742.42786	7751.7
2745.01513	7755.7
2747.60079	7733.6
2750.18486	7718.3
2752.76733	7745.9
2755.3482	7718.1
2757.92747	7707.7
2760.50515	7709
2763.08123	7694.6
2765.65573	7710
2768.22863	7698.4
2770.79994	7694.7
2773.36967	7680.1
2775.9378	7661.3
2778.50435	7664.5
2781.06932	7690.2
2783.6327	7680.9
2786.1945	7685.4
2788.75471	7665.8
2791.31335	7656.6
2793.87041	7648.1
2796.42589	7629.1
2798.97979	7648.2
2801.53212	7615.4
2804.08288	7612
2806.63206	7587.1
2809.17967	7588.2
2811.72571	7588
2814.27018	7575.2
2816.81308	7553.9
2819.35442	7558.8
2821.89419	7539.6
2824.43239	7546.6
2826.96904	7542
2829.50412	7537.1
2832.03763	7519.7
2834.56959	7505.9
2837.1	7508.9
2839.62884	7540.2
2842.15613	7512.5
2844.68186	7512.8
2847.20604	7504.2
2849.72867	7507.4
2852.24974	7490
2854.76927	7467
2857.28724	7506.2
2859.80367	7490.5
2862.31855	7480.8
2864.83189	7500.3
2867.34368	7456.7
2869.85393	7484.7
2872.36264	7473.2
2874.8698	7452
2877.37543	7473.6
2879.87952	7482.7
2882.38207	7486.8
2884.88308	7487.6
2887.38256	7486.7
2889.88051	7476
2892.37692	7512.7
2894.8718	7477.9
2897.36515	7489.8
2899.85698	7506
2902.34727	7501.3
2904.83604	7502.6
2907.32328	7527.2
2909.809	7524.8
2912.29319	7533.5
2914.77587	7512.2
2917.25702	7514.7
2919.73665	7511.1
2922.21476	7513.2
2924.69136	7495.4
2927.16644	7488.7
2929.64	7511.6
2932.11205	7478.2
2934.58258	7449.3
2937.05161	7452.5
2939.51912	7494
2941.98513	7500.5
2944.44962	7494.7
2946.91261	7465
2949.37409	7466.3
2951.83407	7461.1
2954.29254	7471.4
2956.74951	7477.6
2959.20498	7474.6
2961.65895	7470.7
2964.11142	7471
2966.56239	7442.5
2969.01186	7456
2971.45984	7438.1
2973.90632	7450.4
2976.35131	7436.3
2978.7948	7416.7
2981.23681	7415.3
2983.67732	7396.6
2986.11635	7391.8
2988.55388	7385.3
2990.98993	7381.6
2993.4245	7347.9
2995.85758	7343.8
2998.28917	7351.3
3000.71928	7346.9
3003.14791	7340.3
3005.57506	7311.9
3008.00073	7319.1
3010.42493	7285.5
3012.84764	7282
3015.26888	7302.9
3017.68865	7269.5
3020.10694	7273.8
3022.52376	7250.9
3024.9391	7251
3027.35298	7224.9
3029.76539	7240.1
3032.17632	7240.1
3034.5858	7229.9
3036.9938	7213.5
3039.40034	7233.9
3041.80542	7205.5
3044.20903	7220.8
3046.61118	7212.5
3049.01187	7209.6
3051.4111	7176.6
3053.80888	7166
3056.20519	7163.9
3058.60005	7141.2
3060.99345	7120
3063.3854	7133.5
3065.7759	7131.7
3068.16494	7085.1
3070.55254	7074.3
3072.93868	7072.8
3075.32338	7056.9
3077.70662	7059.9
3080.08842	7042.2
3082.46878	7026.8
3084.84769	7027.7
3087.22515	7022.9
3089.60118	7015.7
3091.97576	7047.9
3094.3489	7055.6
3096.72061	7028.6
3099.09087	7057.1
3101.4597	7043.2
3103.82709	7071.3
3106.19305	7066.3
3108.55757	7083
3110.92066	7065.6
3113.28232	7060.6
3115.64255	7031.7
3118.00134	7057.2
3120.35871	7041.7
3122.71466	7036.9
3125.06917	7034.5
3127.42226	7013.8
3129.77393	7031.7
3132.12417	7017.4
3134.47299	7016
3136.82039	7001.8
3139.16636	7014.6
3141.51092	7019.2
3143.85406	7025.4
3146.19579	7023.4
3148.53609	7040.8
3150.87499	7064.4
3153.21246	7055.9
3155.54853	7085.7
3157.88318	7099.5
3160.21642	7087.2
3162.54826	7108.4
3164.87868	7100
3167.2077	7110.8
3169.5353	7115.9
3171.86151	7121.1
3174.18631	7128.6
3176.5097	7138.8
3178.83169	7121.6
3181.15228	7109.9
3183.47147	7090.6
3185.78926	7113
3188.10565	7075.5
3190.42065	7079.2
3192.73424	7080.6
3195.04645	7066.4
3197.35725	7104.8
3199.66667	7089.2
3201.97469	7131.7
3204.28132	7108.7
3206.58656	7123.8
3208.8904	7125
3211.19287	7120.4
3213.49394	7145.8
3215.79363	7157.8
3218.09193	7165.5
3220.38884	7175.1
3222.68438	7175.6
3224.97853	7179.2
3227.2713	7178.5
3229.56269	7170.2
3231.8527	7160.9
3234.14133	7158.2
3236.42858	7144.3
3238.71446	7150
3240.99896	7125.5
3243.28209	7131.1
3245.56384	7122.8
3247.84423	7116.1
3250.12324	7118.7
3252.40088	7098.5
3254.67715	7115.7
3256.95205	7108.9
3259.22558	7113.3
3261.49775	7125.5
3263.76855	7112.8
3266.03799	7131.3
3268.30606	7126.6
3270.57277	7129.8
3272.83812	7087.2
3275.10211	7075.8
3277.36474	7054
3279.62601	7053.3
3281.88593	7058.6
3284.14448	7068.1
3286.40168	7078.4
3288.65753	7070.4
3290.91202	7081.7
3293.16516	7067.7
3295.41695	7049.5
3297.66738	7004.1
3299.91647	6962.1
3302.16421	6927.7
3304.4106	6905.2
3306.65564	6871.1
3308.89933	6821.1
3311.14169	6774.7
3313.38269	6730.8
3315.62236	6701.5
3317.86068	6655.1
3320.09766	6617
3322.3333	6563.6
3324.5676	6537.6
3326.80056	6447.3
3329.03219	6421.8
3331.26248	2.2
3333.49143	-1.1
3335.71905	-0.7
