Data from AgNPs_UA_100uM_CRN_0uM_R6G_10uM_Q_RamanShift__2__13-14-45-308.txt Node

Date: Tue Jul 26 13:14:45 BST 2022
User: TCL
Spectrometer: QEP01345
Trigger mode: 4
Integration Time (sec): 7.000000E0
Scans to average: 10
Electric dark correction enabled: true
Nonlinearity correction enabled: false
Boxcar width: 0
XAxis mode: Raman Shifts
Number of Pixels in Spectrum: 1044
>>>>>Begin Spectral Data<<<<<
46.04893	-0.6625
50.45542	0.6375
54.85868	-0.5625
59.25871	-1.7625
63.6555	77.6375
68.04907	81.1375
72.43941	86.5375
76.82654	95.2375
81.21044	95.4375
85.59113	99.5375
89.96862	106.5375
94.34289	108.8375
98.71396	112.9375
103.08183	115.6375
107.4465	115.9375
111.80798	118.1375
116.16626	123.1375
120.52136	124.2375
124.87327	129.8375
129.222	138.2375
133.56755	137.4375
137.90993	147.0375
142.24913	153.6375
146.58517	163.2375
150.91804	184.9375
155.24774	217.3375
159.57429	259.2375
163.89768	325.3375
168.21792	428.5375
172.53501	566.2375
176.84895	770.4375
181.15975	1072.9375
185.46741	1500.2375
189.77193	2070.9375
194.07331	2764.4375
198.37157	3543.4375
202.6667	4375.4375
206.9587	5194.4375
211.24758	6001.7375
215.53334	6806.8375
219.81599	7679.5375
224.09553	8650.6375
228.37195	9708.2375
232.64527	10876.3375
236.91549	12122.4375
241.18261	13273.5375
245.44663	14373.3375
249.70755	15293.2375
253.96539	16084.5375
258.22014	16730.8375
262.4718	17306.7375
266.72039	17701.1375
270.96589	17835.9375
275.20832	17837.3375
279.44768	17641.7375
283.68397	17436.2375
287.91719	17247.2375
292.14735	17193.9375
296.37445	17276.5375
300.59849	17473.5375
304.81948	17783.3375
309.03742	17983.3375
313.25231	18043.7375
317.46415	17822.3375
321.67296	17379.3375
325.87872	16980.4375
330.08145	16823.5375
334.28114	16847.9375
338.47781	17021.2375
342.67145	17294.3375
346.86207	17653.2375
351.04966	18085.2375
355.23424	18541.9375
359.4158	18949.0375
363.59435	19190.3375
367.76989	19340.1375
371.94243	19400.3375
376.11196	19449.9375
380.27849	19537.1375
384.44203	19560.4375
388.60257	19642.0375
392.76012	19755.4375
396.91468	19971.3375
401.06626	20284.7375
405.21485	20455.0375
409.36047	20377.1375
413.50311	19977.2375
417.64277	19674.9375
421.77947	19530.5375
425.9132	19559.2375
430.04396	19662.6375
434.17176	19824.6375
438.2966	19994.4375
442.41849	20228.9375
446.53742	20561.7375
450.6534	20869.5375
454.76644	21145.7375
458.87653	21219.9375
462.98368	21168.6375
467.08789	21051.1375
471.18916	20918.3375
475.2875	20641.6375
479.38291	20392.2375
483.4754	20240.6375
487.56496	20130.0375
491.6516	20141.0375
495.73531	20214.1375
499.81612	20239.8375
503.89401	20399.3375
507.96899	20471.5375
512.04106	20539.0375
516.11023	20618.7375
520.1765	20674.7375
524.23987	20726.9375
528.30034	20741.4375
532.35792	20674.9375
536.41261	20564.2375
540.46441	20435.2375
544.51333	20390.9375
548.55936	20512.3375
552.60252	20740.2375
556.64279	20988.1375
560.6802	21146.3375
564.71473	21223.3375
568.7464	21403.9375
572.7752	21564.9375
576.80114	21592.1375
580.82422	21722.6375
584.84444	22003.6375
588.86181	22191.3375
592.87633	22349.9375
596.888	22552.5375
600.89682	22865.1375
604.9028	24097.7375
608.90594	26849.3375
612.90624	29789.8375
616.90371	28175.8375
620.89834	23695.3375
624.89015	21751.1375
628.87913	21514.1375
632.86528	21821.8375
636.84862	22104.7375
640.82913	21908.3375
644.80683	21430.2375
648.78172	21118.9375
652.75379	21145.2375
656.72306	21490.5375
660.68952	21857.2375
664.65319	21732.6375
668.61405	21371.7375
672.57211	21333.5375
676.52738	21367.2375
680.47986	21320.8375
684.42955	21143.7375
688.37646	21108.2375
692.32058	21215.9375
696.26192	21407.4375
700.20048	21632.4375
704.13626	21794.6375
708.06928	21749.6375
711.99952	21655.8375
715.927	21598.8375
719.85171	21671.8375
723.77365	21704.9375
727.69284	21623.0375
731.60928	21499.1375
735.52295	21477.0375
739.43388	21511.8375
743.34206	21625.1375
747.24749	21651.5375
751.15017	21772.7375
755.05012	21950.6375
758.94733	22477.8375
762.8418	23639.2375
766.73354	25525.6375
770.62254	27229.7375
774.50882	27721.7375
778.39237	26681.5375
782.27321	24965.3375
786.15132	23471.8375
790.02671	22497.1375
793.89938	22040.0375
797.76935	21794.8375
801.6366	21678.9375
805.50115	21642.2375
809.36299	21603.1375
813.22213	21555.1375
817.07857	21504.3375
820.93231	21497.7375
824.78336	21546.0375
828.63172	21562.2375
832.47738	21541.5375
836.32036	21551.7375
840.16066	21522.9375
843.99827	21545.3375
847.8332	21523.0375
851.66546	21542.1375
855.49504	21601.8375
859.32195	21618.3375
863.1462	21615.4375
866.96777	21591.0375
870.78668	21625.8375
874.60293	21700.9375
878.41652	21803.7375
882.22745	21885.8375
886.03573	21985.6375
889.84136	22012.3375
893.64433	21922.2375
897.44466	21892.9375
901.24235	21841.7375
905.0374	21795.1375
908.8298	21748.0375
912.61957	21722.2375
916.40671	21786.4375
920.19121	21894.4375
923.97308	21943.4375
927.75233	22041.4375
931.52895	22088.9375
935.30295	21954.7375
939.07433	21688.0375
942.84309	21492.7375
946.60924	21430.0375
950.37278	21362.0375
954.13371	21321.1375
957.89203	21314.6375
961.64774	21301.4375
965.40086	21323.0375
969.15137	21326.1375
972.89929	21259.0375
976.64461	21275.5375
980.38733	21307.2375
984.12747	21364.4375
987.86502	21455.7375
991.59999	21562.6375
995.33237	21698.9375
999.06217	21900.2375
1002.78939	22181.9375
1006.51404	22471.1375
1010.23611	22750.0375
1013.95561	22924.4375
1017.67255	22960.6375
1021.38692	22807.3375
1025.09872	22611.5375
1028.80796	22433.4375
1032.51465	22419.4375
1036.21877	22469.2375
1039.92035	22523.1375
1043.61937	22550.5375
1047.31584	22565.2375
1051.00976	22585.3375
1054.70114	22589.0375
1058.38998	22690.6375
1062.07627	22807.2375
1065.76003	22973.0375
1069.44126	23224.3375
1073.11995	23517.4375
1076.79611	23871.0375
1080.46974	24134.5375
1084.14085	24312.7375
1087.80943	24478.3375
1091.47549	24557.4375
1095.13903	24472.5375
1098.80005	24225.4375
1102.45857	23927.0375
1106.11456	23701.3375
1109.76805	23579.8375
1113.41903	23652.9375
1117.06751	23834.8375
1120.71348	24198.8375
1124.35696	24594.2375
1127.99793	24904.7375
1131.63641	24841.6375
1135.2724	24512.6375
1138.90589	24213.7375
1142.5369	23993.4375
1146.16542	23886.3375
1149.79145	23759.1375
1153.415	23651.9375
1157.03607	23645.1375
1160.65467	23864.8375
1164.27079	24292.0375
1167.88443	24898.1375
1171.49561	25853.3375
1175.10432	27247.2375
1178.71056	29034.1375
1182.31434	30669.0375
1185.91565	31461.8375
1189.51451	31470.4375
1193.11091	30948.2375
1196.70485	30129.4375
1200.29634	29276.6375
1203.88538	28417.7375
1207.47197	27541.2375
1211.05612	26734.7375
1214.63782	26086.8375
1218.21708	25723.7375
1221.79391	25500.2375
1225.36829	25420.6375
1228.94024	25376.2375
1232.50976	25336.4375
1236.07685	25318.8375
1239.6415	25299.3375
1243.20374	25354.6375
1246.76355	25474.0375
1250.32093	25649.2375
1253.8759	25920.5375
1257.42845	26345.3375
1260.97859	26941.4375
1264.52631	27466.8375
1268.07163	27918.5375
1271.61453	28363.2375
1275.15503	28658.6375
1278.69312	28823.8375
1282.22882	28995.5375
1285.76211	29253.7375
1289.29301	29728.7375
1292.82151	30282.7375
1296.34761	30892.9375
1299.87133	31834.5375
1303.39266	33107.9375
1306.9116	34858.4375
1310.42815	36697.6375
1313.94233	37483.6375
1317.45412	36827.5375
1320.96354	35582.4375
1324.47058	34362.9375
1327.97525	33295.7375
1331.47754	32607.4375
1334.97747	32461.9375
1338.47502	32676.9375
1341.97022	33193.2375
1345.46305	34104.8375
1348.95352	35307.3375
1352.44163	36685.4375
1355.92738	38302.8375
1359.41078	40406.5375
1362.89183	42240.0375
1366.37053	41262.3375
1369.84688	37428.7375
1373.32088	33485.2375
1376.79254	30849.8375
1380.26186	29540.2375
1383.72883	28850.7375
1387.19347	28297.1375
1390.65578	27624.8375
1394.11575	27077.7375
1397.57339	26629.1375
1401.0287	26397.9375
1404.48168	26272.6375
1407.93234	26283.6375
1411.38068	26340.3375
1414.82669	26400.8375
1418.27039	26301.6375
1421.71177	26115.9375
1425.15083	25893.2375
1428.58758	25716.5375
1432.02203	25796.4375
1435.45416	26036.1375
1438.88399	26108.3375
1442.31151	26170.6375
1445.73673	26247.2375
1449.15965	26348.7375
1452.58027	26337.1375
1455.9986	26288.9375
1459.41463	26365.4375
1462.82837	26678.1375
1466.23982	27133.4375
1469.64898	27638.2375
1473.05586	28029.7375
1476.46045	28364.7375
1479.86276	28641.4375
1483.26279	28860.7375
1486.66054	29258.2375
1490.05602	29780.4375
1493.44922	30599.6375
1496.84016	31857.3375
1500.22882	33771.4375
1503.61521	36243.7375
1506.99934	38634.1375
1510.38121	40005.5375
1513.76081	39597.2375
1517.13816	37468.4375
1520.51324	34626.8375
1523.88607	32304.0375
1527.25665	30901.7375
1530.62498	30205.8375
1533.99105	29839.7375
1537.35488	29510.0375
1540.71647	29186.2375
1544.07581	28927.2375
1547.4329	28635.8375
1550.78776	28423.9375
1554.14038	28246.8375
1557.49077	28263.6375
1560.83892	28398.0375
1564.18484	28673.2375
1567.52853	29121.1375
1570.86999	29525.9375
1574.20922	29764.3375
1577.54624	29599.8375
1580.88103	28889.7375
1584.2136	28045.7375
1587.54395	27554.5375
1590.87208	27792.1375
1594.19801	28544.0375
1597.52172	29586.5375
1600.84321	30071.9375
1604.16251	29715.8375
1607.47959	28924.0375
1610.79447	27989.6375
1614.10715	26821.4375
1617.41763	25777.8375
1620.7259	24941.7375
1624.03199	24436.5375
1627.33587	24280.6375
1630.63757	24481.8375
1633.93707	25073.0375
1637.23439	26114.3375
1640.52951	27811.4375
1643.82246	30047.2375
1647.11321	32261.9375
1650.40179	33346.4375
1653.68819	32452.0375
1656.97241	29833.9375
1660.25446	27015.9375
1663.53433	24936.9375
1666.81203	23649.2375
1670.08756	22801.1375
1673.36092	22355.4375
1676.63211	21949.7375
1679.90115	21740.6375
1683.16801	21534.8375
1686.43272	21343.1375
1689.69527	21189.6375
1692.95567	21066.8375
1696.2139	21029.2375
1699.46999	20935.6375
1702.72392	20906.8375
1705.97571	20854.1375
1709.22535	20868.1375
1712.47284	20841.4375
1715.71819	20818.1375
1718.96139	20802.2375
1722.20246	20759.6375
1725.44139	20673.4375
1728.67818	20613.6375
1731.91284	20542.0375
1735.14537	20470.6375
1738.37576	20420.3375
1741.60403	20341.5375
1744.83017	20294.0375
1748.05418	20269.6375
1751.27607	20190.5375
1754.49584	20205.6375
1757.71349	20145.3375
1760.92903	20184.7375
1764.14244	20169.7375
1767.35375	20138.6375
1770.56294	20118.3375
1773.77002	20111.4375
1776.97499	20050.1375
1780.17785	20048.7375
1783.37861	20023.3375
1786.57727	19997.1375
1789.77382	19942.0375
1792.96828	19941.1375
1796.16064	19913.0375
1799.3509	19923.3375
1802.53907	19888.7375
1805.72514	19838.7375
1808.90913	19778.2375
1812.09102	19742.0375
1815.27083	19718.6375
1818.44856	19707.0375
1821.6242	19679.0375
1824.79776	19612.4375
1827.96924	19571.9375
1831.13864	19550.3375
1834.30597	19563.7375
1837.47122	19556.0375
1840.6344	19525.4375
1843.7955	19522.1375
1846.95454	19513.1375
1850.11151	19503.6375
1853.26642	19504.0375
1856.41926	19494.4375
1859.57004	19486.8375
1862.71876	19473.6375
1865.86542	19458.5375
1869.01003	19439.0375
1872.15258	19418.1375
1875.29308	19404.9375
1878.43152	19382.6375
1881.56792	19367.4375
1884.70227	19343.8375
1887.83457	19289.2375
1890.96482	19281.3375
1894.09304	19260.7375
1897.21921	19248.6375
1900.34335	19225.8375
1903.46544	19209.9375
1906.58551	19204.6375
1909.70353	19143.3375
1912.81953	19157.4375
1915.93349	19100.9375
1919.04543	19113.8375
1922.15534	19112.7375
1925.26322	19106.7375
1928.36908	19042.4375
1931.47292	19029.2375
1934.57473	18949.8375
1937.67453	18909.2375
1940.77232	18894.0375
1943.86808	18829.2375
1946.96184	18781.3375
1950.05358	18721.4375
1953.14331	18701.4375
1956.23103	18644.2375
1959.31675	18572.1375
1962.40046	18546.0375
1965.48217	18490.4375
1968.56188	18438.8375
1971.63959	18423.7375
1974.7153	18327.6375
1977.78901	18298.2375
1980.86073	18276.1375
1983.93046	18210.3375
1986.99819	18172.1375
1990.06394	18119.9375
1993.1277	18045.0375
1996.18947	17978.8375
1999.24925	17909.0375
2002.30706	17887.7375
2005.36288	17804.4375
2008.41672	17761.2375
2011.46859	17736.2375
2014.51848	17679.0375
2017.56639	17658.0375
2020.61233	17634.9375
2023.6563	17612.8375
2026.6983	17530.9375
2029.73833	17501.3375
2032.7764	17452.7375
2035.8125	17413.3375
2038.84664	17388.8375
2041.87881	17376.5375
2044.90903	17317.7375
2047.93729	17279.8375
2050.96359	17316.5375
2053.98794	17284.0375
2057.01034	17278.9375
2060.03078	17251.6375
2063.04927	17232.3375
2066.06582	17197.6375
2069.08042	17227.9375
2072.09307	17184.8375
2075.10378	17191.0375
2078.11255	17189.7375
2081.11938	17184.9375
2084.12426	17184.8375
2087.12722	17163.1375
2090.12824	17166.5375
2093.12732	17195.3375
2096.12447	17170.0375
2099.11969	17164.6375
2102.11299	17199.5375
2105.10435	17192.4375
2108.09379	17215.2375
2111.08131	17203.1375
2114.0669	17219.2375
2117.05057	17239.0375
2120.03233	17261.6375
2123.01216	17300.0375
2125.99008	17309.4375
2128.96609	17338.0375
2131.94018	17340.7375
2134.91236	17370.3375
2137.88263	17370.6375
2140.851	17358.7375
2143.81746	17358.7375
2146.78201	17377.1375
2149.74466	17363.3375
2152.7054	17406.0375
2155.66425	17389.9375
2158.6212	17421.3375
2161.57625	17394.8375
2164.52941	17388.5375
2167.48067	17364.6375
2170.43004	17320.1375
2173.37752	17311.9375
2176.32311	17328.1375
2179.26681	17346.8375
2182.20863	17349.5375
2185.14856	17350.3375
2188.08661	17327.5375
2191.02278	17359.1375
2193.95707	17319.3375
2196.88948	17355.4375
2199.82001	17342.1375
2202.74867	17297.9375
2205.67545	17317.8375
2208.60037	17262.8375
2211.52341	17279.9375
2214.44458	17238.2375
2217.36388	17193.0375
2220.28132	17152.3375
2223.1969	17104.4375
2226.11061	17096.8375
2229.02246	17071.8375
2231.93245	17040.1375
2234.84058	17018.2375
2237.74686	16975.9375
2240.65128	16951.8375
2243.55385	16928.4375
2246.45456	16957.6375
2249.35343	16915.1375
2252.25044	16881.8375
2255.14561	16874.7375
2258.03893	16829.1375
2260.93041	16863.6375
2263.82004	16784.9375
2266.70783	16754.6375
2269.59378	16749.5375
2272.4779	16736.3375
2275.36017	16730.8375
2278.24061	16668.9375
2281.11922	16610.4375
2283.996	16617.5375
2286.87094	16577.9375
2289.74405	16547.0375
2292.61534	16554.0375
2295.4848	16501.4375
2298.35243	16496.7375
2301.21824	16498.2375
2304.08223	16486.7375
2306.94439	16481.5375
2309.80474	16468.3375
2312.66327	16475.8375
2315.51999	16463.6375
2318.37489	16433.1375
2321.22797	16401.8375
2324.07925	16405.3375
2326.92871	16357.8375
2329.77637	16350.4375
2332.62222	16298.9375
2335.46626	16300.6375
2338.3085	16263.7375
2341.14893	16210.5375
2343.98756	16232.7375
2346.8244	16237.3375
2349.65943	16207.7375
2352.49267	16192.3375
2355.32411	16170.0375
2358.15376	16177.6375
2360.98161	16176.3375
2363.80768	16200.8375
2366.63195	16171.9375
2369.45444	16190.6375
2372.27514	16171.1375
2375.09405	16158.2375
2377.91118	16127.6375
2380.72652	16076.6375
2383.54009	16050.2375
2386.35187	16056.1375
2389.16188	15997.0375
2391.97011	15978.5375
2394.77657	15934.5375
2397.58125	15903.2375
2400.38416	15894.5375
2403.18529	15848.9375
2405.98466	15850.1375
2408.78226	15788.7375
2411.57809	15807.4375
2414.37216	15783.3375
2417.16446	15773.5375
2419.955	15740.8375
2422.74378	15765.8375
2425.5308	15759.5375
2428.31606	15768.3375
2431.09956	15782.9375
2433.88131	15723.7375
2436.6613	15711.3375
2439.43954	15702.2375
2442.21603	15695.7375
2444.99077	15688.5375
2447.76377	15703.2375
2450.53501	15660.5375
2453.30451	15641.4375
2456.07226	15607.0375
2458.83827	15585.4375
2461.60254	15600.1375
2464.36507	15597.5375
2467.12586	15567.8375
2469.88492	15549.6375
2472.64224	15543.8375
2475.39782	15533.6375
2478.15167	15540.8375
2480.90379	15566.0375
2483.65417	15580.1375
2486.40283	15544.3375
2489.14976	15540.8375
2491.89497	15541.7375
2494.63845	15520.9375
2497.3802	15495.4375
2500.12024	15503.7375
2502.85855	15498.1375
2505.59514	15452.1375
2508.33002	15438.3375
2511.06318	15430.5375
2513.79462	15409.9375
2516.52435	15365.5375
2519.25237	15381.1375
2521.97867	15341.4375
2524.70327	15327.8375
2527.42616	15281.5375
2530.14734	15313.8375
2532.86681	15254.1375
2535.58458	15247.2375
2538.30065	15224.6375
2541.01501	15207.0375
2543.72768	15173.7375
2546.43864	15192.5375
2549.14791	15133.3375
2551.85548	15161.7375
2554.56136	15137.5375
2557.26554	15138.9375
2559.96803	15104.6375
2562.66883	15065.5375
2565.36794	15028.0375
2568.06536	15017.2375
2570.7611	14946.1375
2573.45514	14945.2375
2576.14751	14947.7375
2578.83819	14925.8375
2581.52719	14925.6375
2584.21451	14885.0375
2586.90015	14880.0375
2589.58411	14844.4375
2592.2664	14834.4375
2594.94701	14813.6375
2597.62594	14793.8375
2600.30321	14739.5375
2602.9788	14749.5375
2605.65273	14734.8375
2608.32498	14712.7375
2610.99557	14717.9375
2613.66449	14690.8375
2616.33175	14665.9375
2618.99734	14659.4375
2621.66128	14639.1375
2624.32355	14584.7375
2626.98416	14583.7375
2629.64311	14560.1375
2632.30041	14558.7375
2634.95605	14531.6375
2637.61004	14503.0375
2640.26238	14490.4375
2642.91306	14494.4375
2645.56209	14479.7375
2648.20948	14453.5375
2650.85521	14461.8375
2653.4993	14438.2375
2656.14175	14428.2375
2658.78255	14434.9375
2661.42171	14454.1375
2664.05923	14470.7375
2666.6951	14477.7375
2669.32934	14490.5375
2671.96194	14464.4375
2674.59291	14463.1375
2677.22224	14465.6375
2679.84993	14467.5375
2682.476	14442.9375
2685.10043	14441.5375
2687.72324	14435.6375
2690.34441	14438.7375
2692.96396	14429.3375
2695.58188	14433.0375
2698.19818	14403.2375
2700.81285	14394.8375
2703.4259	14407.3375
2706.03733	14403.3375
2708.64714	14407.2375
2711.25533	14425.0375
2713.86191	14421.3375
2716.46687	14440.7375
2719.07021	14435.7375
2721.67194	14457.8375
2724.27206	14419.8375
2726.87057	14448.0375
2729.46747	14442.2375
2732.06276	14446.2375
2734.65644	14421.7375
2737.24852	14458.4375
2739.83899	14408.5375
2742.42786	14391.8375
2745.01513	14391.0375
2747.60079	14362.1375
2750.18486	14324.9375
2752.76733	14319.8375
2755.3482	14282.6375
2757.92747	14287.5375
2760.50515	14252.8375
2763.08123	14263.7375
2765.65573	14213.5375
2768.22863	14266.5375
2770.79994	14225.7375
2773.36967	14175.3375
2775.9378	14146.2375
2778.50435	14139.0375
2781.06932	14119.4375
2783.6327	14131.0375
2786.1945	14115.8375
2788.75471	14112.1375
2791.31335	14077.6375
2793.87041	14057.3375
2796.42589	14023.2375
2798.97979	14012.3375
2801.53212	13969.8375
2804.08288	13962.2375
2806.63206	13904.3375
2809.17967	13912.0375
2811.72571	13860.1375
2814.27018	13845.3375
2816.81308	13812.5375
2819.35442	13782.9375
2821.89419	13736.6375
2824.43239	13782.6375
2826.96904	13735.1375
2829.50412	13694.6375
2832.03763	13662.2375
2834.56959	13657.4375
2837.1	13637.0375
2839.62884	13656.2375
2842.15613	13624.5375
2844.68186	13625.8375
2847.20604	13616.5375
2849.72867	13593.7375
2852.24974	13550.5375
2854.76927	13522.9375
2857.28724	13524.8375
2859.80367	13564.3375
2862.31855	13525.9375
2864.83189	13501.7375
2867.34368	13471.1375
2869.85393	13462.7375
2872.36264	13440.0375
2874.8698	13434.3375
2877.37543	13411.0375
2879.87952	13425.8375
2882.38207	13416.0375
2884.88308	13446.1375
2887.38256	13422.1375
2889.88051	13386.9375
2892.37692	13412.8375
2894.8718	13420.7375
2897.36515	13414.1375
2899.85698	13408.8375
2902.34727	13415.0375
2904.83604	13448.2375
2907.32328	13472.5375
2909.809	13491.8375
2912.29319	13475.3375
2914.77587	13424.8375
2917.25702	13450.8375
2919.73665	13437.9375
2922.21476	13415.8375
2924.69136	13427.3375
2927.16644	13419.8375
2929.64	13385.0375
2932.11205	13376.2375
2934.58258	13331.5375
2937.05161	13359.3375
2939.51912	13364.2375
2941.98513	13377.1375
2944.44962	13347.9375
2946.91261	13309.6375
2949.37409	13348.4375
2951.83407	13284.3375
2954.29254	13293.6375
2956.74951	13280.0375
2959.20498	13254.4375
2961.65895	13264.5375
2964.11142	13296.9375
2966.56239	13267.6375
2969.01186	13292.9375
2971.45984	13274.9375
2973.90632	13255.4375
2976.35131	13246.1375
2978.7948	13187.4375
2981.23681	13220.8375
2983.67732	13180.0375
2986.11635	13166.9375
2988.55388	13159.1375
2990.98993	13081.4375
2993.4245	13072.1375
2995.85758	13056.1375
2998.28917	13036.6375
3000.71928	13053.0375
3003.14791	13011.0375
3005.57506	12961.5375
3008.00073	12919.7375
3010.42493	12908.2375
3012.84764	12883.5375
3015.26888	12882.2375
3017.68865	12841.9375
3020.10694	12863.3375
3022.52376	12809.5375
3024.9391	12779.4375
3027.35298	12802.6375
3029.76539	12799.6375
3032.17632	12797.0375
3034.5858	12749.3375
3036.9938	12739.9375
3039.40034	12724.5375
3041.80542	12709.1375
3044.20903	12673.9375
3046.61118	12697.8375
3049.01187	12665.5375
3051.4111	12628.0375
3053.80888	12613.0375
3056.20519	12579.0375
3058.60005	12553.8375
3060.99345	12530.0375
3063.3854	12522.5375
3065.7759	12501.7375
3068.16494	12468.4375
3070.55254	12421.4375
3072.93868	12439.0375
3075.32338	12403.4375
3077.70662	12354.4375
3080.08842	12313.8375
3082.46878	12308.3375
3084.84769	12281.6375
3087.22515	12303.6375
3089.60118	12289.5375
3091.97576	12305.0375
3094.3489	12306.8375
3096.72061	12297.7375
3099.09087	12304.3375
3101.4597	12266.2375
3103.82709	12313.5375
3106.19305	12315.8375
3108.55757	12307.0375
3110.92066	12291.0375
3113.28232	12267.8375
3115.64255	12220.1375
3118.00134	12210.0375
3120.35871	12197.9375
3122.71466	12201.3375
3125.06917	12170.9375
3127.42226	12140.6375
3129.77393	12140.8375
3132.12417	12121.5375
3134.47299	12121.4375
3136.82039	12107.3375
3139.16636	12097.6375
3141.51092	12113.0375
3143.85406	12088.2375
3146.19579	12099.8375
3148.53609	12095.1375
3150.87499	12114.4375
3153.21246	12104.6375
3155.54853	12150.1375
3157.88318	12133.4375
3160.21642	12141.6375
3162.54826	12150.1375
3164.87868	12145.7375
3167.2077	12133.4375
3169.5353	12157.9375
3171.86151	12157.4375
3174.18631	12116.7375
3176.5097	12110.9375
3178.83169	12096.9375
3181.15228	12074.6375
3183.47147	12054.6375
3185.78926	12050.7375
3188.10565	12007.8375
3190.42065	11985.2375
3192.73424	11994.6375
3195.04645	11985.7375
3197.35725	11996.7375
3199.66667	11971.9375
3201.97469	12005.2375
3204.28132	11956.6375
3206.58656	11997.7375
3208.8904	11970.7375
3211.19287	11969.7375
3213.49394	12001.2375
3215.79363	11980.7375
3218.09193	11996.4375
3220.38884	11985.8375
3222.68438	11984.5375
3224.97853	11983.1375
3227.2713	11999.1375
3229.56269	11983.4375
3231.8527	11961.7375
3234.14133	11937.7375
3236.42858	11916.5375
3238.71446	11882.1375
3240.99896	11847.5375
3243.28209	11839.9375
3245.56384	11811.2375
3247.84423	11808.4375
3250.12324	11810.3375
3252.40088	11779.4375
3254.67715	11756.2375
3256.95205	11762.0375
3259.22558	11763.7375
3261.49775	11790.3375
3263.76855	11761.3375
3266.03799	11754.0375
3268.30606	11755.0375
3270.57277	11741.8375
3272.83812	11718.4375
3275.10211	11676.2375
3277.36474	11641.7375
3279.62601	11636.0375
3281.88593	11608.1375
3284.14448	11597.4375
3286.40168	11619.2375
3288.65753	11617.5375
3290.91202	11618.9375
3293.16516	11556.5375
3295.41695	11517.1375
3297.66738	11481.3375
3299.91647	11428.9375
3302.16421	11353.3375
3304.4106	11267.1375
3306.65564	11239.1375
3308.89933	11157.0375
3311.14169	11057.3375
3313.38269	10994.8375
3315.62236	10948.7375
3317.86068	10878.1375
3320.09766	10787.3375
3322.3333	10725.4375
3324.5676	10681.8375
3326.80056	10487.5375
3329.03219	10445.9375
3331.26248	2.5375
3333.49143	0.3375
3335.71905	0.0375
