Data from AgNPs_UA_100uM_CRN_0uM_R6G_10uM_Q_RamanShift__28__13-45-05-345.txt Node

Date: Tue Jul 26 13:45:05 BST 2022
User: TCL
Spectrometer: QEP01345
Trigger mode: 4
Integration Time (sec): 7.000000E0
Scans to average: 10
Electric dark correction enabled: true
Nonlinearity correction enabled: false
Boxcar width: 0
XAxis mode: Raman Shifts
Number of Pixels in Spectrum: 1044
>>>>>Begin Spectral Data<<<<<
46.04893	-0.5375
50.45542	1.2625
54.85868	-0.2375
59.25871	-1.6375
63.6555	54.5625
68.04907	57.2625
72.43941	59.5625
76.82654	68.8625
81.21044	73.3625
85.59113	71.0625
89.96862	75.0625
94.34289	78.8625
98.71396	80.4625
103.08183	84.1625
107.4465	82.4625
111.80798	85.1625
116.16626	83.8625
120.52136	87.3625
124.87327	89.8625
129.222	93.3625
133.56755	94.1625
137.90993	96.2625
142.24913	96.6625
146.58517	103.8625
150.91804	108.4625
155.24774	131.3625
159.57429	148.5625
163.89768	180.1625
168.21792	228.3625
172.53501	297.2625
176.84895	398.7625
181.15975	556.7625
185.46741	762.3625
189.77193	1040.3625
194.07331	1383.6625
198.37157	1782.0625
202.6667	2177.6625
206.9587	2606.4625
211.24758	3024.4625
215.53334	3476.7625
219.81599	3957.8625
224.09553	4506.0625
228.37195	5112.1625
232.64527	5751.3625
236.91549	6403.7625
241.18261	6983.4625
245.44663	7454.6625
249.70755	7835.8625
253.96539	8141.1625
258.22014	8412.4625
262.4718	8658.0625
266.72039	8839.3625
270.96589	8869.0625
275.20832	8775.2625
279.44768	8646.4625
283.68397	8415.1625
287.91719	8308.1625
292.14735	8313.5625
296.37445	8507.8625
300.59849	8844.9625
304.81948	9241.3625
309.03742	9505.1625
313.25231	9465.0625
317.46415	9106.7625
321.67296	8544.3625
325.87872	8068.8625
330.08145	7872.8625
334.28114	7921.6625
338.47781	8037.0625
342.67145	8280.0625
346.86207	8609.5625
351.04966	9078.1625
355.23424	9633.2625
359.4158	10038.3625
363.59435	10281.8625
367.76989	10357.0625
371.94243	10376.7625
376.11196	10330.3625
380.27849	10307.4625
384.44203	10222.3625
388.60257	10123.9625
392.76012	10059.7625
396.91468	10150.3625
401.06626	10338.8625
405.21485	10477.7625
409.36047	10249.7625
413.50311	9830.9625
417.64277	9391.2625
421.77947	9149.9625
425.9132	9050.0625
430.04396	9042.4625
434.17176	9119.7625
438.2966	9246.2625
442.41849	9451.9625
446.53742	9668.8625
450.6534	9904.6625
454.76644	10043.6625
458.87653	10078.1625
462.98368	10036.0625
467.08789	9890.2625
471.18916	9728.5625
475.2875	9541.2625
479.38291	9358.7625
483.4754	9296.9625
487.56496	9242.9625
491.6516	9174.7625
495.73531	9169.7625
499.81612	9219.1625
503.89401	9272.3625
507.96899	9382.5625
512.04106	9510.9625
516.11023	9682.3625
520.1765	9809.5625
524.23987	9874.8625
528.30034	9775.2625
532.35792	9696.0625
536.41261	9590.3625
540.46441	9457.6625
544.51333	9394.2625
548.55936	9443.9625
552.60252	9589.7625
556.64279	9728.9625
560.6802	9819.4625
564.71473	9985.2625
568.7464	10294.8625
572.7752	10341.2625
576.80114	10022.1625
580.82422	9695.7625
584.84444	9618.3625
588.86181	9664.7625
592.87633	9810.5625
596.888	10019.4625
600.89682	10437.5625
604.9028	11727.3625
608.90594	14763.5625
612.90624	18030.3625
616.90371	16775.5625
620.89834	12491.5625
624.89015	10716.1625
628.87913	10501.4625
632.86528	10625.7625
636.84862	10716.9625
640.82913	10482.0625
644.80683	10029.8625
648.78172	9738.7625
652.75379	9714.2625
656.72306	10059.0625
660.68952	10401.3625
664.65319	10228.0625
668.61405	9828.7625
672.57211	9679.7625
676.52738	9639.9625
680.47986	9621.6625
684.42955	9593.8625
688.37646	9601.7625
692.32058	9624.8625
696.26192	9714.4625
700.20048	9794.7625
704.13626	9836.3625
708.06928	9793.0625
711.99952	9722.3625
715.927	9747.5625
719.85171	9806.7625
723.77365	9863.0625
727.69284	9834.0625
731.60928	9800.8625
735.52295	9781.6625
739.43388	9837.9625
743.34206	9842.4625
747.24749	9895.6625
751.15017	9938.3625
755.05012	10095.3625
758.94733	10534.4625
762.8418	11575.8625
766.73354	13164.8625
770.62254	14676.3625
774.50882	15328.8625
778.39237	14632.6625
782.27321	12964.1625
786.15132	11414.8625
790.02671	10527.7625
793.89938	10165.3625
797.76935	10022.5625
801.6366	9967.6625
805.50115	9954.3625
809.36299	9972.8625
813.22213	9963.2625
817.07857	9945.0625
820.93231	9925.0625
824.78336	9968.6625
828.63172	9966.6625
832.47738	9989.6625
836.32036	9960.6625
840.16066	9947.8625
843.99827	9954.5625
847.8332	9952.1625
851.66546	9917.3625
855.49504	9918.8625
859.32195	9913.1625
863.1462	9888.9625
866.96777	9858.9625
870.78668	9855.0625
874.60293	9907.9625
878.41652	9991.5625
882.22745	10054.9625
886.03573	10112.4625
889.84136	10126.1625
893.64433	10107.2625
897.44466	10049.4625
901.24235	10013.1625
905.0374	9974.1625
908.8298	9896.5625
912.61957	9862.4625
916.40671	9897.1625
920.19121	9972.7625
923.97308	10045.3625
927.75233	10201.9625
931.52895	10333.7625
935.30295	10260.1625
939.07433	10043.0625
942.84309	9862.4625
946.60924	9799.6625
950.37278	9735.6625
954.13371	9662.6625
957.89203	9625.0625
961.64774	9603.3625
965.40086	9581.9625
969.15137	9542.6625
972.89929	9549.5625
976.64461	9523.3625
980.38733	9540.6625
984.12747	9581.3625
987.86502	9667.8625
991.59999	9800.3625
995.33237	9963.5625
999.06217	10231.1625
1002.78939	10522.3625
1006.51404	10703.3625
1010.23611	10836.8625
1013.95561	10922.9625
1017.67255	10942.6625
1021.38692	10911.1625
1025.09872	10902.3625
1028.80796	11054.5625
1032.51465	11357.0625
1036.21877	11548.7625
1039.92035	11526.4625
1043.61937	11356.0625
1047.31584	11084.0625
1051.00976	10788.0625
1054.70114	10611.1625
1058.38998	10556.1625
1062.07627	10560.3625
1065.76003	10542.9625
1069.44126	10547.3625
1073.11995	10643.4625
1076.79611	10695.3625
1080.46974	10917.0625
1084.14085	11139.0625
1087.80943	11361.4625
1091.47549	11376.2625
1095.13903	11205.4625
1098.80005	10933.7625
1102.45857	10746.4625
1106.11456	10769.5625
1109.76805	10911.0625
1113.41903	11214.6625
1117.06751	11599.4625
1120.71348	12068.5625
1124.35696	12520.4625
1127.99793	12814.1625
1131.63641	12609.0625
1135.2724	12117.1625
1138.90589	11696.4625
1142.5369	11387.3625
1146.16542	11112.8625
1149.79145	10949.8625
1153.415	10900.4625
1157.03607	10917.5625
1160.65467	11056.0625
1164.27079	11292.7625
1167.88443	11767.6625
1171.49561	12470.3625
1175.10432	13650.2625
1178.71056	15213.1625
1182.31434	16546.5625
1185.91565	16946.9625
1189.51451	16464.4625
1193.11091	15458.0625
1196.70485	14436.6625
1200.29634	13759.5625
1203.88538	13257.6625
1207.47197	12702.0625
1211.05612	12146.5625
1214.63782	11882.7625
1218.21708	11778.9625
1221.79391	11796.5625
1225.36829	11837.5625
1228.94024	11810.9625
1232.50976	11699.2625
1236.07685	11640.0625
1239.6415	11645.5625
1243.20374	11737.3625
1246.76355	11838.3625
1250.32093	11990.2625
1253.8759	12247.8625
1257.42845	12515.1625
1260.97859	12833.0625
1264.52631	13144.2625
1268.07163	13430.2625
1271.61453	13740.2625
1275.15503	13986.1625
1278.69312	14197.0625
1282.22882	14389.2625
1285.76211	14682.2625
1289.29301	15002.3625
1292.82151	15360.5625
1296.34761	15847.9625
1299.87133	16704.1625
1303.39266	18142.7625
1306.9116	20217.2625
1310.42815	22166.3625
1313.94233	22715.7625
1317.45412	21516.9625
1320.96354	19695.6625
1324.47058	18015.7625
1327.97525	16705.3625
1331.47754	15916.4625
1334.97747	15718.7625
1338.47502	15908.0625
1341.97022	16461.8625
1345.46305	17308.3625
1348.95352	18356.1625
1352.44163	19648.8625
1355.92738	21619.9625
1359.41078	24694.2625
1362.89183	27108.6625
1366.37053	25647.0625
1369.84688	21492.3625
1373.32088	17965.2625
1376.79254	15962.8625
1380.26186	14888.7625
1383.72883	14214.0625
1387.19347	13725.4625
1390.65578	13297.5625
1394.11575	12993.8625
1397.57339	12847.0625
1401.0287	12825.6625
1404.48168	12894.3625
1407.93234	13018.7625
1411.38068	13204.2625
1414.82669	13323.7625
1418.27039	13341.5625
1421.71177	13212.8625
1425.15083	13027.1625
1428.58758	12989.5625
1432.02203	13090.2625
1435.45416	13211.8625
1438.88399	13182.2625
1442.31151	13114.7625
1445.73673	13119.0625
1449.15965	13137.1625
1452.58027	13068.2625
1455.9986	12930.0625
1459.41463	12881.4625
1462.82837	12984.9625
1466.23982	13188.7625
1469.64898	13436.4625
1473.05586	13666.6625
1476.46045	13797.2625
1479.86276	14021.3625
1483.26279	14291.9625
1486.66054	14673.8625
1490.05602	15152.2625
1493.44922	15861.1625
1496.84016	16912.9625
1500.22882	18621.8625
1503.61521	20934.1625
1506.99934	23524.9625
1510.38121	25281.5625
1513.76081	25050.2625
1517.13816	22820.3625
1520.51324	19794.9625
1523.88607	17411.1625
1527.25665	15964.4625
1530.62498	15173.0625
1533.99105	14669.6625
1537.35488	14453.5625
1540.71647	14310.8625
1544.07581	14286.5625
1547.4329	14287.9625
1550.78776	14354.1625
1554.14038	14423.9625
1557.49077	14528.6625
1560.83892	14665.8625
1564.18484	14925.0625
1567.52853	15263.8625
1570.86999	15575.2625
1574.20922	15701.2625
1577.54624	15530.3625
1580.88103	14905.9625
1584.2136	14158.6625
1587.54395	13817.5625
1590.87208	14106.6625
1594.19801	14890.3625
1597.52172	15808.3625
1600.84321	16267.0625
1604.16251	15861.1625
1607.47959	15075.9625
1610.79447	14170.3625
1614.10715	13283.5625
1617.41763	12648.7625
1620.7259	12214.4625
1624.03199	12053.3625
1627.33587	12092.8625
1630.63757	12367.6625
1633.93707	12888.1625
1637.23439	13654.0625
1640.52951	14711.1625
1643.82246	16178.7625
1647.11321	17782.9625
1650.40179	18685.1625
1653.68819	17830.0625
1656.97241	15752.7625
1660.25446	13687.4625
1663.53433	12289.3625
1666.81203	11484.3625
1670.08756	11013.3625
1673.36092	10706.6625
1676.63211	10505.1625
1679.90115	10359.4625
1683.16801	10256.1625
1686.43272	10168.9625
1689.69527	10060.6625
1692.95567	10055.9625
1696.2139	10014.4625
1699.46999	9981.8625
1702.72392	9940.3625
1705.97571	9922.9625
1709.22535	9939.1625
1712.47284	9928.9625
1715.71819	9925.5625
1718.96139	9891.7625
1722.20246	9865.6625
1725.44139	9819.8625
1728.67818	9775.4625
1731.91284	9721.4625
1735.14537	9700.0625
1738.37576	9686.2625
1741.60403	9645.5625
1744.83017	9624.7625
1748.05418	9602.3625
1751.27607	9594.1625
1754.49584	9565.1625
1757.71349	9547.8625
1760.92903	9551.4625
1764.14244	9533.7625
1767.35375	9533.8625
1770.56294	9531.6625
1773.77002	9509.8625
1776.97499	9481.3625
1780.17785	9481.2625
1783.37861	9458.8625
1786.57727	9463.5625
1789.77382	9452.3625
1792.96828	9443.8625
1796.16064	9427.0625
1799.3509	9426.2625
1802.53907	9429.7625
1805.72514	9412.8625
1808.90913	9362.6625
1812.09102	9373.6625
1815.27083	9341.0625
1818.44856	9334.0625
1821.6242	9316.7625
1824.79776	9304.0625
1827.96924	9290.7625
1831.13864	9309.6625
1834.30597	9300.5625
1837.47122	9280.5625
1840.6344	9258.7625
1843.7955	9258.1625
1846.95454	9252.6625
1850.11151	9261.2625
1853.26642	9262.5625
1856.41926	9276.7625
1859.57004	9254.0625
1862.71876	9258.9625
1865.86542	9251.3625
1869.01003	9256.2625
1872.15258	9258.0625
1875.29308	9279.5625
1878.43152	9260.4625
1881.56792	9255.1625
1884.70227	9263.8625
1887.83457	9227.5625
1890.96482	9237.8625
1894.09304	9241.9625
1897.21921	9208.5625
1900.34335	9222.2625
1903.46544	9207.4625
1906.58551	9217.0625
1909.70353	9225.5625
1912.81953	9215.1625
1915.93349	9193.5625
1919.04543	9194.6625
1922.15534	9210.9625
1925.26322	9175.0625
1928.36908	9176.7625
1931.47292	9172.6625
1934.57473	9142.0625
1937.67453	9105.3625
1940.77232	9129.1625
1943.86808	9077.5625
1946.96184	9056.9625
1950.05358	9026.6625
1953.14331	9030.5625
1956.23103	9005.7625
1959.31675	8957.9625
1962.40046	8970.3625
1965.48217	8943.2625
1968.56188	8929.4625
1971.63959	8896.0625
1974.7153	8873.4625
1977.78901	8840.9625
1980.86073	8826.2625
1983.93046	8803.0625
1986.99819	8783.1625
1990.06394	8751.7625
1993.1277	8741.6625
1996.18947	8698.4625
1999.24925	8670.2625
2002.30706	8643.4625
2005.36288	8624.3625
2008.41672	8610.1625
2011.46859	8595.2625
2014.51848	8564.7625
2017.56639	8541.1625
2020.61233	8539.7625
2023.6563	8515.5625
2026.6983	8525.2625
2029.73833	8468.9625
2032.7764	8469.4625
2035.8125	8451.5625
2038.84664	8465.2625
2041.87881	8442.1625
2044.90903	8453.9625
2047.93729	8430.5625
2050.96359	8443.1625
2053.98794	8441.6625
2057.01034	8424.2625
2060.03078	8434.4625
2063.04927	8411.5625
2066.06582	8396.7625
2069.08042	8377.8625
2072.09307	8386.9625
2075.10378	8366.8625
2078.11255	8375.8625
2081.11938	8376.4625
2084.12426	8382.9625
2087.12722	8382.7625
2090.12824	8358.4625
2093.12732	8361.2625
2096.12447	8367.5625
2099.11969	8356.2625
2102.11299	8375.0625
2105.10435	8373.7625
2108.09379	8400.7625
2111.08131	8400.8625
2114.0669	8401.9625
2117.05057	8425.8625
2120.03233	8433.8625
2123.01216	8450.1625
2125.99008	8467.0625
2128.96609	8436.5625
2131.94018	8452.6625
2134.91236	8482.5625
2137.88263	8490.5625
2140.851	8480.3625
2143.81746	8516.3625
2146.78201	8501.6625
2149.74466	8495.3625
2152.7054	8512.2625
2155.66425	8512.8625
2158.6212	8532.0625
2161.57625	8517.8625
2164.52941	8503.5625
2167.48067	8491.1625
2170.43004	8484.8625
2173.37752	8499.0625
2176.32311	8490.5625
2179.26681	8506.8625
2182.20863	8497.8625
2185.14856	8502.1625
2188.08661	8512.7625
2191.02278	8527.5625
2193.95707	8520.0625
2196.88948	8501.7625
2199.82001	8530.1625
2202.74867	8538.0625
2205.67545	8521.3625
2208.60037	8541.2625
2211.52341	8522.5625
2214.44458	8498.8625
2217.36388	8502.8625
2220.28132	8485.0625
2223.1969	8442.5625
2226.11061	8447.8625
2229.02246	8421.7625
2231.93245	8433.2625
2234.84058	8411.5625
2237.74686	8401.3625
2240.65128	8399.2625
2243.55385	8394.1625
2246.45456	8383.8625
2249.35343	8370.4625
2252.25044	8381.1625
2255.14561	8384.1625
2258.03893	8376.6625
2260.93041	8362.9625
2263.82004	8354.0625
2266.70783	8337.2625
2269.59378	8331.7625
2272.4779	8333.7625
2275.36017	8290.7625
2278.24061	8274.0625
2281.11922	8261.3625
2283.996	8257.6625
2286.87094	8247.6625
2289.74405	8236.0625
2292.61534	8223.3625
2295.4848	8213.2625
2298.35243	8219.2625
2301.21824	8212.8625
2304.08223	8220.7625
2306.94439	8208.8625
2309.80474	8225.4625
2312.66327	8228.8625
2315.51999	8255.8625
2318.37489	8225.2625
2321.22797	8236.4625
2324.07925	8236.1625
2326.92871	8222.1625
2329.77637	8209.7625
2332.62222	8232.3625
2335.46626	8208.3625
2338.3085	8203.0625
2341.14893	8206.5625
2343.98756	8228.2625
2346.8244	8210.8625
2349.65943	8219.4625
2352.49267	8228.8625
2355.32411	8200.0625
2358.15376	8208.8625
2360.98161	8209.4625
2363.80768	8198.1625
2366.63195	8209.6625
2369.45444	8198.8625
2372.27514	8200.0625
2375.09405	8194.2625
2377.91118	8179.4625
2380.72652	8146.1625
2383.54009	8106.5625
2386.35187	8092.6625
2389.16188	8079.4625
2391.97011	8066.7625
2394.77657	8066.7625
2397.58125	8042.3625
2400.38416	8011.7625
2403.18529	8030.7625
2405.98466	8007.7625
2408.78226	7969.4625
2411.57809	7981.1625
2414.37216	7953.1625
2417.16446	7961.0625
2419.955	7929.6625
2422.74378	7953.1625
2425.5308	7946.5625
2428.31606	7940.0625
2431.09956	7962.7625
2433.88131	7945.9625
2436.6613	7939.2625
2439.43954	7936.9625
2442.21603	7934.3625
2444.99077	7945.6625
2447.76377	7939.5625
2450.53501	7924.2625
2453.30451	7921.2625
2456.07226	7924.5625
2458.83827	7913.3625
2461.60254	7900.0625
2464.36507	7888.6625
2467.12586	7898.4625
2469.88492	7896.0625
2472.64224	7923.9625
2475.39782	7916.7625
2478.15167	7930.9625
2480.90379	7918.6625
2483.65417	7918.2625
2486.40283	7952.2625
2489.14976	7964.3625
2491.89497	7959.0625
2494.63845	7942.0625
2497.3802	7950.5625
2500.12024	7958.7625
2502.85855	7947.9625
2505.59514	7941.8625
2508.33002	7909.5625
2511.06318	7899.6625
2513.79462	7860.3625
2516.52435	7869.8625
2519.25237	7839.7625
2521.97867	7837.9625
2524.70327	7828.0625
2527.42616	7833.9625
2530.14734	7828.0625
2532.86681	7820.0625
2535.58458	7817.1625
2538.30065	7799.6625
2541.01501	7809.2625
2543.72768	7790.1625
2546.43864	7786.8625
2549.14791	7797.6625
2551.85548	7790.3625
2554.56136	7775.2625
2557.26554	7766.0625
2559.96803	7782.0625
2562.66883	7736.4625
2565.36794	7757.4625
2568.06536	7754.7625
2570.7611	7744.8625
2573.45514	7706.1625
2576.14751	7720.6625
2578.83819	7711.1625
2581.52719	7716.9625
2584.21451	7721.3625
2586.90015	7718.4625
2589.58411	7709.7625
2592.2664	7710.6625
2594.94701	7658.8625
2597.62594	7672.4625
2600.30321	7678.0625
2602.9788	7671.9625
2605.65273	7653.7625
2608.32498	7665.6625
2610.99557	7666.4625
2613.66449	7696.6625
2616.33175	7689.7625
2618.99734	7666.0625
2621.66128	7662.3625
2624.32355	7673.8625
2626.98416	7673.1625
2629.64311	7674.7625
2632.30041	7686.2625
2634.95605	7654.4625
2637.61004	7631.0625
2640.26238	7639.3625
2642.91306	7634.8625
2645.56209	7617.1625
2648.20948	7618.1625
2650.85521	7617.9625
2653.4993	7600.7625
2656.14175	7575.7625
2658.78255	7578.1625
2661.42171	7604.8625
2664.05923	7591.3625
2666.6951	7620.8625
2669.32934	7608.9625
2671.96194	7642.7625
2674.59291	7636.2625
2677.22224	7622.5625
2679.84993	7649.0625
2682.476	7616.2625
2685.10043	7617.7625
2687.72324	7623.1625
2690.34441	7634.0625
2692.96396	7634.6625
2695.58188	7596.7625
2698.19818	7586.1625
2700.81285	7596.4625
2703.4259	7592.6625
2706.03733	7590.6625
2708.64714	7588.8625
2711.25533	7597.7625
2713.86191	7626.6625
2716.46687	7629.5625
2719.07021	7632.1625
2721.67194	7635.0625
2724.27206	7646.6625
2726.87057	7622.1625
2729.46747	7621.6625
2732.06276	7637.1625
2734.65644	7635.6625
2737.24852	7615.8625
2739.83899	7598.9625
2742.42786	7625.4625
2745.01513	7608.9625
2747.60079	7587.7625
2750.18486	7583.1625
2752.76733	7590.4625
2755.3482	7573.7625
2757.92747	7571.3625
2760.50515	7554.7625
2763.08123	7581.4625
2765.65573	7549.5625
2768.22863	7550.2625
2770.79994	7539.5625
2773.36967	7545.2625
2775.9378	7527.0625
2778.50435	7519.4625
2781.06932	7533.4625
2783.6327	7513.9625
2786.1945	7526.6625
2788.75471	7514.4625
2791.31335	7521.6625
2793.87041	7497.7625
2796.42589	7481.9625
2798.97979	7488.7625
2801.53212	7451.0625
2804.08288	7475.4625
2806.63206	7433.5625
2809.17967	7449.8625
2811.72571	7438.6625
2814.27018	7411.8625
2816.81308	7431.1625
2819.35442	7422.6625
2821.89419	7397.3625
2824.43239	7413.1625
2826.96904	7410.9625
2829.50412	7399.0625
2832.03763	7372.3625
2834.56959	7395.0625
2837.1	7358.4625
2839.62884	7388.3625
2842.15613	7375.5625
2844.68186	7379.9625
2847.20604	7374.5625
2849.72867	7355.4625
2852.24974	7333.9625
2854.76927	7364.3625
2857.28724	7349.0625
2859.80367	7350.1625
2862.31855	7338.1625
2864.83189	7340.9625
2867.34368	7339.5625
2869.85393	7341.7625
2872.36264	7346.9625
2874.8698	7335.1625
2877.37543	7340.8625
2879.87952	7351.4625
2882.38207	7326.1625
2884.88308	7345.0625
2887.38256	7350.0625
2889.88051	7331.0625
2892.37692	7328.7625
2894.8718	7367.8625
2897.36515	7351.4625
2899.85698	7339.3625
2902.34727	7351.2625
2904.83604	7367.5625
2907.32328	7414.2625
2909.809	7363.9625
2912.29319	7370.9625
2914.77587	7369.7625
2917.25702	7373.1625
2919.73665	7357.7625
2922.21476	7393.1625
2924.69136	7358.2625
2927.16644	7356.7625
2929.64	7357.8625
2932.11205	7332.1625
2934.58258	7319.9625
2937.05161	7321.3625
2939.51912	7331.5625
2941.98513	7353.0625
2944.44962	7329.4625
2946.91261	7323.7625
2949.37409	7348.6625
2951.83407	7329.3625
2954.29254	7326.4625
2956.74951	7323.1625
2959.20498	7319.1625
2961.65895	7320.9625
2964.11142	7333.5625
2966.56239	7320.8625
2969.01186	7317.7625
2971.45984	7308.4625
2973.90632	7314.9625
2976.35131	7316.8625
2978.7948	7295.5625
2981.23681	7251.1625
2983.67732	7270.1625
2986.11635	7258.9625
2988.55388	7233.4625
2990.98993	7211.2625
2993.4245	7212.5625
2995.85758	7202.0625
2998.28917	7202.4625
3000.71928	7195.3625
3003.14791	7164.7625
3005.57506	7173.5625
3008.00073	7159.2625
3010.42493	7149.1625
3012.84764	7122.7625
3015.26888	7132.3625
3017.68865	7129.0625
3020.10694	7118.1625
3022.52376	7108.6625
3024.9391	7110.6625
3027.35298	7093.4625
3029.76539	7082.4625
3032.17632	7102.3625
3034.5858	7085.4625
3036.9938	7084.3625
3039.40034	7071.5625
3041.80542	7084.9625
3044.20903	7092.7625
3046.61118	7079.9625
3049.01187	7034.0625
3051.4111	7016.0625
3053.80888	7034.1625
3056.20519	7025.3625
3058.60005	6981.6625
3060.99345	6991.9625
3063.3854	6997.4625
3065.7759	6976.2625
3068.16494	6957.2625
3070.55254	6919.7625
3072.93868	6945.6625
3075.32338	6927.7625
3077.70662	6926.6625
3080.08842	6900.5625
3082.46878	6899.0625
3084.84769	6898.6625
3087.22515	6906.5625
3089.60118	6878.3625
3091.97576	6898.1625
3094.3489	6912.5625
3096.72061	6908.3625
3099.09087	6913.8625
3101.4597	6911.4625
3103.82709	6953.6625
3106.19305	6933.6625
3108.55757	6969.1625
3110.92066	6934.2625
3113.28232	6926.3625
3115.64255	6909.4625
3118.00134	6904.8625
3120.35871	6895.6625
3122.71466	6915.9625
3125.06917	6899.8625
3127.42226	6879.1625
3129.77393	6890.4625
3132.12417	6892.4625
3134.47299	6889.7625
3136.82039	6886.2625
3139.16636	6888.7625
3141.51092	6888.6625
3143.85406	6885.6625
3146.19579	6899.9625
3148.53609	6917.6625
3150.87499	6929.3625
3153.21246	6934.7625
3155.54853	6960.2625
3157.88318	6940.0625
3160.21642	6956.7625
3162.54826	6950.5625
3164.87868	6969.0625
3167.2077	6985.7625
3169.5353	6968.0625
3171.86151	6979.5625
3174.18631	7001.2625
3176.5097	6980.6625
3178.83169	6969.7625
3181.15228	6978.4625
3183.47147	6961.5625
3185.78926	6961.5625
3188.10565	6964.3625
3190.42065	6932.3625
3192.73424	6941.7625
3195.04645	6956.8625
3197.35725	6985.9625
3199.66667	6980.8625
3201.97469	7003.8625
3204.28132	6978.4625
3206.58656	6990.6625
3208.8904	7000.6625
3211.19287	7005.1625
3213.49394	7006.8625
3215.79363	7019.9625
3218.09193	7043.6625
3220.38884	7029.3625
3222.68438	7046.4625
3224.97853	7043.5625
3227.2713	7045.7625
3229.56269	7067.6625
3231.8527	7052.5625
3234.14133	7020.2625
3236.42858	7022.5625
3238.71446	7010.2625
3240.99896	6995.5625
3243.28209	7002.9625
3245.56384	6990.7625
3247.84423	6990.1625
3250.12324	6986.9625
3252.40088	6985.5625
3254.67715	6993.9625
3256.95205	6976.0625
3259.22558	6993.5625
3261.49775	6994.9625
3263.76855	6994.3625
3266.03799	7001.9625
3268.30606	7002.1625
3270.57277	6973.5625
3272.83812	6957.8625
3275.10211	6979.2625
3277.36474	6938.1625
3279.62601	6954.8625
3281.88593	6930.7625
3284.14448	6945.5625
3286.40168	6952.6625
3288.65753	6950.8625
3290.91202	6945.0625
3293.16516	6920.1625
3295.41695	6941.3625
3297.66738	6884.2625
3299.91647	6845.4625
3302.16421	6819.2625
3304.4106	6796.7625
3306.65564	6739.0625
3308.89933	6706.6625
3311.14169	6677.8625
3313.38269	6626.5625
3315.62236	6573.8625
3317.86068	6542.3625
3320.09766	6508.2625
3322.3333	6445.8625
3324.5676	6409.9625
3326.80056	6343.7625
3329.03219	6312.9625
3331.26248	2.5625
3333.49143	0.1625
3335.71905	-0.5375
