Data from AgNPs_UA_20uM_CRN_0uM_R6G_10uM_Q_RamanShift__4__12-41-02-006.txt Node

Date: Mon Jul 18 12:41:02 BST 2022
User: TCL
Spectrometer: QEP01345
Trigger mode: 4
Integration Time (sec): 7.000000E0
Scans to average: 10
Electric dark correction enabled: true
Nonlinearity correction enabled: false
Boxcar width: 0
XAxis mode: Raman Shifts
Number of Pixels in Spectrum: 1044
>>>>>Begin Spectral Data<<<<<
46.04893	-2.3875
50.45542	-1.3875
54.85868	-0.3875
59.25871	-2.9875
63.6555	137.4125
68.04907	144.7125
72.43941	151.2125
76.82654	152.8125
81.21044	161.7125
85.59113	160.5125
89.96862	173.7125
94.34289	172.6125
98.71396	180.1125
103.08183	189.4125
107.4465	188.3125
111.80798	201.5125
116.16626	201.9125
120.52136	216.0125
124.87327	228.8125
129.222	237.2125
133.56755	250.7125
137.90993	279.8125
142.24913	301.0125
146.58517	340.5125
150.91804	402.7125
155.24774	484.0125
159.57429	604.7125
163.89768	778.3125
168.21792	1043.4125
172.53501	1420.5125
176.84895	1996.9125
181.15975	2820.0125
185.46741	3958.9125
189.77193	5454.6125
194.07331	7281.8125
198.37157	9364.1125
202.6667	11519.2125
206.9587	13657.9125
211.24758	15786.6125
215.53334	17917.9125
219.81599	20283.0125
224.09553	22883.0125
228.37195	25749.0125
232.64527	28851.9125
236.91549	32071.0125
241.18261	35086.5125
245.44663	37743.7125
249.70755	39985.7125
253.96539	41941.6125
258.22014	43574.5125
262.4718	45015.8125
266.72039	46001.9125
270.96589	46417.6125
275.20832	46330.8125
279.44768	46026.8125
283.68397	45476.8125
287.91719	45165.5125
292.14735	45061.4125
296.37445	45427.0125
300.59849	46120.7125
304.81948	46969.8125
309.03742	47651.7125
313.25231	47720.0125
317.46415	47008.7125
321.67296	45701.0125
325.87872	44553.0125
330.08145	43994.9125
334.28114	43956.9125
338.47781	44385.2125
342.67145	45086.8125
346.86207	46038.9125
351.04966	47163.2125
355.23424	48322.5125
359.4158	49148.8125
363.59435	49648.3125
367.76989	49801.8125
371.94243	49861.3125
376.11196	49839.5125
380.27849	49930.7125
384.44203	50140.2125
388.60257	50412.7125
392.76012	50691.4125
396.91468	51252.9125
401.06626	51933.5125
405.21485	52319.9125
409.36047	51756.3125
413.50311	50706.1125
417.64277	50000.3125
421.77947	49826.4125
425.9132	49868.8125
430.04396	50034.8125
434.17176	50363.2125
438.2966	50947.2125
442.41849	52075.9125
446.53742	53691.1125
450.6534	55444.8125
454.76644	56325.3125
458.87653	56217.4125
462.98368	55660.1125
467.08789	54807.2125
471.18916	53709.7125
475.2875	52640.7125
479.38291	51786.2125
483.4754	50990.7125
487.56496	50436.9125
491.6516	50013.6125
495.73531	49823.3125
499.81612	49921.6125
503.89401	50298.2125
507.96899	50409.1125
512.04106	50444.8125
516.11023	50477.6125
520.1765	50458.9125
524.23987	50418.3125
528.30034	50434.1125
532.35792	50121.7125
536.41261	49524.9125
540.46441	48965.7125
544.51333	48901.8125
548.55936	49499.9125
552.60252	50581.9125
556.64279	51869.6125
560.6802	52691.8125
564.71473	53066.6125
568.7464	53766.2125
572.7752	54820.4125
576.80114	55580.8125
580.82422	56673.1125
584.84444	58192.5125
588.86181	60359.4125
592.87633	62531.8125
596.888	62829.7125
600.89682	61358.7125
604.9028	62843.3125
608.90594	69705.0125
612.90624	76128.8125
616.90371	69616.1125
620.89834	56950.2125
624.89015	52014.0125
628.87913	51551.5125
632.86528	51957.8125
636.84862	51897.3125
640.82913	50843.7125
644.80683	49431.5125
648.78172	48625.8125
652.75379	48794.6125
656.72306	49869.8125
660.68952	50879.4125
664.65319	50280.4125
668.61405	49301.8125
672.57211	49214.9125
676.52738	49452.5125
680.47986	49156.9125
684.42955	48679.5125
688.37646	48596.9125
692.32058	49077.5125
696.26192	49824.1125
700.20048	50551.6125
704.13626	50870.0125
708.06928	50596.9125
711.99952	50215.1125
715.927	50284.6125
719.85171	50469.3125
723.77365	50325.2125
727.69284	49694.8125
731.60928	49146.3125
735.52295	49073.5125
739.43388	49323.1125
743.34206	49556.1125
747.24749	49717.6125
751.15017	50063.4125
755.05012	51045.9125
758.94733	52918.1125
762.8418	56723.6125
766.73354	62367.6125
770.62254	66697.3125
774.50882	66926.8125
778.39237	63324.3125
782.27321	58490.5125
786.15132	54265.6125
790.02671	51660.9125
793.89938	50339.9125
797.76935	49777.2125
801.6366	49465.2125
805.50115	49293.3125
809.36299	48997.0125
813.22213	48596.0125
817.07857	48471.6125
820.93231	48342.8125
824.78336	48334.4125
828.63172	48357.4125
832.47738	48312.5125
836.32036	48345.8125
840.16066	48441.5125
843.99827	48547.9125
847.8332	48472.6125
851.66546	48489.3125
855.49504	48598.5125
859.32195	48558.4125
863.1462	48461.6125
866.96777	48433.7125
870.78668	48371.6125
874.60293	48423.2125
878.41652	48626.5125
882.22745	48857.6125
886.03573	49031.3125
889.84136	48935.1125
893.64433	48711.8125
897.44466	48539.8125
901.24235	48389.2125
905.0374	48210.1125
908.8298	48129.2125
912.61957	48108.4125
916.40671	48426.7125
920.19121	48965.7125
923.97308	49555.0125
927.75233	49873.6125
931.52895	49760.2125
935.30295	49120.9125
939.07433	48160.5125
942.84309	47505.6125
946.60924	47246.7125
950.37278	47142.6125
954.13371	47074.9125
957.89203	47070.6125
961.64774	47012.2125
965.40086	46974.5125
969.15137	46898.2125
972.89929	46886.2125
976.64461	46956.4125
980.38733	47045.1125
984.12747	47215.4125
987.86502	47537.2125
991.59999	47922.6125
995.33237	48503.7125
999.06217	49621.2125
1002.78939	50827.9125
1006.51404	51774.7125
1010.23611	52473.7125
1013.95561	52974.7125
1017.67255	53033.6125
1021.38692	52487.0125
1025.09872	51713.4125
1028.80796	51456.1125
1032.51465	51877.5125
1036.21877	52574.7125
1039.92035	52702.3125
1043.61937	52493.6125
1047.31584	51863.5125
1051.00976	51243.2125
1054.70114	51032.1125
1058.38998	51118.3125
1062.07627	51393.1125
1065.76003	51797.9125
1069.44126	52428.7125
1073.11995	53306.2125
1076.79611	54181.3125
1080.46974	54842.2125
1084.14085	55446.6125
1087.80943	56205.2125
1091.47549	56525.3125
1095.13903	56036.8125
1098.80005	54856.8125
1102.45857	53811.1125
1106.11456	53124.3125
1109.76805	53067.6125
1113.41903	53424.6125
1117.06751	54142.0125
1120.71348	55065.7125
1124.35696	56025.4125
1127.99793	56691.3125
1131.63641	56516.9125
1135.2724	55628.5125
1138.90589	55035.6125
1142.5369	54716.7125
1146.16542	54749.1125
1149.79145	54962.8125
1153.415	55236.6125
1157.03607	55759.4125
1160.65467	56876.7125
1164.27079	59103.3125
1167.88443	61946.1125
1171.49561	65793.3125
1175.10432	71141.0125
1178.71056	77607.8125
1182.31434	83134.3125
1185.91565	84912.8125
1189.51451	83567.7125
1193.11091	80516.3125
1196.70485	77015.0125
1200.29634	73895.9125
1203.88538	71262.6125
1207.47197	68926.1125
1211.05612	66948.3125
1214.63782	65488.2125
1218.21708	64627.2125
1221.79391	64195.8125
1225.36829	64165.9125
1228.94024	63772.4125
1232.50976	62744.0125
1236.07685	61581.2125
1239.6415	60979.9125
1243.20374	60868.8125
1246.76355	61268.5125
1250.32093	62171.1125
1253.8759	63347.1125
1257.42845	65025.6125
1260.97859	66917.5125
1264.52631	68913.8125
1268.07163	70939.8125
1271.61453	72828.8125
1275.15503	74703.0125
1278.69312	76309.4125
1282.22882	77798.8125
1285.76211	79722.7125
1289.29301	82349.1125
1292.82151	85380.0125
1296.34761	89085.5125
1299.87133	93967.3125
1303.39266	100122.2125
1306.9116	107206.3125
1310.42815	113828.0125
1313.94233	117152.5125
1317.45412	115306.0125
1320.96354	110725.7125
1324.47058	106092.5125
1327.97525	101834.1125
1331.47754	98886.0125
1334.97747	97346.1125
1338.47502	96881.4125
1341.97022	97121.2125
1345.46305	98059.7125
1348.95352	99747.8125
1352.44163	102174.8125
1355.92738	106498.2125
1359.41078	113318.2125
1362.89183	118977.3125
1366.37053	115818.1125
1369.84688	104008.3125
1373.32088	91215.9125
1376.79254	83035.1125
1380.26186	79732.8125
1383.72883	78769.9125
1387.19347	78100.8125
1390.65578	76753.4125
1394.11575	76083.5125
1397.57339	75913.1125
1401.0287	76049.0125
1404.48168	76165.9125
1407.93234	75843.3125
1411.38068	75078.7125
1414.82669	73819.3125
1418.27039	72050.0125
1421.71177	70308.1125
1425.15083	68968.4125
1428.58758	68438.8125
1432.02203	69323.6125
1435.45416	70993.2125
1438.88399	72402.6125
1442.31151	73089.7125
1445.73673	73504.6125
1449.15965	73456.2125
1452.58027	73234.5125
1455.9986	72865.2125
1459.41463	73067.7125
1462.82837	73943.0125
1466.23982	75247.3125
1469.64898	76532.6125
1473.05586	77549.1125
1476.46045	77971.5125
1479.86276	77931.2125
1483.26279	77976.8125
1486.66054	78660.7125
1490.05602	79944.8125
1493.44922	81822.3125
1496.84016	84524.2125
1500.22882	88591.4125
1503.61521	94119.7125
1506.99934	100077.7125
1510.38121	104115.1125
1513.76081	103753.2125
1517.13816	98712.0125
1520.51324	91777.2125
1523.88607	86275.2125
1527.25665	83444.7125
1530.62498	82431.8125
1533.99105	81619.8125
1537.35488	80412.7125
1540.71647	78875.5125
1544.07581	77156.9125
1547.4329	75380.4125
1550.78776	73919.9125
1554.14038	73042.2125
1557.49077	72798.4125
1560.83892	73033.0125
1564.18484	73779.6125
1567.52853	74816.4125
1570.86999	75848.3125
1574.20922	76752.0125
1577.54624	76870.6125
1580.88103	75554.0125
1584.2136	74318.3125
1587.54395	74732.2125
1590.87208	77544.7125
1594.19801	82126.3125
1597.52172	86751.8125
1600.84321	88141.2125
1604.16251	85114.5125
1607.47959	79826.8125
1610.79447	73733.1125
1614.10715	68133.6125
1617.41763	63758.0125
1620.7259	60800.7125
1624.03199	59364.3125
1627.33587	59529.0125
1630.63757	61290.5125
1633.93707	64888.9125
1637.23439	71073.1125
1640.52951	80072.7125
1643.82246	90580.9125
1647.11321	98871.6125
1650.40179	100155.8125
1653.68819	92654.2125
1656.97241	80211.5125
1660.25446	68640.1125
1663.53433	60574.6125
1666.81203	55584.0125
1670.08756	52474.9125
1673.36092	50630.5125
1676.63211	49391.0125
1679.90115	48499.6125
1683.16801	47797.8125
1686.43272	47263.7125
1689.69527	46865.7125
1692.95567	46533.3125
1696.2139	46327.4125
1699.46999	46154.0125
1702.72392	46077.9125
1705.97571	46042.5125
1709.22535	45954.9125
1712.47284	45957.2125
1715.71819	45937.7125
1718.96139	45847.4125
1722.20246	45670.9125
1725.44139	45523.9125
1728.67818	45276.5125
1731.91284	45059.5125
1735.14537	44774.9125
1738.37576	44680.3125
1741.60403	44480.4125
1744.83017	44349.2125
1748.05418	44223.7125
1751.27607	44142.8125
1754.49584	44080.1125
1757.71349	44114.5125
1760.92903	44038.5125
1764.14244	43978.8125
1767.35375	43917.4125
1770.56294	43850.8125
1773.77002	43813.0125
1776.97499	43775.2125
1780.17785	43630.0125
1783.37861	43565.5125
1786.57727	43489.0125
1789.77382	43418.6125
1792.96828	43309.1125
1796.16064	43277.2125
1799.3509	43173.6125
1802.53907	43079.1125
1805.72514	42931.4125
1808.90913	42936.9125
1812.09102	42868.9125
1815.27083	42762.8125
1818.44856	42746.5125
1821.6242	42712.7125
1824.79776	42600.0125
1827.96924	42557.9125
1831.13864	42500.8125
1834.30597	42484.2125
1837.47122	42475.5125
1840.6344	42390.3125
1843.7955	42354.0125
1846.95454	42309.3125
1850.11151	42429.6125
1853.26642	42343.7125
1856.41926	42349.1125
1859.57004	42322.0125
1862.71876	42281.5125
1865.86542	42323.9125
1869.01003	42316.7125
1872.15258	42190.0125
1875.29308	42213.3125
1878.43152	42092.7125
1881.56792	42054.6125
1884.70227	42099.6125
1887.83457	42053.4125
1890.96482	42007.9125
1894.09304	41986.8125
1897.21921	41995.7125
1900.34335	41892.1125
1903.46544	41793.1125
1906.58551	41755.6125
1909.70353	41683.3125
1912.81953	41672.9125
1915.93349	41641.4125
1919.04543	41548.7125
1922.15534	41469.7125
1925.26322	41437.2125
1928.36908	41413.7125
1931.47292	41311.2125
1934.57473	41225.4125
1937.67453	41131.8125
1940.77232	40984.0125
1943.86808	40865.0125
1946.96184	40733.5125
1950.05358	40659.8125
1953.14331	40458.4125
1956.23103	40394.2125
1959.31675	40271.2125
1962.40046	40197.1125
1965.48217	40023.6125
1968.56188	39991.2125
1971.63959	39872.5125
1974.7153	39746.3125
1977.78901	39678.7125
1980.86073	39553.5125
1983.93046	39432.2125
1986.99819	39332.2125
1990.06394	39222.0125
1993.1277	39109.8125
1996.18947	39011.4125
1999.24925	38982.3125
2002.30706	38806.5125
2005.36288	38724.3125
2008.41672	38678.0125
2011.46859	38581.5125
2014.51848	38416.6125
2017.56639	38380.3125
2020.61233	38363.0125
2023.6563	38271.9125
2026.6983	38164.6125
2029.73833	38083.1125
2032.7764	37944.5125
2035.8125	37880.8125
2038.84664	37830.0125
2041.87881	37888.1125
2044.90903	37692.1125
2047.93729	37616.3125
2050.96359	37615.6125
2053.98794	37626.6125
2057.01034	37533.4125
2060.03078	37531.9125
2063.04927	37534.4125
2066.06582	37518.0125
2069.08042	37539.8125
2072.09307	37536.5125
2075.10378	37485.5125
2078.11255	37402.9125
2081.11938	37410.5125
2084.12426	37320.9125
2087.12722	37353.3125
2090.12824	37387.1125
2093.12732	37388.2125
2096.12447	37375.2125
2099.11969	37406.5125
2102.11299	37442.3125
2105.10435	37410.4125
2108.09379	37444.6125
2111.08131	37467.7125
2114.0669	37452.9125
2117.05057	37381.9125
2120.03233	37511.7125
2123.01216	37504.1125
2125.99008	37568.8125
2128.96609	37721.9125
2131.94018	37805.8125
2134.91236	37819.7125
2137.88263	37821.3125
2140.851	37853.0125
2143.81746	37902.8125
2146.78201	37919.9125
2149.74466	37928.3125
2152.7054	37869.0125
2155.66425	37877.5125
2158.6212	37818.1125
2161.57625	37754.8125
2164.52941	37819.7125
2167.48067	37848.8125
2170.43004	37854.1125
2173.37752	37789.0125
2176.32311	37765.4125
2179.26681	37753.1125
2182.20863	37742.3125
2185.14856	37787.3125
2188.08661	37779.4125
2191.02278	37806.3125
2193.95707	37727.7125
2196.88948	37762.3125
2199.82001	37734.0125
2202.74867	37689.2125
2205.67545	37701.9125
2208.60037	37615.2125
2211.52341	37570.3125
2214.44458	37539.3125
2217.36388	37524.0125
2220.28132	37464.0125
2223.1969	37363.8125
2226.11061	37287.8125
2229.02246	37236.0125
2231.93245	37147.1125
2234.84058	37150.0125
2237.74686	37093.4125
2240.65128	37081.9125
2243.55385	37029.8125
2246.45456	36984.5125
2249.35343	36873.9125
2252.25044	36840.4125
2255.14561	36810.8125
2258.03893	36790.4125
2260.93041	36755.5125
2263.82004	36662.8125
2266.70783	36594.2125
2269.59378	36553.5125
2272.4779	36492.7125
2275.36017	36466.8125
2278.24061	36412.3125
2281.11922	36341.3125
2283.996	36321.0125
2286.87094	36220.1125
2289.74405	36164.1125
2292.61534	36159.4125
2295.4848	36218.1125
2298.35243	36233.6125
2301.21824	36193.8125
2304.08223	36224.7125
2306.94439	36127.0125
2309.80474	36166.8125
2312.66327	36090.2125
2315.51999	36118.9125
2318.37489	36142.3125
2321.22797	36136.4125
2324.07925	36055.8125
2326.92871	35988.6125
2329.77637	36015.8125
2332.62222	35963.6125
2335.46626	35907.1125
2338.3085	35851.8125
2341.14893	35796.0125
2343.98756	35863.6125
2346.8244	35918.9125
2349.65943	35969.2125
2352.49267	35954.0125
2355.32411	35995.0125
2358.15376	35889.6125
2360.98161	35861.0125
2363.80768	35853.4125
2366.63195	35884.4125
2369.45444	35882.3125
2372.27514	35830.0125
2375.09405	35721.7125
2377.91118	35602.1125
2380.72652	35500.4125
2383.54009	35469.0125
2386.35187	35400.4125
2389.16188	35355.9125
2391.97011	35356.2125
2394.77657	35280.8125
2397.58125	35224.3125
2400.38416	35165.0125
2403.18529	35179.0125
2405.98466	35182.8125
2408.78226	35039.0125
2411.57809	35048.7125
2414.37216	34966.1125
2417.16446	34907.6125
2419.955	34866.9125
2422.74378	34859.5125
2425.5308	34805.1125
2428.31606	34805.2125
2431.09956	34817.9125
2433.88131	34773.5125
2436.6613	34741.6125
2439.43954	34759.7125
2442.21603	34746.1125
2444.99077	34747.1125
2447.76377	34733.9125
2450.53501	34713.5125
2453.30451	34743.0125
2456.07226	34739.5125
2458.83827	34706.0125
2461.60254	34758.6125
2464.36507	34762.5125
2467.12586	34665.6125
2469.88492	34692.7125
2472.64224	34637.7125
2475.39782	34622.1125
2478.15167	34776.7125
2480.90379	34692.9125
2483.65417	34798.3125
2486.40283	34830.3125
2489.14976	34852.6125
2491.89497	34830.9125
2494.63845	34824.9125
2497.3802	34851.5125
2500.12024	34834.3125
2502.85855	34773.5125
2505.59514	34733.5125
2508.33002	34612.9125
2511.06318	34571.3125
2513.79462	34560.6125
2516.52435	34446.3125
2519.25237	34512.7125
2521.97867	34510.6125
2524.70327	34512.1125
2527.42616	34443.4125
2530.14734	34425.5125
2532.86681	34379.6125
2535.58458	34381.5125
2538.30065	34379.0125
2541.01501	34479.5125
2543.72768	34408.5125
2546.43864	34364.4125
2549.14791	34291.2125
2551.85548	34304.9125
2554.56136	34212.0125
2557.26554	34168.7125
2559.96803	34170.1125
2562.66883	34095.6125
2565.36794	34032.4125
2568.06536	34051.8125
2570.7611	33985.9125
2573.45514	33932.8125
2576.14751	33940.6125
2578.83819	33888.9125
2581.52719	33903.6125
2584.21451	33840.1125
2586.90015	33810.2125
2589.58411	33790.8125
2592.2664	33790.3125
2594.94701	33771.2125
2597.62594	33803.6125
2600.30321	33700.9125
2602.9788	33697.8125
2605.65273	33637.5125
2608.32498	33609.8125
2610.99557	33623.6125
2613.66449	33627.1125
2616.33175	33636.9125
2618.99734	33658.0125
2621.66128	33631.6125
2624.32355	33557.3125
2626.98416	33477.5125
2629.64311	33437.4125
2632.30041	33392.7125
2634.95605	33391.7125
2637.61004	33379.9125
2640.26238	33338.7125
2642.91306	33297.4125
2645.56209	33308.7125
2648.20948	33289.8125
2650.85521	33274.9125
2653.4993	33284.8125
2656.14175	33287.2125
2658.78255	33356.2125
2661.42171	33397.4125
2664.05923	33425.2125
2666.6951	33479.7125
2669.32934	33499.5125
2671.96194	33456.3125
2674.59291	33453.5125
2677.22224	33345.4125
2679.84993	33431.6125
2682.476	33419.2125
2685.10043	33424.5125
2687.72324	33300.9125
2690.34441	33300.6125
2692.96396	33329.8125
2695.58188	33403.7125
2698.19818	33334.0125
2700.81285	33310.1125
2703.4259	33304.1125
2706.03733	33309.0125
2708.64714	33327.0125
2711.25533	33360.4125
2713.86191	33337.6125
2716.46687	33414.7125
2719.07021	33444.5125
2721.67194	33529.3125
2724.27206	33513.0125
2726.87057	33521.0125
2729.46747	33534.5125
2732.06276	33575.6125
2734.65644	33575.3125
2737.24852	33558.8125
2739.83899	33470.7125
2742.42786	33472.6125
2745.01513	33388.0125
2747.60079	33429.0125
2750.18486	33444.0125
2752.76733	33436.5125
2755.3482	33392.7125
2757.92747	33348.2125
2760.50515	33353.3125
2763.08123	33304.1125
2765.65573	33263.9125
2768.22863	33325.5125
2770.79994	33268.7125
2773.36967	33260.8125
2775.9378	33211.1125
2778.50435	33174.8125
2781.06932	33103.7125
2783.6327	33108.5125
2786.1945	33083.8125
2788.75471	33117.8125
2791.31335	32996.0125
2793.87041	33000.7125
2796.42589	32948.9125
2798.97979	32936.5125
2801.53212	32890.4125
2804.08288	32902.8125
2806.63206	32815.9125
2809.17967	32747.7125
2811.72571	32645.5125
2814.27018	32635.6125
2816.81308	32511.6125
2819.35442	32557.0125
2821.89419	32474.6125
2824.43239	32460.9125
2826.96904	32432.0125
2829.50412	32517.6125
2832.03763	32348.8125
2834.56959	32353.8125
2837.1	32292.8125
2839.62884	32264.7125
2842.15613	32176.1125
2844.68186	32179.8125
2847.20604	32142.9125
2849.72867	32163.0125
2852.24974	32198.5125
2854.76927	32191.9125
2857.28724	32122.7125
2859.80367	32141.2125
2862.31855	32016.3125
2864.83189	32025.2125
2867.34368	31971.7125
2869.85393	31937.1125
2872.36264	31881.8125
2874.8698	31883.0125
2877.37543	31855.7125
2879.87952	31867.0125
2882.38207	31872.9125
2884.88308	31885.8125
2887.38256	31928.9125
2889.88051	31891.0125
2892.37692	31913.5125
2894.8718	31884.5125
2897.36515	31941.2125
2899.85698	31950.0125
2902.34727	32009.6125
2904.83604	32030.6125
2907.32328	32125.4125
2909.809	32170.2125
2912.29319	32201.5125
2914.77587	32203.6125
2917.25702	32204.3125
2919.73665	32164.1125
2922.21476	32207.0125
2924.69136	32115.5125
2927.16644	32060.3125
2929.64	32024.7125
2932.11205	31960.6125
2934.58258	31788.6125
2937.05161	31822.4125
2939.51912	31887.4125
2941.98513	31855.8125
2944.44962	31791.7125
2946.91261	31715.0125
2949.37409	31892.9125
2951.83407	31842.5125
2954.29254	31878.4125
2956.74951	31842.2125
2959.20498	31810.4125
2961.65895	31857.9125
2964.11142	31841.3125
2966.56239	31774.0125
2969.01186	31724.7125
2971.45984	31688.7125
2973.90632	31703.7125
2976.35131	31678.6125
2978.7948	31609.8125
2981.23681	31618.9125
2983.67732	31530.8125
2986.11635	31536.5125
2988.55388	31419.5125
2990.98993	31375.0125
2993.4245	31258.4125
2995.85758	31241.6125
2998.28917	31153.0125
3000.71928	31056.9125
3003.14791	30933.8125
3005.57506	30919.6125
3008.00073	30767.0125
3010.42493	30783.2125
3012.84764	30745.1125
3015.26888	30740.2125
3017.68865	30625.7125
3020.10694	30593.7125
3022.52376	30585.0125
3024.9391	30593.9125
3027.35298	30563.9125
3029.76539	30529.9125
3032.17632	30523.5125
3034.5858	30491.4125
3036.9938	30435.1125
3039.40034	30380.6125
3041.80542	30339.6125
3044.20903	30299.5125
3046.61118	30269.7125
3049.01187	30220.3125
3051.4111	30221.8125
3053.80888	30168.6125
3056.20519	30164.4125
3058.60005	30090.3125
3060.99345	30016.8125
3063.3854	29941.1125
3065.7759	29885.4125
3068.16494	29795.7125
3070.55254	29672.4125
3072.93868	29654.1125
3075.32338	29552.9125
3077.70662	29495.1125
3080.08842	29414.9125
3082.46878	29382.4125
3084.84769	29413.8125
3087.22515	29473.3125
3089.60118	29434.5125
3091.97576	29364.2125
3094.3489	29328.0125
3096.72061	29327.4125
3099.09087	29369.9125
3101.4597	29298.8125
3103.82709	29319.1125
3106.19305	29313.2125
3108.55757	29290.5125
3110.92066	29255.9125
3113.28232	29248.9125
3115.64255	29145.0125
3118.00134	29121.5125
3120.35871	29038.7125
3122.71466	28991.6125
3125.06917	28926.2125
3127.42226	28831.8125
3129.77393	28880.4125
3132.12417	28788.0125
3134.47299	28788.4125
3136.82039	28659.7125
3139.16636	28685.8125
3141.51092	28693.9125
3143.85406	28722.9125
3146.19579	28687.7125
3148.53609	28697.5125
3150.87499	28763.6125
3153.21246	28713.6125
3155.54853	28798.2125
3157.88318	28713.5125
3160.21642	28726.7125
3162.54826	28713.2125
3164.87868	28760.2125
3167.2077	28764.0125
3169.5353	28786.8125
3171.86151	28765.6125
3174.18631	28689.3125
3176.5097	28622.2125
3178.83169	28672.0125
3181.15228	28696.3125
3183.47147	28595.2125
3185.78926	28527.4125
3188.10565	28487.8125
3190.42065	28465.3125
3192.73424	28398.8125
3195.04645	28372.1125
3197.35725	28394.0125
3199.66667	28365.0125
3201.97469	28364.7125
3204.28132	28314.3125
3206.58656	28352.5125
3208.8904	28362.4125
3211.19287	28307.8125
3213.49394	28311.1125
3215.79363	28313.9125
3218.09193	28368.5125
3220.38884	28380.5125
3222.68438	28399.4125
3224.97853	28360.8125
3227.2713	28368.4125
3229.56269	28324.1125
3231.8527	28361.0125
3234.14133	28293.2125
3236.42858	28275.5125
3238.71446	28269.6125
3240.99896	28182.0125
3243.28209	28151.3125
3245.56384	28009.8125
3247.84423	27974.2125
3250.12324	27938.8125
3252.40088	27969.3125
3254.67715	27975.5125
3256.95205	27919.1125
3259.22558	27924.7125
3261.49775	27915.2125
3263.76855	27896.6125
3266.03799	27837.7125
3268.30606	27842.8125
3270.57277	27795.7125
3272.83812	27741.9125
3275.10211	27705.0125
3277.36474	27625.5125
3279.62601	27632.0125
3281.88593	27609.3125
3284.14448	27661.3125
3286.40168	27647.6125
3288.65753	27599.3125
3290.91202	27619.3125
3293.16516	27596.6125
3295.41695	27543.5125
3297.66738	27425.9125
3299.91647	27287.3125
3302.16421	27104.0125
3304.4106	27022.2125
3306.65564	26864.1125
3308.89933	26664.7125
3311.14169	26480.0125
3313.38269	26319.1125
3315.62236	26140.3125
3317.86068	26013.2125
3320.09766	25895.0125
3322.3333	25705.7125
3324.5676	25560.4125
3326.80056	25203.9125
3329.03219	25100.3125
3331.26248	6.0125
3333.49143	-0.2875
3335.71905	1.2125
