Data from AgNPs_UA_10uM_CRN_0uM_R6G_10uM_Q_RamanShift__22__12-14-22-651.txt Node

Date: Mon Jul 18 12:14:22 BST 2022
User: TCL
Spectrometer: QEP01345
Trigger mode: 4
Integration Time (sec): 7.000000E0
Scans to average: 10
Electric dark correction enabled: true
Nonlinearity correction enabled: false
Boxcar width: 0
XAxis mode: Raman Shifts
Number of Pixels in Spectrum: 1044
>>>>>Begin Spectral Data<<<<<
46.04893	-1.6875
50.45542	-2.6875
54.85868	-1.4875
59.25871	-0.5875
63.6555	125.0125
68.04907	133.3125
72.43941	138.7125
76.82654	146.7125
81.21044	144.4125
85.59113	148.1125
89.96862	157.5125
94.34289	163.3125
98.71396	165.9125
103.08183	174.3125
107.4465	178.8125
111.80798	179.8125
116.16626	187.4125
120.52136	191.1125
124.87327	207.8125
129.222	218.3125
133.56755	230.2125
137.90993	247.4125
142.24913	268.2125
146.58517	307.9125
150.91804	357.4125
155.24774	428.4125
159.57429	534.0125
163.89768	687.4125
168.21792	910.3125
172.53501	1248.1125
176.84895	1734.3125
181.15975	2438.5125
185.46741	3438.3125
189.77193	4706.7125
194.07331	6259.3125
198.37157	8025.1125
202.6667	9848.9125
206.9587	11729.0125
211.24758	13552.7125
215.53334	15373.0125
219.81599	17356.7125
224.09553	19630.7125
228.37195	22110.9125
232.64527	24842.5125
236.91549	27596.8125
241.18261	30309.3125
245.44663	32729.6125
249.70755	34890.6125
253.96539	36788.5125
258.22014	38427.3125
262.4718	39799.2125
266.72039	40752.5125
270.96589	41254.6125
275.20832	41330.8125
279.44768	40993.0125
283.68397	40493.1125
287.91719	40157.4125
292.14735	40064.5125
296.37445	40124.5125
300.59849	40574.5125
304.81948	40965.7125
309.03742	41173.7125
313.25231	40845.3125
317.46415	39827.8125
321.67296	38473.3125
325.87872	37438.3125
330.08145	37027.7125
334.28114	37132.4125
338.47781	37612.1125
342.67145	38154.0125
346.86207	39041.6125
351.04966	40136.8125
355.23424	41313.4125
359.4158	42340.5125
363.59435	42912.8125
367.76989	43330.7125
371.94243	43585.8125
376.11196	43690.7125
380.27849	43883.1125
384.44203	44035.3125
388.60257	44042.0125
392.76012	44272.3125
396.91468	44804.0125
401.06626	45581.2125
405.21485	46126.0125
409.36047	45761.0125
413.50311	44867.3125
417.64277	44080.3125
421.77947	43823.4125
425.9132	43955.4125
430.04396	44200.8125
434.17176	44608.1125
438.2966	45304.9125
442.41849	46392.2125
446.53742	47847.5125
450.6534	49395.3125
454.76644	50489.3125
458.87653	50651.5125
462.98368	50117.1125
467.08789	49202.5125
471.18916	48181.1125
475.2875	47228.5125
479.38291	46606.8125
483.4754	46032.6125
487.56496	45360.5125
491.6516	44728.6125
495.73531	44294.8125
499.81612	44121.5125
503.89401	44384.1125
507.96899	44550.1125
512.04106	44543.2125
516.11023	44673.5125
520.1765	44712.6125
524.23987	44605.9125
528.30034	44297.8125
532.35792	43972.2125
536.41261	43414.7125
540.46441	42908.2125
544.51333	42844.9125
548.55936	43445.5125
552.60252	44398.3125
556.64279	45441.8125
560.6802	46077.2125
564.71473	46475.1125
568.7464	47384.0125
572.7752	48211.0125
576.80114	48392.3125
580.82422	48542.8125
584.84444	49203.6125
588.86181	50347.7125
592.87633	51778.5125
596.888	52697.1125
600.89682	53188.2125
604.9028	56082.2125
608.90594	63101.2125
612.90624	68965.1125
616.90371	62800.9125
620.89834	51321.0125
624.89015	47132.5125
628.87913	46701.2125
632.86528	46428.0125
636.84862	45890.0125
640.82913	44792.2125
644.80683	43490.2125
648.78172	42629.7125
652.75379	42737.2125
656.72306	43656.2125
660.68952	44620.1125
664.65319	44299.2125
668.61405	43448.1125
672.57211	43218.6125
676.52738	43239.3125
680.47986	43029.5125
684.42955	42908.3125
688.37646	42882.8125
692.32058	43144.9125
696.26192	43586.2125
700.20048	44055.6125
704.13626	44250.1125
708.06928	43974.4125
711.99952	43659.2125
715.927	43552.8125
719.85171	43660.5125
723.77365	43451.7125
727.69284	43035.9125
731.60928	42761.0125
735.52295	42819.1125
739.43388	43024.6125
743.34206	43278.3125
747.24749	43566.1125
751.15017	43879.3125
755.05012	44666.1125
758.94733	46276.3125
762.8418	49371.5125
766.73354	54013.9125
770.62254	58213.7125
774.50882	58943.5125
778.39237	55896.1125
782.27321	51096.2125
786.15132	47097.8125
790.02671	44812.6125
793.89938	43674.0125
797.76935	43283.3125
801.6366	43205.3125
805.50115	43049.8125
809.36299	42688.8125
813.22213	42427.9125
817.07857	42308.1125
820.93231	42288.3125
824.78336	42292.4125
828.63172	42394.5125
832.47738	42460.9125
836.32036	42593.4125
840.16066	42930.4125
843.99827	43107.3125
847.8332	42929.5125
851.66546	42649.2125
855.49504	42511.2125
859.32195	42452.7125
863.1462	42322.9125
866.96777	42110.3125
870.78668	41953.7125
874.60293	41915.1125
878.41652	42036.3125
882.22745	42227.4125
886.03573	42340.4125
889.84136	42215.8125
893.64433	42038.1125
897.44466	41842.1125
901.24235	41732.1125
905.0374	41676.9125
908.8298	41578.2125
912.61957	41633.3125
916.40671	42031.5125
920.19121	42723.9125
923.97308	43411.4125
927.75233	43919.2125
931.52895	43976.7125
935.30295	43358.3125
939.07433	42365.7125
942.84309	41652.3125
946.60924	41389.2125
950.37278	41242.7125
954.13371	41001.2125
957.89203	40764.4125
961.64774	40693.2125
965.40086	40607.6125
969.15137	40424.7125
972.89929	40320.8125
976.64461	40419.4125
980.38733	40498.9125
984.12747	40825.4125
987.86502	41331.2125
991.59999	41929.1125
995.33237	43060.2125
999.06217	44934.7125
1002.78939	46854.3125
1006.51404	47681.9125
1010.23611	47918.6125
1013.95561	48193.8125
1017.67255	48238.7125
1021.38692	47819.0125
1025.09872	47774.0125
1028.80796	48816.5125
1032.51465	51007.9125
1036.21877	52602.3125
1039.92035	52424.1125
1043.61937	51029.7125
1047.31584	48929.5125
1051.00976	46933.8125
1054.70114	45999.8125
1058.38998	45727.7125
1062.07627	45732.2125
1065.76003	45694.8125
1069.44126	45801.4125
1073.11995	46333.5125
1076.79611	46791.0125
1080.46974	47248.2125
1084.14085	47840.9125
1087.80943	48455.3125
1091.47549	48609.8125
1095.13903	48037.8125
1098.80005	47102.9125
1102.45857	46284.1125
1106.11456	45987.7125
1109.76805	46153.7125
1113.41903	46703.7125
1117.06751	47413.3125
1120.71348	48304.4125
1124.35696	49027.6125
1127.99793	49654.9125
1131.63641	49553.9125
1135.2724	48689.7125
1138.90589	48041.2125
1142.5369	47581.4125
1146.16542	47395.7125
1149.79145	47498.6125
1153.415	47879.0125
1157.03607	48591.8125
1160.65467	49748.3125
1164.27079	51647.4125
1167.88443	54339.3125
1171.49561	58332.2125
1175.10432	63641.3125
1178.71056	70298.8125
1182.31434	76131.5125
1185.91565	78568.7125
1189.51451	77428.6125
1193.11091	73595.4125
1196.70485	69225.6125
1200.29634	65686.1125
1203.88538	62746.0125
1207.47197	60377.8125
1211.05612	58612.6125
1214.63782	57839.1125
1218.21708	58015.8125
1221.79391	58600.6125
1225.36829	58929.4125
1228.94024	58126.0125
1232.50976	56735.4125
1236.07685	55674.7125
1239.6415	55253.5125
1243.20374	55275.5125
1246.76355	55689.8125
1250.32093	56649.0125
1253.8759	58167.5125
1257.42845	59961.9125
1260.97859	61605.2125
1264.52631	63168.9125
1268.07163	64856.1125
1271.61453	66752.1125
1275.15503	69025.7125
1278.69312	71301.2125
1282.22882	73205.0125
1285.76211	74781.4125
1289.29301	76357.3125
1292.82151	78510.0125
1296.34761	81405.7125
1299.87133	85878.8125
1303.39266	91877.4125
1306.9116	99652.0125
1310.42815	107553.7125
1313.94233	112022.8125
1317.45412	110966.6125
1320.96354	106599.5125
1324.47058	101549.8125
1327.97525	97203.4125
1331.47754	94310.2125
1334.97747	93093.2125
1338.47502	93167.4125
1341.97022	93702.3125
1345.46305	93760.3125
1348.95352	93789.9125
1352.44163	94880.2125
1355.92738	98360.9125
1359.41078	105011.5125
1362.89183	110595.9125
1366.37053	107409.6125
1369.84688	96196.8125
1373.32088	84715.3125
1376.79254	77185.4125
1380.26186	73638.5125
1383.72883	72305.6125
1387.19347	71347.2125
1390.65578	70192.9125
1394.11575	69860.8125
1397.57339	70802.8125
1401.0287	72193.3125
1404.48168	73502.8125
1407.93234	74225.7125
1411.38068	74382.1125
1414.82669	73296.8125
1418.27039	70960.8125
1421.71177	68311.3125
1425.15083	66106.4125
1428.58758	65102.9125
1432.02203	65470.4125
1435.45416	66638.1125
1438.88399	67795.1125
1442.31151	68661.7125
1445.73673	69308.0125
1449.15965	69910.6125
1452.58027	70183.2125
1455.9986	70064.3125
1459.41463	70175.1125
1462.82837	70988.3125
1466.23982	72523.8125
1469.64898	73960.2125
1473.05586	74838.3125
1476.46045	75304.8125
1479.86276	75306.6125
1483.26279	75290.9125
1486.66054	75388.7125
1490.05602	76057.9125
1493.44922	77097.8125
1496.84016	78324.7125
1500.22882	80260.3125
1503.61521	83703.6125
1506.99934	88075.8125
1510.38121	91833.5125
1513.76081	92800.3125
1517.13816	89783.1125
1520.51324	84477.7125
1523.88607	79713.8125
1527.25665	76726.8125
1530.62498	75077.5125
1533.99105	74186.2125
1537.35488	73539.2125
1540.71647	72913.1125
1544.07581	72164.6125
1547.4329	71096.3125
1550.78776	69979.9125
1554.14038	69080.1125
1557.49077	68556.4125
1560.83892	68373.8125
1564.18484	68571.5125
1567.52853	68867.8125
1570.86999	69161.6125
1574.20922	69778.0125
1577.54624	70060.6125
1580.88103	69347.9125
1584.2136	68964.5125
1587.54395	70318.9125
1590.87208	74136.3125
1594.19801	79919.3125
1597.52172	85699.1125
1600.84321	87760.4125
1604.16251	84462.5125
1607.47959	77873.6125
1610.79447	70600.9125
1614.10715	64221.1125
1617.41763	59337.2125
1620.7259	56329.3125
1624.03199	55028.9125
1627.33587	55263.2125
1630.63757	57243.5125
1633.93707	60763.0125
1637.23439	66099.3125
1640.52951	72966.9125
1643.82246	80312.3125
1647.11321	85726.0125
1650.40179	86202.1125
1653.68819	80031.3125
1656.97241	69878.5125
1660.25446	60249.1125
1663.53433	53380.3125
1666.81203	49037.6125
1670.08756	46303.5125
1673.36092	44653.9125
1676.63211	43463.6125
1679.90115	42634.0125
1683.16801	41999.8125
1686.43272	41523.0125
1689.69527	41200.5125
1692.95567	40935.4125
1696.2139	40752.5125
1699.46999	40586.7125
1702.72392	40519.6125
1705.97571	40419.6125
1709.22535	40464.6125
1712.47284	40406.1125
1715.71819	40407.9125
1718.96139	40306.1125
1722.20246	40074.8125
1725.44139	39948.6125
1728.67818	39754.1125
1731.91284	39530.4125
1735.14537	39326.1125
1738.37576	39199.5125
1741.60403	39117.2125
1744.83017	39023.2125
1748.05418	38971.8125
1751.27607	38851.6125
1754.49584	38800.2125
1757.71349	38753.6125
1760.92903	38718.3125
1764.14244	38681.5125
1767.35375	38652.6125
1770.56294	38655.3125
1773.77002	38596.1125
1776.97499	38565.3125
1780.17785	38515.2125
1783.37861	38480.4125
1786.57727	38440.9125
1789.77382	38367.3125
1792.96828	38342.6125
1796.16064	38335.1125
1799.3509	38296.3125
1802.53907	38192.3125
1805.72514	38071.9125
1808.90913	37959.6125
1812.09102	37947.5125
1815.27083	37886.5125
1818.44856	37839.2125
1821.6242	37817.0125
1824.79776	37773.4125
1827.96924	37707.6125
1831.13864	37708.8125
1834.30597	37673.2125
1837.47122	37647.7125
1840.6344	37683.7125
1843.7955	37691.0125
1846.95454	37654.4125
1850.11151	37643.8125
1853.26642	37597.4125
1856.41926	37647.3125
1859.57004	37680.5125
1862.71876	37670.9125
1865.86542	37676.4125
1869.01003	37648.1125
1872.15258	37708.8125
1875.29308	37664.8125
1878.43152	37657.6125
1881.56792	37602.8125
1884.70227	37625.2125
1887.83457	37680.6125
1890.96482	37648.9125
1894.09304	37657.7125
1897.21921	37703.1125
1900.34335	37654.2125
1903.46544	37572.5125
1906.58551	37546.1125
1909.70353	37567.4125
1912.81953	37567.8125
1915.93349	37584.0125
1919.04543	37517.5125
1922.15534	37460.9125
1925.26322	37438.8125
1928.36908	37343.6125
1931.47292	37293.8125
1934.57473	37125.9125
1937.67453	37027.7125
1940.77232	36999.4125
1943.86808	36863.5125
1946.96184	36805.9125
1950.05358	36679.9125
1953.14331	36486.1125
1956.23103	36382.0125
1959.31675	36294.2125
1962.40046	36294.0125
1965.48217	36191.1125
1968.56188	36128.7125
1971.63959	36056.3125
1974.7153	35960.9125
1977.78901	35880.5125
1980.86073	35721.4125
1983.93046	35599.9125
1986.99819	35566.7125
1990.06394	35458.9125
1993.1277	35378.4125
1996.18947	35276.4125
1999.24925	35194.6125
2002.30706	35141.9125
2005.36288	35120.7125
2008.41672	35041.6125
2011.46859	34844.8125
2014.51848	34808.7125
2017.56639	34812.2125
2020.61233	34770.9125
2023.6563	34653.1125
2026.6983	34528.6125
2029.73833	34454.8125
2032.7764	34423.6125
2035.8125	34422.5125
2038.84664	34367.9125
2041.87881	34361.8125
2044.90903	34272.0125
2047.93729	34210.5125
2050.96359	34190.8125
2053.98794	34136.4125
2057.01034	34134.4125
2060.03078	34178.5125
2063.04927	34155.8125
2066.06582	34081.9125
2069.08042	34077.9125
2072.09307	34057.5125
2075.10378	34050.7125
2078.11255	33991.3125
2081.11938	33959.7125
2084.12426	33977.0125
2087.12722	33949.7125
2090.12824	33933.6125
2093.12732	33912.3125
2096.12447	33924.5125
2099.11969	33971.2125
2102.11299	34037.4125
2105.10435	33975.9125
2108.09379	34010.1125
2111.08131	34076.4125
2114.0669	34008.2125
2117.05057	34025.3125
2120.03233	34101.5125
2123.01216	34159.8125
2125.99008	34246.4125
2128.96609	34218.7125
2131.94018	34349.5125
2134.91236	34357.9125
2137.88263	34382.4125
2140.851	34350.0125
2143.81746	34367.6125
2146.78201	34432.8125
2149.74466	34483.7125
2152.7054	34522.4125
2155.66425	34482.2125
2158.6212	34532.4125
2161.57625	34461.5125
2164.52941	34440.2125
2167.48067	34443.3125
2170.43004	34439.9125
2173.37752	34440.7125
2176.32311	34454.1125
2179.26681	34506.1125
2182.20863	34516.6125
2185.14856	34599.2125
2188.08661	34566.8125
2191.02278	34626.4125
2193.95707	34600.4125
2196.88948	34636.7125
2199.82001	34675.4125
2202.74867	34608.5125
2205.67545	34599.7125
2208.60037	34569.0125
2211.52341	34545.9125
2214.44458	34578.7125
2217.36388	34579.5125
2220.28132	34537.0125
2223.1969	34482.2125
2226.11061	34402.6125
2229.02246	34364.6125
2231.93245	34328.0125
2234.84058	34214.6125
2237.74686	34193.6125
2240.65128	34160.7125
2243.55385	34099.9125
2246.45456	34070.0125
2249.35343	34027.9125
2252.25044	33987.6125
2255.14561	33951.5125
2258.03893	33955.1125
2260.93041	33860.0125
2263.82004	33833.4125
2266.70783	33793.6125
2269.59378	33711.4125
2272.4779	33625.3125
2275.36017	33605.5125
2278.24061	33532.2125
2281.11922	33481.5125
2283.996	33430.3125
2286.87094	33407.4125
2289.74405	33344.8125
2292.61534	33375.3125
2295.4848	33381.0125
2298.35243	33453.9125
2301.21824	33509.6125
2304.08223	33517.2125
2306.94439	33530.6125
2309.80474	33589.4125
2312.66327	33640.9125
2315.51999	33645.0125
2318.37489	33697.2125
2321.22797	33663.6125
2324.07925	33655.9125
2326.92871	33602.0125
2329.77637	33633.8125
2332.62222	33608.8125
2335.46626	33674.0125
2338.3085	33750.5125
2341.14893	33724.3125
2343.98756	33746.6125
2346.8244	33813.8125
2349.65943	33998.0125
2352.49267	33910.6125
2355.32411	33875.7125
2358.15376	33869.4125
2360.98161	33841.1125
2363.80768	33769.4125
2366.63195	33764.5125
2369.45444	33731.5125
2372.27514	33615.9125
2375.09405	33522.6125
2377.91118	33461.7125
2380.72652	33336.2125
2383.54009	33258.5125
2386.35187	33255.0125
2389.16188	33237.8125
2391.97011	33239.8125
2394.77657	33144.3125
2397.58125	33153.2125
2400.38416	33076.0125
2403.18529	33068.4125
2405.98466	33071.7125
2408.78226	32948.5125
2411.57809	32902.5125
2414.37216	32823.5125
2417.16446	32813.4125
2419.955	32736.7125
2422.74378	32741.7125
2425.5308	32687.0125
2428.31606	32603.1125
2431.09956	32650.6125
2433.88131	32645.8125
2436.6613	32653.3125
2439.43954	32665.5125
2442.21603	32616.4125
2444.99077	32617.6125
2447.76377	32598.1125
2450.53501	32575.6125
2453.30451	32600.9125
2456.07226	32556.7125
2458.83827	32566.8125
2461.60254	32589.7125
2464.36507	32583.6125
2467.12586	32510.0125
2469.88492	32572.1125
2472.64224	32618.4125
2475.39782	32586.4125
2478.15167	32724.2125
2480.90379	32726.1125
2483.65417	32873.4125
2486.40283	32888.1125
2489.14976	33000.7125
2491.89497	33022.7125
2494.63845	33039.3125
2497.3802	33029.3125
2500.12024	32999.0125
2502.85855	32959.4125
2505.59514	32927.8125
2508.33002	32837.7125
2511.06318	32799.7125
2513.79462	32796.4125
2516.52435	32733.8125
2519.25237	32717.0125
2521.97867	32717.3125
2524.70327	32746.7125
2527.42616	32695.5125
2530.14734	32759.2125
2532.86681	32715.5125
2535.58458	32752.9125
2538.30065	32774.3125
2541.01501	32723.4125
2543.72768	32755.5125
2546.43864	32703.3125
2549.14791	32672.0125
2551.85548	32622.1125
2554.56136	32535.3125
2557.26554	32599.2125
2559.96803	32603.9125
2562.66883	32564.0125
2565.36794	32529.1125
2568.06536	32603.1125
2570.7611	32583.4125
2573.45514	32569.0125
2576.14751	32563.4125
2578.83819	32549.4125
2581.52719	32522.4125
2584.21451	32545.2125
2586.90015	32555.6125
2589.58411	32606.3125
2592.2664	32703.5125
2594.94701	32608.9125
2597.62594	32686.4125
2600.30321	32589.5125
2602.9788	32537.7125
2605.65273	32510.0125
2608.32498	32559.9125
2610.99557	32538.3125
2613.66449	32599.0125
2616.33175	32587.7125
2618.99734	32605.9125
2621.66128	32627.6125
2624.32355	32699.0125
2626.98416	32701.7125
2629.64311	32697.7125
2632.30041	32712.6125
2634.95605	32658.6125
2637.61004	32625.2125
2640.26238	32650.4125
2642.91306	32680.3125
2645.56209	32601.0125
2648.20948	32576.7125
2650.85521	32481.7125
2653.4993	32459.3125
2656.14175	32472.1125
2658.78255	32496.4125
2661.42171	32556.7125
2664.05923	32629.1125
2666.6951	32623.8125
2669.32934	32674.9125
2671.96194	32653.4125
2674.59291	32659.8125
2677.22224	32652.8125
2679.84993	32707.2125
2682.476	32614.9125
2685.10043	32634.6125
2687.72324	32600.3125
2690.34441	32568.3125
2692.96396	32497.4125
2695.58188	32517.5125
2698.19818	32409.2125
2700.81285	32422.0125
2703.4259	32407.2125
2706.03733	32534.6125
2708.64714	32564.8125
2711.25533	32584.1125
2713.86191	32535.9125
2716.46687	32585.0125
2719.07021	32611.3125
2721.67194	32645.5125
2724.27206	32658.0125
2726.87057	32672.9125
2729.46747	32716.0125
2732.06276	32743.3125
2734.65644	32709.7125
2737.24852	32692.1125
2739.83899	32618.7125
2742.42786	32599.3125
2745.01513	32582.9125
2747.60079	32620.1125
2750.18486	32662.2125
2752.76733	32660.9125
2755.3482	32629.4125
2757.92747	32651.7125
2760.50515	32601.6125
2763.08123	32558.2125
2765.65573	32552.6125
2768.22863	32550.1125
2770.79994	32518.1125
2773.36967	32541.8125
2775.9378	32499.5125
2778.50435	32546.8125
2781.06932	32505.9125
2783.6327	32538.8125
2786.1945	32536.6125
2788.75471	32574.3125
2791.31335	32433.3125
2793.87041	32357.1125
2796.42589	32312.4125
2798.97979	32332.7125
2801.53212	32338.4125
2804.08288	32315.2125
2806.63206	32232.2125
2809.17967	32162.3125
2811.72571	32172.1125
2814.27018	32078.9125
2816.81308	32011.4125
2819.35442	32038.0125
2821.89419	32011.9125
2824.43239	32033.9125
2826.96904	31999.1125
2829.50412	31989.9125
2832.03763	31903.8125
2834.56959	31927.8125
2837.1	31949.6125
2839.62884	31936.7125
2842.15613	31879.5125
2844.68186	31901.5125
2847.20604	31784.5125
2849.72867	31806.2125
2852.24974	31755.2125
2854.76927	31740.9125
2857.28724	31770.1125
2859.80367	31729.4125
2862.31855	31734.7125
2864.83189	31764.9125
2867.34368	31720.8125
2869.85393	31701.7125
2872.36264	31626.7125
2874.8698	31640.1125
2877.37543	31658.3125
2879.87952	31717.5125
2882.38207	31708.4125
2884.88308	31687.7125
2887.38256	31695.6125
2889.88051	31728.6125
2892.37692	31741.7125
2894.8718	31749.0125
2897.36515	31761.7125
2899.85698	31754.9125
2902.34727	31844.2125
2904.83604	31881.8125
2907.32328	31971.0125
2909.809	32000.0125
2912.29319	32032.5125
2914.77587	32018.2125
2917.25702	31983.0125
2919.73665	31991.5125
2922.21476	31975.8125
2924.69136	31957.2125
2927.16644	31925.2125
2929.64	31887.7125
2932.11205	31857.5125
2934.58258	31708.7125
2937.05161	31729.2125
2939.51912	31712.5125
2941.98513	31747.1125
2944.44962	31741.5125
2946.91261	31577.4125
2949.37409	31710.3125
2951.83407	31671.4125
2954.29254	31726.3125
2956.74951	31690.6125
2959.20498	31682.6125
2961.65895	31667.4125
2964.11142	31729.0125
2966.56239	31670.0125
2969.01186	31593.0125
2971.45984	31564.6125
2973.90632	31522.0125
2976.35131	31408.9125
2978.7948	31363.3125
2981.23681	31306.0125
2983.67732	31302.9125
2986.11635	31280.9125
2988.55388	31204.3125
2990.98993	31162.1125
2993.4245	31082.0125
2995.85758	31049.4125
2998.28917	30911.3125
3000.71928	30892.5125
3003.14791	30826.9125
3005.57506	30772.2125
3008.00073	30649.4125
3010.42493	30706.2125
3012.84764	30637.4125
3015.26888	30630.5125
3017.68865	30562.1125
3020.10694	30531.0125
3022.52376	30460.9125
3024.9391	30414.3125
3027.35298	30412.8125
3029.76539	30457.8125
3032.17632	30404.6125
3034.5858	30418.9125
3036.9938	30396.8125
3039.40034	30386.9125
3041.80542	30344.7125
3044.20903	30257.4125
3046.61118	30315.0125
3049.01187	30224.8125
3051.4111	30198.7125
3053.80888	30100.9125
3056.20519	30091.7125
3058.60005	30057.8125
3060.99345	29955.4125
3063.3854	29862.0125
3065.7759	29791.2125
3068.16494	29730.3125
3070.55254	29623.6125
3072.93868	29596.2125
3075.32338	29504.9125
3077.70662	29423.1125
3080.08842	29330.5125
3082.46878	29337.7125
3084.84769	29320.2125
3087.22515	29358.9125
3089.60118	29328.0125
3091.97576	29337.2125
3094.3489	29324.0125
3096.72061	29306.0125
3099.09087	29320.3125
3101.4597	29325.3125
3103.82709	29368.7125
3106.19305	29298.7125
3108.55757	29286.7125
3110.92066	29200.1125
3113.28232	29175.4125
3115.64255	29151.0125
3118.00134	29116.5125
3120.35871	29093.1125
3122.71466	29001.3125
3125.06917	28929.2125
3127.42226	28884.7125
3129.77393	28888.6125
3132.12417	28829.1125
3134.47299	28871.0125
3136.82039	28882.4125
3139.16636	28828.1125
3141.51092	28766.1125
3143.85406	28785.9125
3146.19579	28782.4125
3148.53609	28787.6125
3150.87499	28806.8125
3153.21246	28777.7125
3155.54853	28772.2125
3157.88318	28745.7125
3160.21642	28816.0125
3162.54826	28832.8125
3164.87868	28905.0125
3167.2077	28907.7125
3169.5353	28896.3125
3171.86151	28799.0125
3174.18631	28753.1125
3176.5097	28767.6125
3178.83169	28788.0125
3181.15228	28794.3125
3183.47147	28741.1125
3185.78926	28680.0125
3188.10565	28670.4125
3190.42065	28665.9125
3192.73424	28672.5125
3195.04645	28631.6125
3197.35725	28615.4125
3199.66667	28568.1125
3201.97469	28608.2125
3204.28132	28556.2125
3206.58656	28638.5125
3208.8904	28640.8125
3211.19287	28581.7125
3213.49394	28603.1125
3215.79363	28627.5125
3218.09193	28667.1125
3220.38884	28663.2125
3222.68438	28720.8125
3224.97853	28670.2125
3227.2713	28717.3125
3229.56269	28705.8125
3231.8527	28745.0125
3234.14133	28714.7125
3236.42858	28651.4125
3238.71446	28642.9125
3240.99896	28583.6125
3243.28209	28546.9125
3245.56384	28470.3125
3247.84423	28453.9125
3250.12324	28478.9125
3252.40088	28417.0125
3254.67715	28397.3125
3256.95205	28380.9125
3259.22558	28372.7125
3261.49775	28346.7125
3263.76855	28401.5125
3266.03799	28348.9125
3268.30606	28380.6125
3270.57277	28305.0125
3272.83812	28231.0125
3275.10211	28170.9125
3277.36474	28100.5125
3279.62601	28147.7125
3281.88593	28140.6125
3284.14448	28183.4125
3286.40168	28208.2125
3288.65753	28158.4125
3290.91202	28171.3125
3293.16516	28099.7125
3295.41695	28076.3125
3297.66738	27997.2125
3299.91647	27856.6125
3302.16421	27662.0125
3304.4106	27615.0125
3306.65564	27436.4125
3308.89933	27299.0125
3311.14169	27099.1125
3313.38269	26911.7125
3315.62236	26828.5125
3317.86068	26634.1125
3320.09766	26435.4125
3322.3333	26303.8125
3324.5676	26219.2125
3326.80056	25882.0125
3329.03219	25777.5125
3331.26248	6.3125
3333.49143	0.6125
3335.71905	1.5125
