Data from AgNPs_UA_100uM_CRN_0uM_R6G_10uM_Q_RamanShift__14__13-28-45-325.txt Node

Date: Tue Jul 26 13:28:45 BST 2022
User: TCL
Spectrometer: QEP01345
Trigger mode: 4
Integration Time (sec): 7.000000E0
Scans to average: 10
Electric dark correction enabled: true
Nonlinearity correction enabled: false
Boxcar width: 0
XAxis mode: Raman Shifts
Number of Pixels in Spectrum: 1044
>>>>>Begin Spectral Data<<<<<
46.04893	-2.0375
50.45542	-0.1375
54.85868	-0.4375
59.25871	-1.1375
63.6555	63.1625
68.04907	68.3625
72.43941	72.1625
76.82654	76.0625
81.21044	82.7625
85.59113	84.5625
89.96862	89.2625
94.34289	90.2625
98.71396	94.5625
103.08183	93.5625
107.4465	96.3625
111.80798	98.1625
116.16626	100.0625
120.52136	102.7625
124.87327	101.9625
129.222	112.5625
133.56755	114.1625
137.90993	115.3625
142.24913	121.8625
146.58517	130.1625
150.91804	143.5625
155.24774	158.6625
159.57429	189.6625
163.89768	235.8625
168.21792	296.4625
172.53501	391.9625
176.84895	538.4625
181.15975	750.0625
185.46741	1044.1625
189.77193	1439.2625
194.07331	1912.3625
198.37157	2466.4625
202.6667	3032.4625
206.9587	3601.7625
211.24758	4153.3625
215.53334	4710.3625
219.81599	5260.2625
224.09553	5873.8625
228.37195	6550.0625
232.64527	7317.8625
236.91549	8126.0625
241.18261	8994.4625
245.44663	9845.2625
249.70755	10620.7625
253.96539	11359.3625
258.22014	11932.2625
262.4718	12385.1625
266.72039	12647.9625
270.96589	12779.6625
275.20832	12748.9625
279.44768	12649.2625
283.68397	12491.1625
287.91719	12324.8625
292.14735	12185.6625
296.37445	12023.1625
300.59849	11948.7625
304.81948	11929.8625
309.03742	11861.4625
313.25231	11824.7625
317.46415	11768.8625
321.67296	11746.6625
325.87872	11748.1625
330.08145	11817.9625
334.28114	11914.5625
338.47781	12065.6625
342.67145	12206.7625
346.86207	12373.2625
351.04966	12544.6625
355.23424	12723.4625
359.4158	12933.2625
363.59435	13125.9625
367.76989	13275.1625
371.94243	13445.5625
376.11196	13583.8625
380.27849	13731.1625
384.44203	13818.5625
388.60257	13979.2625
392.76012	14086.4625
396.91468	14239.4625
401.06626	14375.9625
405.21485	14515.9625
409.36047	14584.3625
413.50311	14597.0625
417.64277	14632.8625
421.77947	14663.7625
425.9132	14720.5625
430.04396	14819.1625
434.17176	14944.9625
438.2966	15087.4625
442.41849	15209.8625
446.53742	15344.4625
450.6534	15532.9625
454.76644	15641.9625
458.87653	15745.5625
462.98368	15843.2625
467.08789	15888.0625
471.18916	15929.2625
475.2875	15923.0625
479.38291	15947.0625
483.4754	15934.8625
487.56496	15978.4625
491.6516	15959.8625
495.73531	16037.6625
499.81612	16071.6625
503.89401	16171.8625
507.96899	16215.5625
512.04106	16253.2625
516.11023	16324.8625
520.1765	16376.1625
524.23987	16415.0625
528.30034	16413.4625
532.35792	16425.9625
536.41261	16483.6625
540.46441	16492.7625
544.51333	16506.1625
548.55936	16578.7625
552.60252	16620.5625
556.64279	16749.0625
560.6802	16864.2625
564.71473	16895.6625
568.7464	16938.4625
572.7752	16981.4625
576.80114	16974.5625
580.82422	17043.4625
584.84444	17121.0625
588.86181	17166.5625
592.87633	17239.6625
596.888	17357.8625
600.89682	17515.2625
604.9028	17830.2625
608.90594	18402.6625
612.90624	18947.1625
616.90371	18662.9625
620.89834	17934.2625
624.89015	17640.6625
628.87913	17654.1625
632.86528	17765.1625
636.84862	17875.9625
640.82913	17875.4625
644.80683	17827.7625
648.78172	17804.6625
652.75379	17855.9625
656.72306	17942.3625
660.68952	18130.4625
664.65319	18127.6625
668.61405	18165.2625
672.57211	18206.2625
676.52738	18292.2625
680.47986	18305.9625
684.42955	18275.0625
688.37646	18328.1625
692.32058	18434.4625
696.26192	18481.9625
700.20048	18615.6625
704.13626	18694.7625
708.06928	18735.2625
711.99952	18683.3625
715.927	18684.8625
719.85171	18727.0625
723.77365	18736.1625
727.69284	18752.0625
731.60928	18729.7625
735.52295	18740.0625
739.43388	18799.8625
743.34206	18900.2625
747.24749	18926.7625
751.15017	18940.9625
755.05012	18993.0625
758.94733	19109.2625
762.8418	19266.2625
766.73354	19574.0625
770.62254	19875.0625
774.50882	20080.6625
778.39237	20043.9625
782.27321	19783.4625
786.15132	19560.1625
790.02671	19366.6625
793.89938	19274.2625
797.76935	19238.7625
801.6366	19232.2625
805.50115	19242.4625
809.36299	19247.4625
813.22213	19264.7625
817.07857	19270.1625
820.93231	19341.4625
824.78336	19367.6625
828.63172	19399.6625
832.47738	19428.6625
836.32036	19428.3625
840.16066	19480.5625
843.99827	19486.2625
847.8332	19555.3625
851.66546	19546.2625
855.49504	19609.3625
859.32195	19680.1625
863.1462	19672.9625
866.96777	19698.0625
870.78668	19764.1625
874.60293	19805.7625
878.41652	19836.2625
882.22745	19917.6625
886.03573	19994.6625
889.84136	19991.7625
893.64433	19968.0625
897.44466	19961.8625
901.24235	19963.2625
905.0374	19969.0625
908.8298	19986.4625
912.61957	19961.3625
916.40671	19998.9625
920.19121	19999.9625
923.97308	19942.7625
927.75233	20000.6625
931.52895	20003.9625
935.30295	20012.9625
939.07433	19957.6625
942.84309	19910.8625
946.60924	19952.5625
950.37278	19895.4625
954.13371	19871.3625
957.89203	19858.0625
961.64774	19895.4625
965.40086	19874.9625
969.15137	19840.4625
972.89929	19861.7625
976.64461	19858.8625
980.38733	19853.0625
984.12747	19895.7625
987.86502	19901.1625
991.59999	20008.7625
995.33237	19991.3625
999.06217	20060.5625
1002.78939	20172.9625
1006.51404	20263.3625
1010.23611	20353.0625
1013.95561	20427.9625
1017.67255	20441.2625
1021.38692	20427.5625
1025.09872	20441.3625
1028.80796	20365.4625
1032.51465	20370.7625
1036.21877	20335.6625
1039.92035	20346.0625
1043.61937	20408.3625
1047.31584	20456.9625
1051.00976	20476.2625
1054.70114	20523.9625
1058.38998	20539.9625
1062.07627	20584.9625
1065.76003	20695.8625
1069.44126	20753.2625
1073.11995	20855.4625
1076.79611	20994.8625
1080.46974	21054.4625
1084.14085	21074.5625
1087.80943	21054.0625
1091.47549	21060.8625
1095.13903	21114.1625
1098.80005	21129.6625
1102.45857	21134.0625
1106.11456	21098.2625
1109.76805	21022.7625
1113.41903	20969.3625
1117.06751	20954.6625
1120.71348	21041.4625
1124.35696	21044.6625
1127.99793	21113.8625
1131.63641	21086.8625
1135.2724	21046.5625
1138.90589	21007.0625
1142.5369	20968.6625
1146.16542	20935.8625
1149.79145	20902.3625
1153.415	20857.7625
1157.03607	20824.8625
1160.65467	20806.7625
1164.27079	20865.6625
1167.88443	21003.0625
1171.49561	21183.0625
1175.10432	21402.4625
1178.71056	21724.0625
1182.31434	22039.1625
1185.91565	22277.3625
1189.51451	22409.5625
1193.11091	22435.9625
1196.70485	22419.4625
1200.29634	22309.0625
1203.88538	22199.6625
1207.47197	21980.5625
1211.05612	21837.1625
1214.63782	21724.2625
1218.21708	21613.6625
1221.79391	21485.5625
1225.36829	21442.0625
1228.94024	21409.2625
1232.50976	21437.7625
1236.07685	21449.7625
1239.6415	21522.3625
1243.20374	21582.3625
1246.76355	21607.7625
1250.32093	21659.6625
1253.8759	21728.7625
1257.42845	21862.6625
1260.97859	21992.9625
1264.52631	22115.2625
1268.07163	22178.3625
1271.61453	22263.1625
1275.15503	22271.8625
1278.69312	22300.7625
1282.22882	22287.9625
1285.76211	22267.2625
1289.29301	22285.6625
1292.82151	22334.5625
1296.34761	22407.3625
1299.87133	22616.3625
1303.39266	22833.8625
1306.9116	23056.3625
1310.42815	23309.6625
1313.94233	23506.5625
1317.45412	23459.2625
1320.96354	23383.8625
1324.47058	23258.7625
1327.97525	23049.4625
1331.47754	22857.2625
1334.97747	22852.1625
1338.47502	22884.1625
1341.97022	23099.3625
1345.46305	23345.5625
1348.95352	23723.0625
1352.44163	23953.5625
1355.92738	24090.3625
1359.41078	24249.4625
1362.89183	24229.4625
1366.37053	23901.7625
1369.84688	23304.0625
1373.32088	22667.0625
1376.79254	22198.1625
1380.26186	21864.5625
1383.72883	21659.9625
1387.19347	21457.4625
1390.65578	21300.7625
1394.11575	21146.5625
1397.57339	20994.0625
1401.0287	20876.5625
1404.48168	20827.0625
1407.93234	20837.0625
1411.38068	20864.0625
1414.82669	20860.8625
1418.27039	20788.7625
1421.71177	20733.2625
1425.15083	20718.0625
1428.58758	20644.5625
1432.02203	20619.6625
1435.45416	20593.7625
1438.88399	20567.8625
1442.31151	20535.6625
1445.73673	20497.3625
1449.15965	20595.0625
1452.58027	20568.4625
1455.9986	20582.6625
1459.41463	20608.1625
1462.82837	20698.4625
1466.23982	20802.8625
1469.64898	20958.1625
1473.05586	21083.4625
1476.46045	21122.3625
1479.86276	21214.4625
1483.26279	21267.8625
1486.66054	21349.8625
1490.05602	21429.0625
1493.44922	21559.2625
1496.84016	21782.3625
1500.22882	22154.6625
1503.61521	22525.7625
1506.99934	22869.3625
1510.38121	23027.2625
1513.76081	22969.4625
1517.13816	22685.3625
1520.51324	22341.5625
1523.88607	22020.9625
1527.25665	21843.5625
1530.62498	21770.1625
1533.99105	21718.5625
1537.35488	21684.9625
1540.71647	21698.0625
1544.07581	21722.7625
1547.4329	21719.8625
1550.78776	21692.6625
1554.14038	21693.7625
1557.49077	21636.5625
1560.83892	21670.5625
1564.18484	21669.9625
1567.52853	21729.6625
1570.86999	21781.6625
1574.20922	21821.6625
1577.54624	21803.8625
1580.88103	21709.5625
1584.2136	21578.5625
1587.54395	21488.5625
1590.87208	21553.5625
1594.19801	21700.0625
1597.52172	21897.0625
1600.84321	22027.5625
1604.16251	22010.1625
1607.47959	21938.2625
1610.79447	21692.8625
1614.10715	21403.1625
1617.41763	21081.3625
1620.7259	20874.5625
1624.03199	20709.7625
1627.33587	20608.1625
1630.63757	20588.4625
1633.93707	20622.3625
1637.23439	20843.2625
1640.52951	21069.7625
1643.82246	21426.5625
1647.11321	21733.4625
1650.40179	21871.9625
1653.68819	21700.7625
1656.97241	21277.2625
1660.25446	20836.8625
1663.53433	20484.1625
1666.81203	20248.6625
1670.08756	20087.9625
1673.36092	19951.8625
1676.63211	19856.2625
1679.90115	19792.1625
1683.16801	19725.9625
1686.43272	19683.3625
1689.69527	19587.7625
1692.95567	19563.8625
1696.2139	19557.9625
1699.46999	19548.5625
1702.72392	19519.0625
1705.97571	19518.3625
1709.22535	19537.9625
1712.47284	19551.6625
1715.71819	19511.1625
1718.96139	19500.9625
1722.20246	19517.7625
1725.44139	19444.1625
1728.67818	19419.8625
1731.91284	19410.1625
1735.14537	19355.8625
1738.37576	19316.6625
1741.60403	19260.0625
1744.83017	19224.5625
1748.05418	19217.7625
1751.27607	19197.2625
1754.49584	19198.0625
1757.71349	19151.9625
1760.92903	19147.6625
1764.14244	19173.8625
1767.35375	19117.7625
1770.56294	19124.7625
1773.77002	19138.1625
1776.97499	19117.5625
1780.17785	19077.0625
1783.37861	19090.3625
1786.57727	19044.7625
1789.77382	19053.7625
1792.96828	19054.4625
1796.16064	18960.9625
1799.3509	19018.1625
1802.53907	18987.7625
1805.72514	18923.2625
1808.90913	18870.0625
1812.09102	18830.2625
1815.27083	18822.8625
1818.44856	18839.2625
1821.6242	18807.5625
1824.79776	18744.2625
1827.96924	18730.9625
1831.13864	18734.7625
1834.30597	18729.6625
1837.47122	18652.2625
1840.6344	18645.5625
1843.7955	18660.7625
1846.95454	18640.9625
1850.11151	18611.6625
1853.26642	18621.2625
1856.41926	18623.9625
1859.57004	18595.0625
1862.71876	18574.1625
1865.86542	18583.9625
1869.01003	18578.6625
1872.15258	18568.5625
1875.29308	18532.8625
1878.43152	18534.3625
1881.56792	18472.1625
1884.70227	18461.6625
1887.83457	18416.5625
1890.96482	18391.7625
1894.09304	18364.6625
1897.21921	18340.0625
1900.34335	18344.9625
1903.46544	18309.4625
1906.58551	18314.1625
1909.70353	18302.4625
1912.81953	18274.9625
1915.93349	18258.9625
1919.04543	18221.6625
1922.15534	18202.7625
1925.26322	18199.7625
1928.36908	18159.9625
1931.47292	18118.6625
1934.57473	18077.7625
1937.67453	18063.6625
1940.77232	18088.7625
1943.86808	17979.2625
1946.96184	17927.7625
1950.05358	17890.4625
1953.14331	17823.0625
1956.23103	17812.3625
1959.31675	17720.4625
1962.40046	17696.1625
1965.48217	17640.7625
1968.56188	17632.6625
1971.63959	17532.3625
1974.7153	17455.6625
1977.78901	17414.9625
1980.86073	17387.2625
1983.93046	17357.4625
1986.99819	17281.6625
1990.06394	17254.2625
1993.1277	17225.7625
1996.18947	17138.1625
1999.24925	17091.3625
2002.30706	17038.0625
2005.36288	17013.6625
2008.41672	16968.4625
2011.46859	16880.7625
2014.51848	16838.0625
2017.56639	16841.1625
2020.61233	16774.7625
2023.6563	16744.8625
2026.6983	16691.5625
2029.73833	16651.0625
2032.7764	16607.0625
2035.8125	16549.1625
2038.84664	16543.7625
2041.87881	16513.9625
2044.90903	16486.2625
2047.93729	16473.9625
2050.96359	16442.0625
2053.98794	16415.5625
2057.01034	16403.3625
2060.03078	16396.2625
2063.04927	16391.1625
2066.06582	16358.7625
2069.08042	16348.3625
2072.09307	16312.3625
2075.10378	16350.2625
2078.11255	16323.9625
2081.11938	16330.3625
2084.12426	16325.8625
2087.12722	16338.2625
2090.12824	16278.7625
2093.12732	16296.7625
2096.12447	16303.4625
2099.11969	16294.8625
2102.11299	16291.8625
2105.10435	16297.4625
2108.09379	16302.9625
2111.08131	16294.1625
2114.0669	16294.8625
2117.05057	16329.4625
2120.03233	16345.0625
2123.01216	16374.4625
2125.99008	16406.0625
2128.96609	16409.5625
2131.94018	16422.8625
2134.91236	16419.2625
2137.88263	16450.2625
2140.851	16435.7625
2143.81746	16479.6625
2146.78201	16438.0625
2149.74466	16464.3625
2152.7054	16474.9625
2155.66425	16471.1625
2158.6212	16476.5625
2161.57625	16475.1625
2164.52941	16444.8625
2167.48067	16450.6625
2170.43004	16392.8625
2173.37752	16391.5625
2176.32311	16422.6625
2179.26681	16413.8625
2182.20863	16372.8625
2185.14856	16376.5625
2188.08661	16410.2625
2191.02278	16385.5625
2193.95707	16378.7625
2196.88948	16348.2625
2199.82001	16374.6625
2202.74867	16367.9625
2205.67545	16335.7625
2208.60037	16319.7625
2211.52341	16299.3625
2214.44458	16244.9625
2217.36388	16212.8625
2220.28132	16183.5625
2223.1969	16101.8625
2226.11061	16097.0625
2229.02246	16061.5625
2231.93245	16038.1625
2234.84058	16014.1625
2237.74686	15955.7625
2240.65128	15994.4625
2243.55385	15961.1625
2246.45456	15934.4625
2249.35343	15900.6625
2252.25044	15878.9625
2255.14561	15879.9625
2258.03893	15826.9625
2260.93041	15817.1625
2263.82004	15755.7625
2266.70783	15751.8625
2269.59378	15689.3625
2272.4779	15689.1625
2275.36017	15664.5625
2278.24061	15610.7625
2281.11922	15573.1625
2283.996	15533.4625
2286.87094	15499.3625
2289.74405	15472.9625
2292.61534	15492.3625
2295.4848	15468.5625
2298.35243	15436.2625
2301.21824	15447.0625
2304.08223	15444.9625
2306.94439	15399.3625
2309.80474	15373.1625
2312.66327	15386.3625
2315.51999	15344.3625
2318.37489	15329.5625
2321.22797	15297.6625
2324.07925	15273.7625
2326.92871	15260.7625
2329.77637	15215.7625
2332.62222	15210.9625
2335.46626	15160.3625
2338.3085	15149.4625
2341.14893	15104.7625
2343.98756	15104.8625
2346.8244	15083.7625
2349.65943	15072.7625
2352.49267	15032.0625
2355.32411	14994.5625
2358.15376	14963.9625
2360.98161	14952.9625
2363.80768	14943.0625
2366.63195	14942.7625
2369.45444	14933.7625
2372.27514	14945.0625
2375.09405	14911.2625
2377.91118	14893.3625
2380.72652	14844.9625
2383.54009	14849.9625
2386.35187	14797.5625
2389.16188	14781.3625
2391.97011	14752.2625
2394.77657	14691.6625
2397.58125	14710.2625
2400.38416	14660.4625
2403.18529	14615.9625
2405.98466	14597.1625
2408.78226	14574.3625
2411.57809	14584.6625
2414.37216	14557.1625
2417.16446	14542.1625
2419.955	14516.1625
2422.74378	14485.5625
2425.5308	14477.1625
2428.31606	14494.1625
2431.09956	14463.0625
2433.88131	14468.0625
2436.6613	14453.9625
2439.43954	14403.2625
2442.21603	14413.9625
2444.99077	14394.0625
2447.76377	14397.3625
2450.53501	14364.8625
2453.30451	14311.9625
2456.07226	14279.1625
2458.83827	14251.5625
2461.60254	14252.1625
2464.36507	14236.7625
2467.12586	14193.6625
2469.88492	14226.0625
2472.64224	14174.3625
2475.39782	14161.0625
2478.15167	14167.3625
2480.90379	14116.2625
2483.65417	14133.7625
2486.40283	14118.2625
2489.14976	14110.2625
2491.89497	14082.5625
2494.63845	14059.4625
2497.3802	14024.1625
2500.12024	14038.0625
2502.85855	14034.2625
2505.59514	13949.9625
2508.33002	13963.0625
2511.06318	13963.1625
2513.79462	13931.6625
2516.52435	13928.3625
2519.25237	13923.3625
2521.97867	13868.3625
2524.70327	13844.6625
2527.42616	13848.6625
2530.14734	13834.1625
2532.86681	13814.8625
2535.58458	13765.6625
2538.30065	13746.6625
2541.01501	13743.2625
2543.72768	13685.0625
2546.43864	13676.7625
2549.14791	13609.5625
2551.85548	13632.6625
2554.56136	13605.8625
2557.26554	13598.1625
2559.96803	13566.8625
2562.66883	13533.6625
2565.36794	13488.2625
2568.06536	13468.5625
2570.7611	13402.1625
2573.45514	13380.6625
2576.14751	13381.5625
2578.83819	13367.5625
2581.52719	13364.5625
2584.21451	13324.1625
2586.90015	13335.4625
2589.58411	13263.3625
2592.2664	13294.3625
2594.94701	13233.0625
2597.62594	13229.1625
2600.30321	13187.5625
2602.9788	13132.5625
2605.65273	13133.0625
2608.32498	13118.1625
2610.99557	13066.6625
2613.66449	13052.6625
2616.33175	13061.8625
2618.99734	13040.5625
2621.66128	12994.9625
2624.32355	12972.1625
2626.98416	12955.0625
2629.64311	12941.5625
2632.30041	12878.7625
2634.95605	12887.3625
2637.61004	12835.2625
2640.26238	12822.6625
2642.91306	12847.4625
2645.56209	12796.8625
2648.20948	12817.3625
2650.85521	12786.2625
2653.4993	12785.0625
2656.14175	12751.8625
2658.78255	12743.9625
2661.42171	12742.6625
2664.05923	12741.5625
2666.6951	12723.7625
2669.32934	12740.4625
2671.96194	12733.8625
2674.59291	12707.0625
2677.22224	12729.6625
2679.84993	12726.9625
2682.476	12687.0625
2685.10043	12708.0625
2687.72324	12663.1625
2690.34441	12677.6625
2692.96396	12668.4625
2695.58188	12647.9625
2698.19818	12628.0625
2700.81285	12613.8625
2703.4259	12611.4625
2706.03733	12633.3625
2708.64714	12603.1625
2711.25533	12621.6625
2713.86191	12630.6625
2716.46687	12649.9625
2719.07021	12609.0625
2721.67194	12627.4625
2724.27206	12604.9625
2726.87057	12586.1625
2729.46747	12598.5625
2732.06276	12582.6625
2734.65644	12579.1625
2737.24852	12573.9625
2739.83899	12542.3625
2742.42786	12570.0625
2745.01513	12530.7625
2747.60079	12478.5625
2750.18486	12453.2625
2752.76733	12449.8625
2755.3482	12424.3625
2757.92747	12427.6625
2760.50515	12386.5625
2763.08123	12408.2625
2765.65573	12378.0625
2768.22863	12356.0625
2770.79994	12323.4625
2773.36967	12314.7625
2775.9378	12251.2625
2778.50435	12242.0625
2781.06932	12208.7625
2783.6327	12236.1625
2786.1945	12197.2625
2788.75471	12187.1625
2791.31335	12137.8625
2793.87041	12144.1625
2796.42589	12070.8625
2798.97979	12068.8625
2801.53212	12058.0625
2804.08288	12047.3625
2806.63206	11982.9625
2809.17967	11948.5625
2811.72571	11916.1625
2814.27018	11869.5625
2816.81308	11857.0625
2819.35442	11820.6625
2821.89419	11780.7625
2824.43239	11789.2625
2826.96904	11764.8625
2829.50412	11701.5625
2832.03763	11693.9625
2834.56959	11689.4625
2837.1	11694.2625
2839.62884	11685.5625
2842.15613	11652.3625
2844.68186	11655.1625
2847.20604	11621.1625
2849.72867	11611.4625
2852.24974	11562.3625
2854.76927	11562.5625
2857.28724	11529.9625
2859.80367	11537.6625
2862.31855	11523.9625
2864.83189	11486.0625
2867.34368	11455.9625
2869.85393	11423.5625
2872.36264	11415.0625
2874.8698	11400.2625
2877.37543	11369.6625
2879.87952	11389.2625
2882.38207	11377.0625
2884.88308	11373.6625
2887.38256	11369.9625
2889.88051	11375.5625
2892.37692	11377.8625
2894.8718	11373.0625
2897.36515	11353.1625
2899.85698	11326.2625
2902.34727	11386.9625
2904.83604	11366.7625
2907.32328	11396.0625
2909.809	11382.7625
2912.29319	11357.3625
2914.77587	11377.7625
2917.25702	11336.1625
2919.73665	11337.6625
2922.21476	11312.5625
2924.69136	11289.6625
2927.16644	11298.0625
2929.64	11300.0625
2932.11205	11277.4625
2934.58258	11232.9625
2937.05161	11257.1625
2939.51912	11267.4625
2941.98513	11261.9625
2944.44962	11246.8625
2946.91261	11227.9625
2949.37409	11229.2625
2951.83407	11187.6625
2954.29254	11224.3625
2956.74951	11209.1625
2959.20498	11194.7625
2961.65895	11173.2625
2964.11142	11197.0625
2966.56239	11186.1625
2969.01186	11186.8625
2971.45984	11171.0625
2973.90632	11193.5625
2976.35131	11143.0625
2978.7948	11142.0625
2981.23681	11134.4625
2983.67732	11108.0625
2986.11635	11093.0625
2988.55388	11047.9625
2990.98993	11013.9625
2993.4245	10994.2625
2995.85758	10999.7625
2998.28917	10971.6625
3000.71928	10952.3625
3003.14791	10906.9625
3005.57506	10891.9625
3008.00073	10874.1625
3010.42493	10864.2625
3012.84764	10869.0625
3015.26888	10853.7625
3017.68865	10830.7625
3020.10694	10825.9625
3022.52376	10787.5625
3024.9391	10762.3625
3027.35298	10760.8625
3029.76539	10761.0625
3032.17632	10747.3625
3034.5858	10712.7625
3036.9938	10708.9625
3039.40034	10691.2625
3041.80542	10701.9625
3044.20903	10663.2625
3046.61118	10698.7625
3049.01187	10646.3625
3051.4111	10642.0625
3053.80888	10590.3625
3056.20519	10588.9625
3058.60005	10551.7625
3060.99345	10523.1625
3063.3854	10505.8625
3065.7759	10512.4625
3068.16494	10473.0625
3070.55254	10434.4625
3072.93868	10447.5625
3075.32338	10410.7625
3077.70662	10378.0625
3080.08842	10348.1625
3082.46878	10354.5625
3084.84769	10322.0625
3087.22515	10331.5625
3089.60118	10347.7625
3091.97576	10332.3625
3094.3489	10355.0625
3096.72061	10324.1625
3099.09087	10347.3625
3101.4597	10339.7625
3103.82709	10357.8625
3106.19305	10350.6625
3108.55757	10350.5625
3110.92066	10300.7625
3113.28232	10303.4625
3115.64255	10295.4625
3118.00134	10250.4625
3120.35871	10267.9625
3122.71466	10231.6625
3125.06917	10224.7625
3127.42226	10201.3625
3129.77393	10200.4625
3132.12417	10187.7625
3134.47299	10175.2625
3136.82039	10145.1625
3139.16636	10149.2625
3141.51092	10157.1625
3143.85406	10131.9625
3146.19579	10154.7625
3148.53609	10160.3625
3150.87499	10173.6625
3153.21246	10181.3625
3155.54853	10208.9625
3157.88318	10194.0625
3160.21642	10199.3625
3162.54826	10217.4625
3164.87868	10212.3625
3167.2077	10185.2625
3169.5353	10197.3625
3171.86151	10185.0625
3174.18631	10212.0625
3176.5097	10183.1625
3178.83169	10168.9625
3181.15228	10157.7625
3183.47147	10109.9625
3185.78926	10095.2625
3188.10565	10073.6625
3190.42065	10072.7625
3192.73424	10079.4625
3195.04645	10046.5625
3197.35725	10053.9625
3199.66667	10048.7625
3201.97469	10061.3625
3204.28132	10048.7625
3206.58656	10058.3625
3208.8904	10033.0625
3211.19287	10080.6625
3213.49394	10057.5625
3215.79363	10055.7625
3218.09193	10046.2625
3220.38884	10043.9625
3222.68438	10051.3625
3224.97853	10042.7625
3227.2713	10076.4625
3229.56269	10042.3625
3231.8527	10025.3625
3234.14133	9975.6625
3236.42858	9953.7625
3238.71446	9961.4625
3240.99896	9923.1625
3243.28209	9906.1625
3245.56384	9894.9625
3247.84423	9869.3625
3250.12324	9881.2625
3252.40088	9870.1625
3254.67715	9871.9625
3256.95205	9848.4625
3259.22558	9885.8625
3261.49775	9834.5625
3263.76855	9859.0625
3266.03799	9840.6625
3268.30606	9828.0625
3270.57277	9819.8625
3272.83812	9779.4625
3275.10211	9769.7625
3277.36474	9741.7625
3279.62601	9722.2625
3281.88593	9699.7625
3284.14448	9681.9625
3286.40168	9700.0625
3288.65753	9715.0625
3290.91202	9677.2625
3293.16516	9647.1625
3295.41695	9641.6625
3297.66738	9562.7625
3299.91647	9511.2625
3302.16421	9461.3625
3304.4106	9393.7625
3306.65564	9382.9625
3308.89933	9286.8625
3311.14169	9225.8625
3313.38269	9147.8625
3315.62236	9106.5625
3317.86068	9067.9625
3320.09766	8960.7625
3322.3333	8907.0625
3324.5676	8857.1625
3326.80056	8730.8625
3329.03219	8685.1625
3331.26248	3.1625
3333.49143	0.5625
3335.71905	-0.3375
