Data from AgNPs_UA_5uM_CRN_0uM_R6G_10uM_Q_RamanShift__31__11-25-25-328.txt Node

Date: Mon Jul 18 11:25:25 BST 2022
User: TCL
Spectrometer: QEP01345
Trigger mode: 4
Integration Time (sec): 7.000000E0
Scans to average: 10
Electric dark correction enabled: true
Nonlinearity correction enabled: false
Boxcar width: 0
XAxis mode: Raman Shifts
Number of Pixels in Spectrum: 1044
>>>>>Begin Spectral Data<<<<<
46.04893	-1.275
50.45542	-0.775
54.85868	-2.275
59.25871	-0.775
63.6555	96.325
68.04907	99.825
72.43941	106.325
76.82654	113.325
81.21044	116.025
85.59113	115.725
89.96862	120.525
94.34289	125.025
98.71396	135.625
103.08183	138.125
107.4465	136.525
111.80798	136.725
116.16626	144.525
120.52136	148.925
124.87327	155.325
129.222	163.925
133.56755	174.225
137.90993	185.125
142.24913	203.325
146.58517	229.125
150.91804	266.125
155.24774	318.525
159.57429	397.325
163.89768	499.425
168.21792	668.325
172.53501	908.125
176.84895	1252.825
181.15975	1758.425
185.46741	2453.325
189.77193	3383.925
194.07331	4501.225
198.37157	5789.825
202.6667	7113.825
206.9587	8449.625
211.24758	9771.525
215.53334	11142.425
219.81599	12637.725
224.09553	14346.425
228.37195	16280.225
232.64527	18372.425
236.91549	20498.825
241.18261	22431.425
245.44663	24172.425
249.70755	25600.225
253.96539	26803.325
258.22014	27787.725
262.4718	28680.425
266.72039	29327.225
270.96589	29618.225
275.20832	29547.825
279.44768	29238.625
283.68397	28843.525
287.91719	28583.325
292.14735	28590.525
296.37445	29004.825
300.59849	29859.125
304.81948	30836.425
309.03742	31521.025
313.25231	31409.125
317.46415	30153.425
321.67296	28509.625
325.87872	27159.225
330.08145	26632.925
334.28114	26699.425
338.47781	27192.625
342.67145	27842.625
346.86207	28876.125
351.04966	30285.825
355.23424	31868.125
359.4158	33200.725
363.59435	34031.725
367.76989	34431.325
371.94243	34557.225
376.11196	34566.225
380.27849	34580.825
384.44203	34533.825
388.60257	34364.825
392.76012	34316.625
396.91468	34795.825
401.06626	35688.825
405.21485	36296.125
409.36047	35955.125
413.50311	34640.025
417.64277	33475.225
421.77947	32850.225
425.9132	32712.325
430.04396	32924.125
434.17176	33400.125
438.2966	34356.625
442.41849	35684.425
446.53742	37322.925
450.6534	39010.325
454.76644	40186.825
458.87653	40397.325
462.98368	39672.425
467.08789	38491.925
471.18916	37078.525
475.2875	35634.125
479.38291	34464.925
483.4754	33665.625
487.56496	32938.625
491.6516	32281.325
495.73531	31900.525
499.81612	31816.825
503.89401	32061.025
507.96899	32350.425
512.04106	32681.325
516.11023	33094.025
520.1765	33503.325
524.23987	33580.925
528.30034	33359.325
532.35792	32887.625
536.41261	32430.025
540.46441	31833.525
544.51333	31691.225
548.55936	32014.525
552.60252	32597.125
556.64279	33055.225
560.6802	33154.625
564.71473	33494.325
568.7464	34496.725
572.7752	35113.025
576.80114	34575.725
580.82422	34215.025
584.84444	34606.325
588.86181	35540.425
592.87633	36582.225
596.888	37439.825
600.89682	38983.225
604.9028	43575.025
608.90594	53438.025
612.90624	62684.725
616.90371	56703.325
620.89834	42244.525
624.89015	36414.925
628.87913	35363.725
632.86528	34957.425
636.84862	34537.825
640.82913	33621.925
644.80683	32268.525
648.78172	31533.325
652.75379	31887.925
656.72306	33332.425
660.68952	34682.725
664.65319	34231.725
668.61405	33014.025
672.57211	32510.425
676.52738	32342.925
680.47986	32175.925
684.42955	31989.525
688.37646	31939.825
692.32058	32096.225
696.26192	32404.425
700.20048	32800.125
704.13626	32899.825
708.06928	32559.325
711.99952	32240.425
715.927	32222.325
719.85171	32331.025
723.77365	32102.025
727.69284	31720.225
731.60928	31601.825
735.52295	31734.025
739.43388	32079.925
743.34206	32476.425
747.24749	32871.725
751.15017	33262.625
755.05012	34034.225
758.94733	35624.025
762.8418	39022.125
766.73354	44103.925
770.62254	49174.525
774.50882	51262.525
778.39237	48616.625
782.27321	42655.925
786.15132	37375.125
790.02671	34416.925
793.89938	33177.725
797.76935	32679.325
801.6366	32472.525
805.50115	32344.125
809.36299	32093.825
813.22213	31921.225
817.07857	31803.425
820.93231	31830.025
824.78336	31960.225
828.63172	32179.525
832.47738	32261.525
836.32036	32262.925
840.16066	32280.025
843.99827	32300.125
847.8332	32105.125
851.66546	31896.025
855.49504	31878.925
859.32195	31841.225
863.1462	31607.225
866.96777	31466.025
870.78668	31373.425
874.60293	31541.725
878.41652	31641.925
882.22745	31897.325
886.03573	31998.125
889.84136	31851.025
893.64433	31697.425
897.44466	31576.125
901.24235	31621.625
905.0374	31562.825
908.8298	31468.025
912.61957	31528.925
916.40671	31821.025
920.19121	32244.725
923.97308	32804.525
927.75233	33342.325
931.52895	33449.925
935.30295	32992.525
939.07433	32102.725
942.84309	31496.825
946.60924	31190.825
950.37278	30928.125
954.13371	30625.825
957.89203	30428.125
961.64774	30331.025
965.40086	30291.725
969.15137	30136.125
972.89929	30125.025
976.64461	30136.825
980.38733	30335.925
984.12747	30553.725
987.86502	30851.925
991.59999	31352.925
995.33237	32302.825
999.06217	34067.825
1002.78939	35873.225
1006.51404	36880.525
1010.23611	37490.825
1013.95561	38210.125
1017.67255	38679.625
1021.38692	38253.825
1025.09872	37693.825
1028.80796	37879.125
1032.51465	38987.825
1036.21877	39995.825
1039.92035	39928.525
1043.61937	39010.825
1047.31584	37614.025
1051.00976	36265.025
1054.70114	35576.625
1058.38998	35509.825
1062.07627	35648.025
1065.76003	35785.625
1069.44126	35820.125
1073.11995	36125.125
1076.79611	36345.125
1080.46974	36775.325
1084.14085	37469.025
1087.80943	38229.525
1091.47549	38344.425
1095.13903	37566.725
1098.80005	36355.925
1102.45857	35590.125
1106.11456	35395.025
1109.76805	35702.125
1113.41903	36481.525
1117.06751	37532.625
1120.71348	38761.425
1124.35696	40000.625
1127.99793	40930.925
1131.63641	40592.625
1135.2724	39252.225
1138.90589	38031.925
1142.5369	37205.825
1146.16542	36629.125
1149.79145	36402.625
1153.415	36627.025
1157.03607	37065.025
1160.65467	37879.725
1164.27079	39236.425
1167.88443	41343.125
1171.49561	44736.025
1175.10432	49882.525
1178.71056	56715.325
1182.31434	62725.525
1185.91565	65911.525
1189.51451	65914.225
1193.11091	62286.725
1196.70485	57035.425
1200.29634	52555.725
1203.88538	49282.825
1207.47197	46501.725
1211.05612	44494.025
1214.63782	43772.825
1218.21708	43958.425
1221.79391	44522.525
1225.36829	44972.325
1228.94024	45056.725
1232.50976	44978.325
1236.07685	45081.525
1239.6415	45294.925
1243.20374	45522.325
1246.76355	45700.425
1250.32093	46283.125
1253.8759	47632.025
1257.42845	49419.225
1260.97859	51049.525
1264.52631	52343.525
1268.07163	53537.825
1271.61453	54770.225
1275.15503	56056.325
1278.69312	57518.625
1282.22882	58906.925
1285.76211	60561.725
1289.29301	62295.925
1292.82151	64040.325
1296.34761	65794.225
1299.87133	68550.825
1303.39266	72962.825
1306.9116	79581.525
1310.42815	86779.625
1313.94233	91043.825
1317.45412	90007.625
1320.96354	86167.525
1324.47058	82334.125
1327.97525	79985.025
1331.47754	79687.225
1334.97747	80713.725
1338.47502	81898.625
1341.97022	82884.025
1345.46305	83899.925
1348.95352	85375.525
1352.44163	87894.225
1355.92738	92529.325
1359.41078	100315.325
1362.89183	106866.525
1366.37053	102832.725
1369.84688	90063.525
1373.32088	77013.725
1376.79254	68617.025
1380.26186	64615.125
1383.72883	63033.325
1387.19347	61657.125
1390.65578	59520.125
1394.11575	57555.425
1397.57339	56958.825
1401.0287	57891.525
1404.48168	60045.825
1407.93234	62869.625
1411.38068	65295.125
1414.82669	65772.025
1418.27039	63947.625
1421.71177	61374.725
1425.15083	59834.325
1428.58758	59694.725
1432.02203	60733.225
1435.45416	61875.525
1438.88399	62278.025
1442.31151	62364.725
1445.73673	62340.425
1449.15965	62076.425
1452.58027	61142.125
1455.9986	59790.025
1459.41463	59172.525
1462.82837	59544.625
1466.23982	60969.525
1469.64898	62505.225
1473.05586	63808.225
1476.46045	65037.625
1479.86276	66237.425
1483.26279	67333.625
1486.66054	68431.825
1490.05602	70017.725
1493.44922	72055.625
1496.84016	74588.825
1500.22882	78265.425
1503.61521	83219.225
1506.99934	88872.225
1510.38121	93120.825
1513.76081	93573.925
1517.13816	88829.725
1520.51324	81276.425
1523.88607	74606.425
1527.25665	70368.525
1530.62498	68232.025
1533.99105	66907.925
1537.35488	65976.425
1540.71647	65468.625
1544.07581	64906.525
1547.4329	63843.725
1550.78776	62406.525
1554.14038	60952.725
1557.49077	59992.225
1560.83892	59694.025
1564.18484	59817.625
1567.52853	60304.725
1570.86999	60819.625
1574.20922	61257.925
1577.54624	60805.025
1580.88103	59042.525
1584.2136	57305.625
1587.54395	57561.825
1590.87208	60880.225
1594.19801	67118.725
1597.52172	74847.425
1600.84321	79803.225
1604.16251	78853.325
1607.47959	72771.225
1610.79447	64659.225
1614.10715	57277.325
1617.41763	51918.025
1620.7259	48824.425
1624.03199	47407.325
1627.33587	47726.025
1630.63757	49491.725
1633.93707	52907.125
1637.23439	57734.025
1640.52951	63827.125
1643.82246	70547.025
1647.11321	75616.725
1650.40179	76494.725
1653.68819	71063.725
1656.97241	61348.925
1660.25446	51959.925
1663.53433	45311.925
1666.81203	41113.425
1670.08756	38534.925
1673.36092	36841.225
1676.63211	35725.225
1679.90115	34949.625
1683.16801	34264.825
1686.43272	33881.325
1689.69527	33530.525
1692.95567	33282.625
1696.2139	33121.225
1699.46999	33027.125
1702.72392	32971.025
1705.97571	32947.225
1709.22535	32879.725
1712.47284	32895.425
1715.71819	32934.325
1718.96139	32871.625
1722.20246	32751.225
1725.44139	32519.625
1728.67818	32298.325
1731.91284	32124.825
1735.14537	31925.425
1738.37576	31789.425
1741.60403	31688.425
1744.83017	31584.925
1748.05418	31536.825
1751.27607	31459.925
1754.49584	31360.325
1757.71349	31380.825
1760.92903	31296.325
1764.14244	31253.325
1767.35375	31214.125
1770.56294	31177.625
1773.77002	31200.825
1776.97499	31140.225
1780.17785	31113.925
1783.37861	31031.925
1786.57727	31036.025
1789.77382	31064.225
1792.96828	31002.825
1796.16064	30987.125
1799.3509	30995.525
1802.53907	30925.725
1805.72514	30890.325
1808.90913	30843.625
1812.09102	30772.725
1815.27083	30688.325
1818.44856	30628.425
1821.6242	30603.825
1824.79776	30545.025
1827.96924	30473.225
1831.13864	30421.325
1834.30597	30407.525
1837.47122	30401.125
1840.6344	30380.725
1843.7955	30428.925
1846.95454	30437.025
1850.11151	30347.725
1853.26642	30354.725
1856.41926	30383.325
1859.57004	30397.325
1862.71876	30441.525
1865.86542	30494.225
1869.01003	30572.425
1872.15258	30586.125
1875.29308	30509.925
1878.43152	30520.125
1881.56792	30517.625
1884.70227	30479.425
1887.83457	30484.325
1890.96482	30473.525
1894.09304	30518.525
1897.21921	30499.025
1900.34335	30498.025
1903.46544	30450.525
1906.58551	30487.725
1909.70353	30427.525
1912.81953	30422.625
1915.93349	30401.125
1919.04543	30357.125
1922.15534	30410.225
1925.26322	30360.725
1928.36908	30330.925
1931.47292	30296.625
1934.57473	30203.525
1937.67453	30179.525
1940.77232	30049.925
1943.86808	29983.425
1946.96184	29901.025
1950.05358	29814.525
1953.14331	29724.125
1956.23103	29585.625
1959.31675	29494.825
1962.40046	29434.325
1965.48217	29345.925
1968.56188	29265.525
1971.63959	29202.025
1974.7153	29072.125
1977.78901	29004.125
1980.86073	28924.625
1983.93046	28839.725
1986.99819	28716.625
1990.06394	28664.725
1993.1277	28563.225
1996.18947	28481.825
1999.24925	28456.525
2002.30706	28360.525
2005.36288	28342.425
2008.41672	28319.025
2011.46859	28162.025
2014.51848	28112.725
2017.56639	28096.425
2020.61233	28038.925
2023.6563	27942.625
2026.6983	27900.425
2029.73833	27765.425
2032.7764	27673.625
2035.8125	27703.725
2038.84664	27632.025
2041.87881	27626.325
2044.90903	27529.225
2047.93729	27536.925
2050.96359	27556.025
2053.98794	27538.025
2057.01034	27473.125
2060.03078	27484.525
2063.04927	27372.125
2066.06582	27343.425
2069.08042	27301.425
2072.09307	27300.325
2075.10378	27286.625
2078.11255	27238.025
2081.11938	27235.725
2084.12426	27197.225
2087.12722	27152.325
2090.12824	27086.325
2093.12732	27126.125
2096.12447	27135.925
2099.11969	27153.225
2102.11299	27143.025
2105.10435	27152.925
2108.09379	27126.525
2111.08131	27132.025
2114.0669	27132.625
2117.05057	27149.025
2120.03233	27170.925
2123.01216	27141.125
2125.99008	27151.325
2128.96609	27221.325
2131.94018	27194.725
2134.91236	27215.625
2137.88263	27207.225
2140.851	27209.425
2143.81746	27212.825
2146.78201	27200.525
2149.74466	27211.525
2152.7054	27231.825
2155.66425	27249.225
2158.6212	27203.725
2161.57625	27136.925
2164.52941	27112.025
2167.48067	27107.525
2170.43004	27154.025
2173.37752	27119.125
2176.32311	27130.225
2179.26681	27108.725
2182.20863	27178.125
2185.14856	27174.125
2188.08661	27193.825
2191.02278	27189.925
2193.95707	27189.725
2196.88948	27175.525
2199.82001	27213.825
2202.74867	27207.425
2205.67545	27169.325
2208.60037	27156.725
2211.52341	27110.025
2214.44458	27084.125
2217.36388	27052.125
2220.28132	26993.225
2223.1969	26933.825
2226.11061	26919.425
2229.02246	26833.825
2231.93245	26808.225
2234.84058	26765.225
2237.74686	26709.925
2240.65128	26624.125
2243.55385	26560.025
2246.45456	26613.025
2249.35343	26590.725
2252.25044	26542.125
2255.14561	26471.125
2258.03893	26519.625
2260.93041	26468.325
2263.82004	26414.425
2266.70783	26310.625
2269.59378	26266.025
2272.4779	26236.825
2275.36017	26139.125
2278.24061	26093.925
2281.11922	26016.725
2283.996	25982.225
2286.87094	25909.725
2289.74405	25868.525
2292.61534	25855.125
2295.4848	25804.025
2298.35243	25857.125
2301.21824	25862.225
2304.08223	25826.025
2306.94439	25873.225
2309.80474	25873.425
2312.66327	25964.225
2315.51999	25933.525
2318.37489	25971.525
2321.22797	26011.225
2324.07925	25893.225
2326.92871	25875.825
2329.77637	25885.725
2332.62222	25876.325
2335.46626	25875.925
2338.3085	25940.325
2341.14893	25957.625
2343.98756	25985.925
2346.8244	26039.525
2349.65943	26110.525
2352.49267	26148.425
2355.32411	26116.325
2358.15376	26077.425
2360.98161	26058.825
2363.80768	26079.325
2366.63195	26039.825
2369.45444	25925.725
2372.27514	25882.125
2375.09405	25820.225
2377.91118	25746.225
2380.72652	25651.025
2383.54009	25541.825
2386.35187	25549.025
2389.16188	25473.625
2391.97011	25404.325
2394.77657	25383.225
2397.58125	25336.925
2400.38416	25258.425
2403.18529	25184.225
2405.98466	25160.925
2408.78226	25138.925
2411.57809	25055.925
2414.37216	25007.525
2417.16446	24990.025
2419.955	24887.625
2422.74378	24912.725
2425.5308	24917.225
2428.31606	24878.825
2431.09956	24871.325
2433.88131	24862.425
2436.6613	24863.225
2439.43954	24854.025
2442.21603	24820.525
2444.99077	24861.025
2447.76377	24846.225
2450.53501	24794.725
2453.30451	24789.825
2456.07226	24776.625
2458.83827	24713.125
2461.60254	24762.025
2464.36507	24736.125
2467.12586	24691.325
2469.88492	24713.125
2472.64224	24692.925
2475.39782	24699.525
2478.15167	24749.125
2480.90379	24813.525
2483.65417	24937.725
2486.40283	24998.425
2489.14976	25031.725
2491.89497	25011.825
2494.63845	25084.825
2497.3802	25016.425
2500.12024	25039.425
2502.85855	25046.825
2505.59514	24998.225
2508.33002	25021.325
2511.06318	24935.225
2513.79462	24883.325
2516.52435	24816.225
2519.25237	24773.625
2521.97867	24754.625
2524.70327	24775.425
2527.42616	24739.225
2530.14734	24786.425
2532.86681	24707.525
2535.58458	24737.425
2538.30065	24700.725
2541.01501	24779.025
2543.72768	24768.025
2546.43864	24763.525
2549.14791	24726.625
2551.85548	24708.025
2554.56136	24692.425
2557.26554	24666.825
2559.96803	24619.425
2562.66883	24610.325
2565.36794	24554.825
2568.06536	24521.625
2570.7611	24485.025
2573.45514	24503.025
2576.14751	24472.725
2578.83819	24444.425
2581.52719	24494.925
2584.21451	24479.725
2586.90015	24512.125
2589.58411	24534.225
2592.2664	24510.225
2594.94701	24494.225
2597.62594	24532.825
2600.30321	24531.825
2602.9788	24561.925
2605.65273	24487.525
2608.32498	24477.825
2610.99557	24534.525
2613.66449	24575.325
2616.33175	24591.125
2618.99734	24618.225
2621.66128	24659.525
2624.32355	24658.525
2626.98416	24750.825
2629.64311	24806.325
2632.30041	24844.025
2634.95605	24744.925
2637.61004	24702.825
2640.26238	24693.925
2642.91306	24646.525
2645.56209	24615.525
2648.20948	24602.525
2650.85521	24542.725
2653.4993	24530.825
2656.14175	24529.225
2658.78255	24576.425
2661.42171	24632.125
2664.05923	24738.825
2666.6951	24769.025
2669.32934	24813.725
2671.96194	24791.025
2674.59291	24842.625
2677.22224	24824.625
2679.84993	24802.125
2682.476	24806.225
2685.10043	24802.425
2687.72324	24786.125
2690.34441	24775.625
2692.96396	24772.525
2695.58188	24761.225
2698.19818	24718.625
2700.81285	24747.725
2703.4259	24675.525
2706.03733	24729.125
2708.64714	24719.325
2711.25533	24737.725
2713.86191	24753.925
2716.46687	24849.225
2719.07021	24807.325
2721.67194	24822.625
2724.27206	24785.225
2726.87057	24872.125
2729.46747	24829.125
2732.06276	24894.725
2734.65644	24853.425
2737.24852	24912.225
2739.83899	24869.225
2742.42786	24829.425
2745.01513	24775.025
2747.60079	24761.625
2750.18486	24791.725
2752.76733	24812.425
2755.3482	24819.425
2757.92747	24861.925
2760.50515	24851.225
2763.08123	24820.925
2765.65573	24771.425
2768.22863	24785.825
2770.79994	24792.525
2773.36967	24855.925
2775.9378	24813.225
2778.50435	24826.425
2781.06932	24858.025
2783.6327	24889.525
2786.1945	24885.525
2788.75471	24853.625
2791.31335	24763.525
2793.87041	24763.625
2796.42589	24694.025
2798.97979	24734.125
2801.53212	24687.425
2804.08288	24657.025
2806.63206	24591.025
2809.17967	24616.425
2811.72571	24546.625
2814.27018	24568.225
2816.81308	24498.125
2819.35442	24479.925
2821.89419	24458.925
2824.43239	24474.325
2826.96904	24469.725
2829.50412	24506.925
2832.03763	24523.925
2834.56959	24548.525
2837.1	24502.025
2839.62884	24542.025
2842.15613	24505.925
2844.68186	24478.525
2847.20604	24370.625
2849.72867	24484.525
2852.24974	24433.125
2854.76927	24377.625
2857.28724	24325.325
2859.80367	24373.425
2862.31855	24334.725
2864.83189	24351.925
2867.34368	24312.025
2869.85393	24305.825
2872.36264	24242.725
2874.8698	24234.325
2877.37543	24190.225
2879.87952	24213.025
2882.38207	24171.525
2884.88308	24134.225
2887.38256	24136.025
2889.88051	24089.325
2892.37692	24092.225
2894.8718	24126.725
2897.36515	24178.425
2899.85698	24162.625
2902.34727	24230.725
2904.83604	24190.025
2907.32328	24267.125
2909.809	24362.225
2912.29319	24378.425
2914.77587	24317.725
2917.25702	24331.925
2919.73665	24253.225
2922.21476	24262.925
2924.69136	24231.725
2927.16644	24197.025
2929.64	24185.725
2932.11205	24132.325
2934.58258	24065.925
2937.05161	24063.025
2939.51912	24042.825
2941.98513	24004.125
2944.44962	24000.325
2946.91261	23897.225
2949.37409	23891.825
2951.83407	23861.325
2954.29254	23855.825
2956.74951	23813.025
2959.20498	23766.725
2961.65895	23721.725
2964.11142	23692.425
2966.56239	23657.225
2969.01186	23689.125
2971.45984	23601.125
2973.90632	23565.025
2976.35131	23491.325
2978.7948	23407.025
2981.23681	23355.525
2983.67732	23279.325
2986.11635	23173.925
2988.55388	23154.825
2990.98993	23114.625
2993.4245	22997.925
2995.85758	22948.525
2998.28917	22849.725
3000.71928	22799.425
3003.14791	22704.825
3005.57506	22671.825
3008.00073	22594.025
3010.42493	22490.425
3012.84764	22421.525
3015.26888	22390.525
3017.68865	22354.325
3020.10694	22289.425
3022.52376	22256.325
3024.9391	22157.125
3027.35298	22148.825
3029.76539	22141.325
3032.17632	22122.625
3034.5858	22054.825
3036.9938	22055.825
3039.40034	22020.425
3041.80542	22003.625
3044.20903	21922.925
3046.61118	21918.625
3049.01187	21816.525
3051.4111	21840.525
3053.80888	21765.925
3056.20519	21740.225
3058.60005	21576.925
3060.99345	21549.525
3063.3854	21472.325
3065.7759	21357.825
3068.16494	21269.925
3070.55254	21185.625
3072.93868	21099.325
3075.32338	21007.625
3077.70662	20987.625
3080.08842	20902.225
3082.46878	20828.725
3084.84769	20793.125
3087.22515	20772.925
3089.60118	20737.325
3091.97576	20681.725
3094.3489	20703.125
3096.72061	20646.025
3099.09087	20626.525
3101.4597	20575.025
3103.82709	20524.625
3106.19305	20485.725
3108.55757	20467.725
3110.92066	20394.025
3113.28232	20388.525
3115.64255	20320.325
3118.00134	20285.625
3120.35871	20209.125
3122.71466	20169.825
3125.06917	20080.125
3127.42226	20038.525
3129.77393	20040.525
3132.12417	20012.925
3134.47299	20015.325
3136.82039	19966.225
3139.16636	19926.525
3141.51092	19868.625
3143.85406	19849.525
3146.19579	19818.225
3148.53609	19795.925
3150.87499	19812.425
3153.21246	19816.725
3155.54853	19782.225
3157.88318	19728.725
3160.21642	19791.025
3162.54826	19738.625
3164.87868	19695.225
3167.2077	19701.125
3169.5353	19694.725
3171.86151	19602.025
3174.18631	19581.225
3176.5097	19543.225
3178.83169	19516.625
3181.15228	19509.325
3183.47147	19440.225
3185.78926	19413.825
3188.10565	19372.925
3190.42065	19365.125
3192.73424	19400.225
3195.04645	19359.825
3197.35725	19336.525
3199.66667	19320.825
3201.97469	19297.825
3204.28132	19292.425
3206.58656	19275.925
3208.8904	19245.625
3211.19287	19257.825
3213.49394	19267.625
3215.79363	19247.825
3218.09193	19274.925
3220.38884	19217.525
3222.68438	19250.125
3224.97853	19197.525
3227.2713	19174.825
3229.56269	19170.725
3231.8527	19164.325
3234.14133	19153.825
3236.42858	19118.725
3238.71446	19098.625
3240.99896	19059.525
3243.28209	19002.625
3245.56384	18960.125
3247.84423	18907.925
3250.12324	18883.325
3252.40088	18856.725
3254.67715	18867.725
3256.95205	18856.925
3259.22558	18832.925
3261.49775	18772.025
3263.76855	18794.325
3266.03799	18666.425
3268.30606	18656.125
3270.57277	18604.425
3272.83812	18574.725
3275.10211	18558.125
3277.36474	18498.125
3279.62601	18554.025
3281.88593	18522.025
3284.14448	18559.725
3286.40168	18513.425
3288.65753	18482.925
3290.91202	18464.325
3293.16516	18424.925
3295.41695	18430.325
3297.66738	18298.525
3299.91647	18212.525
3302.16421	18120.725
3304.4106	18049.725
3306.65564	17991.625
3308.89933	17831.225
3311.14169	17724.925
3313.38269	17583.425
3315.62236	17481.725
3317.86068	17371.925
3320.09766	17262.925
3322.3333	17125.025
3324.5676	17080.625
3326.80056	16878.725
3329.03219	16751.825
3331.26248	5.325
3333.49143	0.825
3335.71905	-0.475
