Data from AgNPs_UA_0uM_CRN_0uM_R6G_10uM_Q_RamanShift__11__11-31-18-758.txt Node

Date: Wed Jul 13 11:31:18 BST 2022
User: TCL
Spectrometer: QEP01345
Trigger mode: 4
Integration Time (sec): 7.000000E0
Scans to average: 10
Electric dark correction enabled: true
Nonlinearity correction enabled: false
Boxcar width: 0
XAxis mode: Raman Shifts
Number of Pixels in Spectrum: 1044
>>>>>Begin Spectral Data<<<<<
46.04893	0.0875
50.45542	-0.6125
54.85868	-0.5125
59.25871	-0.4125
63.6555	45.7875
68.04907	50.5875
72.43941	53.0875
76.82654	58.8875
81.21044	63.2875
85.59113	64.3875
89.96862	66.6875
94.34289	67.6875
98.71396	67.6875
103.08183	70.5875
107.4465	75.9875
111.80798	76.3875
116.16626	79.4875
120.52136	78.8875
124.87327	78.3875
129.222	84.3875
133.56755	84.3875
137.90993	91.4875
142.24913	94.0875
146.58517	102.8875
150.91804	117.4875
155.24774	133.1875
159.57429	162.5875
163.89768	201.1875
168.21792	259.2875
172.53501	355.0875
176.84895	487.1875
181.15975	676.1875
185.46741	938.3875
189.77193	1293.8875
194.07331	1744.1875
198.37157	2246.2875
202.6667	2795.3875
206.9587	3341.1875
211.24758	3892.1875
215.53334	4475.3875
219.81599	5100.6875
224.09553	5782.4875
228.37195	6523.4875
232.64527	7262.2875
236.91549	7977.3875
241.18261	8579.8875
245.44663	9066.9875
249.70755	9443.9875
253.96539	9795.4875
258.22014	10088.6875
262.4718	10390.9875
266.72039	10589.7875
270.96589	10600.7875
275.20832	10453.8875
279.44768	10226.9875
283.68397	10011.0875
287.91719	9853.8875
292.14735	9853.8875
296.37445	10101.3875
300.59849	10580.0875
304.81948	11187.3875
309.03742	11750.4875
313.25231	12014.7875
317.46415	11663.7875
321.67296	10828.4875
325.87872	9975.9875
330.08145	9509.4875
334.28114	9426.5875
338.47781	9600.5875
342.67145	9928.3875
346.86207	10441.4875
351.04966	11155.3875
355.23424	11851.0875
359.4158	12191.7875
363.59435	12124.1875
367.76989	11950.9875
371.94243	11685.4875
376.11196	11476.4875
380.27849	11283.7875
384.44203	11133.6875
388.60257	11057.2875
392.76012	11095.4875
396.91468	11320.7875
401.06626	11619.3875
405.21485	11714.8875
409.36047	11343.0875
413.50311	10656.0875
417.64277	10079.2875
421.77947	9741.0875
425.9132	9580.7875
430.04396	9538.6875
434.17176	9534.4875
438.2966	9616.1875
442.41849	9785.5875
446.53742	10010.3875
450.6534	10182.5875
454.76644	10268.1875
458.87653	10251.4875
462.98368	10187.9875
467.08789	10064.7875
471.18916	9865.0875
475.2875	9584.1875
479.38291	9381.9875
483.4754	9211.0875
487.56496	9141.3875
491.6516	9085.4875
495.73531	9078.1875
499.81612	9163.2875
503.89401	9290.7875
507.96899	9448.4875
512.04106	9611.3875
516.11023	9808.3875
520.1765	9938.9875
524.23987	9972.8875
528.30034	9900.2875
532.35792	9799.6875
536.41261	9628.9875
540.46441	9409.6875
544.51333	9300.6875
548.55936	9339.6875
552.60252	9537.6875
556.64279	9791.9875
560.6802	9977.0875
564.71473	10245.6875
568.7464	10756.6875
572.7752	10853.8875
576.80114	10314.6875
580.82422	9882.5875
584.84444	9797.0875
588.86181	9840.2875
592.87633	9906.2875
596.888	10109.9875
600.89682	10628.4875
604.9028	12378.0875
608.90594	16810.2875
612.90624	21814.2875
616.90371	19909.4875
620.89834	13223.6875
624.89015	10267.9875
628.87913	9821.6875
632.86528	10124.6875
636.84862	10329.3875
640.82913	9974.4875
644.80683	9322.7875
648.78172	8980.0875
652.75379	9066.8875
656.72306	9559.5875
660.68952	10050.2875
664.65319	9820.6875
668.61405	9179.9875
672.57211	8960.7875
676.52738	8974.7875
680.47986	8896.3875
684.42955	8785.7875
688.37646	8703.7875
692.32058	8744.0875
696.26192	8868.8875
700.20048	9020.2875
704.13626	9084.1875
708.06928	9015.7875
711.99952	8916.1875
715.927	8902.2875
719.85171	8988.9875
723.77365	9052.7875
727.69284	8947.5875
731.60928	8876.0875
735.52295	8881.6875
739.43388	8908.4875
743.34206	8965.5875
747.24749	8978.2875
751.15017	8979.5875
755.05012	9166.3875
758.94733	9852.6875
762.8418	11554.5875
766.73354	14119.1875
770.62254	16069.6875
774.50882	16292.3875
778.39237	15107.4875
782.27321	13163.9875
786.15132	11125.0875
790.02671	9848.6875
793.89938	9211.6875
797.76935	8941.5875
801.6366	8817.9875
805.50115	8740.1875
809.36299	8649.1875
813.22213	8580.5875
817.07857	8577.2875
820.93231	8580.5875
824.78336	8630.1875
828.63172	8686.8875
832.47738	8655.8875
836.32036	8608.3875
840.16066	8546.0875
843.99827	8484.5875
847.8332	8471.7875
851.66546	8491.8875
855.49504	8487.4875
859.32195	8469.7875
863.1462	8451.1875
866.96777	8446.8875
870.78668	8440.2875
874.60293	8491.6875
878.41652	8546.5875
882.22745	8647.5875
886.03573	8730.8875
889.84136	8738.0875
893.64433	8727.4875
897.44466	8715.9875
901.24235	8748.1875
905.0374	8729.6875
908.8298	8681.9875
912.61957	8639.3875
916.40671	8664.0875
920.19121	8713.5875
923.97308	8846.7875
927.75233	9072.9875
931.52895	9231.7875
935.30295	9045.2875
939.07433	8641.9875
942.84309	8363.1875
946.60924	8175.0875
950.37278	8107.6875
954.13371	8061.7875
957.89203	8026.4875
961.64774	7953.9875
965.40086	7918.9875
969.15137	7899.6875
972.89929	7833.9875
976.64461	7829.1875
980.38733	7797.6875
984.12747	7790.5875
987.86502	7825.4875
991.59999	7860.2875
995.33237	7908.4875
999.06217	8003.2875
1002.78939	8165.7875
1006.51404	8410.6875
1010.23611	8595.3875
1013.95561	8631.6875
1017.67255	8556.5875
1021.38692	8439.4875
1025.09872	8240.4875
1028.80796	8129.6875
1032.51465	8098.1875
1036.21877	8099.7875
1039.92035	8133.5875
1043.61937	8212.3875
1047.31584	8280.6875
1051.00976	8307.7875
1054.70114	8314.3875
1058.38998	8324.3875
1062.07627	8337.1875
1065.76003	8380.6875
1069.44126	8444.6875
1073.11995	8583.3875
1076.79611	8825.0875
1080.46974	9123.8875
1084.14085	9533.3875
1087.80943	9945.0875
1091.47549	10010.1875
1095.13903	9671.8875
1098.80005	9266.7875
1102.45857	9039.6875
1106.11456	8930.5875
1109.76805	8917.8875
1113.41903	9076.9875
1117.06751	9424.4875
1120.71348	9940.0875
1124.35696	10606.7875
1127.99793	11211.9875
1131.63641	11003.0875
1135.2724	10220.7875
1138.90589	9572.7875
1142.5369	9155.9875
1146.16542	8885.2875
1149.79145	8756.3875
1153.415	8655.1875
1157.03607	8715.2875
1160.65467	8946.1875
1164.27079	9330.3875
1167.88443	9920.4875
1171.49561	10869.9875
1175.10432	12401.6875
1178.71056	14485.6875
1182.31434	16074.7875
1185.91565	16389.5875
1189.51451	15675.5875
1193.11091	14623.7875
1196.70485	13555.5875
1200.29634	12678.6875
1203.88538	11865.6875
1207.47197	10962.3875
1211.05612	10124.6875
1214.63782	9572.9875
1218.21708	9273.5875
1221.79391	9148.7875
1225.36829	9144.0875
1228.94024	9144.3875
1232.50976	9144.4875
1236.07685	9179.7875
1239.6415	9207.4875
1243.20374	9232.9875
1246.76355	9302.7875
1250.32093	9394.3875
1253.8759	9576.2875
1257.42845	9942.6875
1260.97859	10423.3875
1264.52631	10976.3875
1268.07163	11406.6875
1271.61453	11688.0875
1275.15503	11786.8875
1278.69312	11695.6875
1282.22882	11737.9875
1285.76211	12099.5875
1289.29301	12677.5875
1292.82151	13232.6875
1296.34761	13753.1875
1299.87133	14553.6875
1303.39266	16089.7875
1306.9116	18503.4875
1310.42815	21262.0875
1313.94233	22557.8875
1317.45412	21271.8875
1320.96354	18796.6875
1324.47058	16523.7875
1327.97525	14720.0875
1331.47754	13598.0875
1334.97747	13099.0875
1338.47502	13123.0875
1341.97022	13736.2875
1345.46305	15024.9875
1348.95352	16924.4875
1352.44163	18956.1875
1355.92738	21132.1875
1359.41078	24622.4875
1362.89183	28342.2875
1366.37053	27780.3875
1369.84688	22470.4875
1373.32088	17055.6875
1376.79254	13999.3875
1380.26186	12571.2875
1383.72883	11707.2875
1387.19347	10946.2875
1390.65578	10291.3875
1394.11575	9872.0875
1397.57339	9656.8875
1401.0287	9547.1875
1404.48168	9430.5875
1407.93234	9382.4875
1411.38068	9375.2875
1414.82669	9456.6875
1418.27039	9548.0875
1421.71177	9567.5875
1425.15083	9440.8875
1428.58758	9328.1875
1432.02203	9424.4875
1435.45416	9638.7875
1438.88399	9720.5875
1442.31151	9607.6875
1445.73673	9584.4875
1449.15965	9575.9875
1452.58027	9526.4875
1455.9986	9461.9875
1459.41463	9415.3875
1462.82837	9489.3875
1466.23982	9703.1875
1469.64898	9943.2875
1473.05586	10143.9875
1476.46045	10254.6875
1479.86276	10428.7875
1483.26279	10724.7875
1486.66054	11202.0875
1490.05602	11867.8875
1493.44922	12930.3875
1496.84016	14473.8875
1500.22882	16927.4875
1503.61521	20212.4875
1506.99934	24066.9875
1510.38121	27363.0875
1513.76081	28269.7875
1517.13816	25779.1875
1520.51324	21369.4875
1523.88607	17310.0875
1527.25665	14605.8875
1530.62498	13033.2875
1533.99105	12103.6875
1537.35488	11448.2875
1540.71647	10996.3875
1544.07581	10659.0875
1547.4329	10460.7875
1550.78776	10421.0875
1554.14038	10489.2875
1557.49077	10713.0875
1560.83892	11146.4875
1564.18484	11792.6875
1567.52853	12599.7875
1570.86999	13283.4875
1574.20922	13678.4875
1577.54624	13521.9875
1580.88103	12499.6875
1584.2136	11087.4875
1587.54395	10204.5875
1590.87208	10004.5875
1594.19801	10375.9875
1597.52172	11044.0875
1600.84321	11152.4875
1604.16251	10685.1875
1607.47959	10094.9875
1610.79447	9605.3875
1614.10715	9065.8875
1617.41763	8522.0875
1620.7259	8142.2875
1624.03199	7944.9875
1627.33587	7948.6875
1630.63757	8191.8875
1633.93707	8703.2875
1637.23439	9590.4875
1640.52951	11078.2875
1643.82246	13303.3875
1647.11321	16054.2875
1650.40179	18100.2875
1653.68819	17794.0875
1656.97241	15048.5875
1660.25446	11869.1875
1663.53433	9536.6875
1666.81203	8191.3875
1670.08756	7422.5875
1673.36092	6974.6875
1676.63211	6698.4875
1679.90115	6504.6875
1683.16801	6389.4875
1686.43272	6288.7875
1689.69527	6222.3875
1692.95567	6143.0875
1696.2139	6121.9875
1699.46999	6066.1875
1702.72392	6038.8875
1705.97571	6044.2875
1709.22535	6035.3875
1712.47284	6036.9875
1715.71819	6033.8875
1718.96139	6044.2875
1722.20246	6030.9875
1725.44139	5976.4875
1728.67818	5936.0875
1731.91284	5858.5875
1735.14537	5816.1875
1738.37576	5802.1875
1741.60403	5778.2875
1744.83017	5740.2875
1748.05418	5736.9875
1751.27607	5697.8875
1754.49584	5686.8875
1757.71349	5653.5875
1760.92903	5632.8875
1764.14244	5615.9875
1767.35375	5602.7875
1770.56294	5585.7875
1773.77002	5554.2875
1776.97499	5557.9875
1780.17785	5525.5875
1783.37861	5508.2875
1786.57727	5485.5875
1789.77382	5464.6875
1792.96828	5449.2875
1796.16064	5456.2875
1799.3509	5429.2875
1802.53907	5394.7875
1805.72514	5378.8875
1808.90913	5357.5875
1812.09102	5318.0875
1815.27083	5311.8875
1818.44856	5280.4875
1821.6242	5250.5875
1824.79776	5237.8875
1827.96924	5229.4875
1831.13864	5224.5875
1834.30597	5219.3875
1837.47122	5198.9875
1840.6344	5181.9875
1843.7955	5178.5875
1846.95454	5160.0875
1850.11151	5135.4875
1853.26642	5131.5875
1856.41926	5118.2875
1859.57004	5101.9875
1862.71876	5095.9875
1865.86542	5088.4875
1869.01003	5065.7875
1872.15258	5059.6875
1875.29308	5039.4875
1878.43152	5025.9875
1881.56792	5016.2875
1884.70227	4985.0875
1887.83457	4991.0875
1890.96482	4976.0875
1894.09304	4932.1875
1897.21921	4938.2875
1900.34335	4939.6875
1903.46544	4926.1875
1906.58551	4936.3875
1909.70353	4909.1875
1912.81953	4894.8875
1915.93349	4881.7875
1919.04543	4871.9875
1922.15534	4851.7875
1925.26322	4848.7875
1928.36908	4823.2875
1931.47292	4798.1875
1934.57473	4782.0875
1937.67453	4754.1875
1940.77232	4723.1875
1943.86808	4712.8875
1946.96184	4698.7875
1950.05358	4691.8875
1953.14331	4667.7875
1956.23103	4647.7875
1959.31675	4647.2875
1962.40046	4623.9875
1965.48217	4609.6875
1968.56188	4606.6875
1971.63959	4590.2875
1974.7153	4593.3875
1977.78901	4575.4875
1980.86073	4553.7875
1983.93046	4514.5875
1986.99819	4491.9875
1990.06394	4460.3875
1993.1277	4432.0875
1996.18947	4417.5875
1999.24925	4406.8875
2002.30706	4381.1875
2005.36288	4363.7875
2008.41672	4341.6875
2011.46859	4332.2875
2014.51848	4313.4875
2017.56639	4300.7875
2020.61233	4305.3875
2023.6563	4253.3875
2026.6983	4238.9875
2029.73833	4237.2875
2032.7764	4209.9875
2035.8125	4220.6875
2038.84664	4194.6875
2041.87881	4199.1875
2044.90903	4186.2875
2047.93729	4162.0875
2050.96359	4164.1875
2053.98794	4143.0875
2057.01034	4141.8875
2060.03078	4136.5875
2063.04927	4113.4875
2066.06582	4115.2875
2069.08042	4099.7875
2072.09307	4107.1875
2075.10378	4084.6875
2078.11255	4090.8875
2081.11938	4097.0875
2084.12426	4071.9875
2087.12722	4077.2875
2090.12824	4074.5875
2093.12732	4077.4875
2096.12447	4085.0875
2099.11969	4080.7875
2102.11299	4074.6875
2105.10435	4089.9875
2108.09379	4081.3875
2111.08131	4075.4875
2114.0669	4083.2875
2117.05057	4086.1875
2120.03233	4087.2875
2123.01216	4095.5875
2125.99008	4114.3875
2128.96609	4099.1875
2131.94018	4096.6875
2134.91236	4097.2875
2137.88263	4100.4875
2140.851	4084.7875
2143.81746	4063.2875
2146.78201	4054.1875
2149.74466	4046.9875
2152.7054	4050.0875
2155.66425	4050.0875
2158.6212	4031.6875
2161.57625	4025.0875
2164.52941	4006.0875
2167.48067	4005.6875
2170.43004	3992.9875
2173.37752	4001.8875
2176.32311	3995.6875
2179.26681	4008.4875
2182.20863	4003.0875
2185.14856	3996.8875
2188.08661	3985.9875
2191.02278	3992.1875
2193.95707	3964.1875
2196.88948	3972.9875
2199.82001	3959.7875
2202.74867	3935.7875
2205.67545	3944.3875
2208.60037	3932.5875
2211.52341	3914.0875
2214.44458	3906.2875
2217.36388	3889.1875
2220.28132	3889.4875
2223.1969	3857.9875
2226.11061	3871.2875
2229.02246	3845.1875
2231.93245	3839.5875
2234.84058	3813.3875
2237.74686	3807.6875
2240.65128	3808.4875
2243.55385	3808.0875
2246.45456	3805.5875
2249.35343	3803.6875
2252.25044	3812.4875
2255.14561	3794.7875
2258.03893	3798.3875
2260.93041	3806.4875
2263.82004	3802.1875
2266.70783	3798.8875
2269.59378	3783.5875
2272.4779	3778.0875
2275.36017	3754.2875
2278.24061	3767.3875
2281.11922	3741.4875
2283.996	3718.2875
2286.87094	3714.2875
2289.74405	3693.3875
2292.61534	3686.3875
2295.4848	3665.3875
2298.35243	3672.4875
2301.21824	3661.9875
2304.08223	3653.2875
2306.94439	3628.4875
2309.80474	3642.4875
2312.66327	3640.4875
2315.51999	3638.3875
2318.37489	3636.2875
2321.22797	3613.8875
2324.07925	3606.3875
2326.92871	3587.7875
2329.77637	3593.6875
2332.62222	3583.4875
2335.46626	3575.9875
2338.3085	3563.3875
2341.14893	3567.4875
2343.98756	3556.2875
2346.8244	3560.9875
2349.65943	3558.9875
2352.49267	3578.4875
2355.32411	3576.6875
2358.15376	3591.0875
2360.98161	3593.7875
2363.80768	3602.6875
2366.63195	3603.4875
2369.45444	3593.1875
2372.27514	3613.3875
2375.09405	3609.1875
2377.91118	3578.1875
2380.72652	3577.9875
2383.54009	3550.0875
2386.35187	3523.3875
2389.16188	3510.9875
2391.97011	3500.5875
2394.77657	3486.0875
2397.58125	3460.6875
2400.38416	3449.6875
2403.18529	3425.9875
2405.98466	3430.9875
2408.78226	3424.3875
2411.57809	3413.1875
2414.37216	3408.4875
2417.16446	3400.7875
2419.955	3395.3875
2422.74378	3407.2875
2425.5308	3398.9875
2428.31606	3409.1875
2431.09956	3403.8875
2433.88131	3389.2875
2436.6613	3395.0875
2439.43954	3392.2875
2442.21603	3395.5875
2444.99077	3406.2875
2447.76377	3399.2875
2450.53501	3395.5875
2453.30451	3389.0875
2456.07226	3386.3875
2458.83827	3387.0875
2461.60254	3376.5875
2464.36507	3385.1875
2467.12586	3374.9875
2469.88492	3364.3875
2472.64224	3368.2875
2475.39782	3369.0875
2478.15167	3375.9875
2480.90379	3373.0875
2483.65417	3371.1875
2486.40283	3390.0875
2489.14976	3385.2875
2491.89497	3397.0875
2494.63845	3392.6875
2497.3802	3385.1875
2500.12024	3374.2875
2502.85855	3373.5875
2505.59514	3352.6875
2508.33002	3337.1875
2511.06318	3310.2875
2513.79462	3283.7875
2516.52435	3275.9875
2519.25237	3272.4875
2521.97867	3246.8875
2524.70327	3232.9875
2527.42616	3225.3875
2530.14734	3212.4875
2532.86681	3200.8875
2535.58458	3192.5875
2538.30065	3196.7875
2541.01501	3202.6875
2543.72768	3197.8875
2546.43864	3207.1875
2549.14791	3199.2875
2551.85548	3192.5875
2554.56136	3182.8875
2557.26554	3187.8875
2559.96803	3195.0875
2562.66883	3178.4875
2565.36794	3162.3875
2568.06536	3172.6875
2570.7611	3146.4875
2573.45514	3159.3875
2576.14751	3143.4875
2578.83819	3127.4875
2581.52719	3120.9875
2584.21451	3111.0875
2586.90015	3102.5875
2589.58411	3083.4875
2592.2664	3086.5875
2594.94701	3090.5875
2597.62594	3076.5875
2600.30321	3075.6875
2602.9788	3071.7875
2605.65273	3047.3875
2608.32498	3046.6875
2610.99557	3057.2875
2613.66449	3062.2875
2616.33175	3049.2875
2618.99734	3047.5875
2621.66128	3033.5875
2624.32355	3030.2875
2626.98416	3021.1875
2629.64311	3007.9875
2632.30041	3007.7875
2634.95605	3002.8875
2637.61004	2996.2875
2640.26238	2968.5875
2642.91306	2956.8875
2645.56209	2960.7875
2648.20948	2952.4875
2650.85521	2947.4875
2653.4993	2959.0875
2656.14175	2960.0875
2658.78255	2971.0875
2661.42171	2953.9875
2664.05923	2962.3875
2666.6951	2972.4875
2669.32934	2960.1875
2671.96194	2952.2875
2674.59291	2956.4875
2677.22224	2976.0875
2679.84993	2976.5875
2682.476	2966.5875
2685.10043	2965.0875
2687.72324	2955.3875
2690.34441	2959.8875
2692.96396	2939.4875
2695.58188	2944.8875
2698.19818	2936.5875
2700.81285	2934.3875
2703.4259	2923.0875
2706.03733	2923.7875
2708.64714	2939.6875
2711.25533	2934.1875
2713.86191	2940.1875
2716.46687	2948.6875
2719.07021	2943.4875
2721.67194	2935.4875
2724.27206	2939.9875
2726.87057	2923.6875
2729.46747	2932.6875
2732.06276	2931.2875
2734.65644	2914.4875
2737.24852	2922.6875
2739.83899	2901.8875
2742.42786	2903.5875
2745.01513	2886.6875
2747.60079	2882.4875
2750.18486	2881.0875
2752.76733	2864.1875
2755.3482	2866.6875
2757.92747	2856.2875
2760.50515	2852.4875
2763.08123	2852.6875
2765.65573	2843.7875
2768.22863	2826.5875
2770.79994	2829.3875
2773.36967	2827.5875
2775.9378	2814.0875
2778.50435	2826.4875
2781.06932	2813.7875
2783.6327	2797.1875
2786.1945	2800.0875
2788.75471	2808.3875
2791.31335	2788.2875
2793.87041	2793.2875
2796.42589	2802.0875
2798.97979	2795.0875
2801.53212	2781.8875
2804.08288	2775.8875
2806.63206	2774.8875
2809.17967	2779.4875
2811.72571	2766.9875
2814.27018	2780.1875
2816.81308	2764.7875
2819.35442	2775.0875
2821.89419	2762.3875
2824.43239	2775.2875
2826.96904	2775.7875
2829.50412	2776.6875
2832.03763	2773.5875
2834.56959	2761.5875
2837.1	2762.6875
2839.62884	2756.3875
2842.15613	2761.9875
2844.68186	2763.6875
2847.20604	2762.6875
2849.72867	2772.7875
2852.24974	2776.3875
2854.76927	2782.8875
2857.28724	2771.9875
2859.80367	2782.0875
2862.31855	2776.2875
2864.83189	2784.2875
2867.34368	2772.1875
2869.85393	2774.9875
2872.36264	2778.5875
2874.8698	2778.3875
2877.37543	2763.3875
2879.87952	2765.2875
2882.38207	2768.5875
2884.88308	2767.8875
2887.38256	2740.3875
2889.88051	2738.7875
2892.37692	2732.8875
2894.8718	2736.0875
2897.36515	2742.3875
2899.85698	2741.7875
2902.34727	2754.7875
2904.83604	2763.5875
2907.32328	2759.9875
2909.809	2770.8875
2912.29319	2780.6875
2914.77587	2788.3875
2917.25702	2789.1875
2919.73665	2786.7875
2922.21476	2790.9875
2924.69136	2767.1875
2927.16644	2753.7875
2929.64	2732.3875
2932.11205	2737.8875
2934.58258	2723.7875
2937.05161	2717.6875
2939.51912	2714.9875
2941.98513	2710.2875
2944.44962	2712.8875
2946.91261	2684.0875
2949.37409	2682.0875
2951.83407	2674.4875
2954.29254	2684.2875
2956.74951	2682.0875
2959.20498	2664.1875
2961.65895	2666.4875
2964.11142	2666.0875
2966.56239	2667.5875
2969.01186	2665.5875
2971.45984	2650.9875
2973.90632	2643.5875
2976.35131	2631.1875
2978.7948	2648.1875
2981.23681	2628.7875
2983.67732	2618.8875
2986.11635	2617.1875
2988.55388	2607.1875
2990.98993	2612.1875
2993.4245	2606.4875
2995.85758	2581.2875
2998.28917	2582.0875
3000.71928	2595.3875
3003.14791	2587.4875
3005.57506	2574.3875
3008.00073	2574.5875
3010.42493	2571.1875
3012.84764	2571.3875
3015.26888	2560.7875
3017.68865	2551.4875
3020.10694	2550.8875
3022.52376	2534.2875
3024.9391	2543.9875
3027.35298	2530.5875
3029.76539	2536.1875
3032.17632	2525.0875
3034.5858	2511.9875
3036.9938	2506.9875
3039.40034	2500.6875
3041.80542	2486.0875
3044.20903	2487.1875
3046.61118	2484.0875
3049.01187	2477.5875
3051.4111	2473.2875
3053.80888	2472.4875
3056.20519	2462.6875
3058.60005	2466.5875
3060.99345	2467.2875
3063.3854	2453.4875
3065.7759	2460.0875
3068.16494	2446.3875
3070.55254	2442.9875
3072.93868	2441.8875
3075.32338	2428.0875
3077.70662	2432.1875
3080.08842	2433.6875
3082.46878	2423.6875
3084.84769	2424.8875
3087.22515	2416.5875
3089.60118	2416.0875
3091.97576	2424.2875
3094.3489	2427.6875
3096.72061	2420.6875
3099.09087	2435.5875
3101.4597	2420.0875
3103.82709	2430.6875
3106.19305	2424.5875
3108.55757	2424.1875
3110.92066	2434.8875
3113.28232	2420.6875
3115.64255	2414.0875
3118.00134	2427.1875
3120.35871	2426.4875
3122.71466	2438.2875
3125.06917	2417.9875
3127.42226	2414.0875
3129.77393	2428.1875
3132.12417	2427.2875
3134.47299	2428.1875
3136.82039	2420.5875
3139.16636	2420.2875
3141.51092	2437.9875
3143.85406	2437.2875
3146.19579	2442.5875
3148.53609	2440.4875
3150.87499	2456.5875
3153.21246	2454.0875
3155.54853	2460.9875
3157.88318	2465.7875
3160.21642	2471.0875
3162.54826	2476.7875
3164.87868	2462.9875
3167.2077	2476.9875
3169.5353	2487.8875
3171.86151	2468.2875
3174.18631	2476.0875
3176.5097	2481.6875
3178.83169	2480.7875
3181.15228	2478.2875
3183.47147	2492.1875
3185.78926	2472.0875
3188.10565	2461.5875
3190.42065	2472.7875
3192.73424	2461.6875
3195.04645	2469.8875
3197.35725	2468.4875
3199.66667	2474.5875
3201.97469	2479.7875
3204.28132	2470.8875
3206.58656	2492.8875
3208.8904	2481.6875
3211.19287	2492.7875
3213.49394	2493.2875
3215.79363	2502.6875
3218.09193	2505.6875
3220.38884	2493.5875
3222.68438	2497.3875
3224.97853	2506.0875
3227.2713	2507.6875
3229.56269	2505.9875
3231.8527	2507.7875
3234.14133	2485.2875
3236.42858	2506.2875
3238.71446	2501.4875
3240.99896	2477.7875
3243.28209	2482.4875
3245.56384	2469.7875
3247.84423	2479.7875
3250.12324	2453.9875
3252.40088	2461.0875
3254.67715	2468.6875
3256.95205	2463.9875
3259.22558	2463.8875
3261.49775	2465.6875
3263.76855	2469.6875
3266.03799	2462.0875
3268.30606	2456.6875
3270.57277	2446.9875
3272.83812	2449.5875
3275.10211	2442.0875
3277.36474	2427.8875
3279.62601	2433.1875
3281.88593	2432.3875
3284.14448	2437.5875
3286.40168	2440.7875
3288.65753	2428.7875
3290.91202	2443.8875
3293.16516	2436.7875
3295.41695	2445.0875
3297.66738	2421.6875
3299.91647	2406.3875
3302.16421	2402.8875
3304.4106	2395.6875
3306.65564	2374.2875
3308.89933	2372.7875
3311.14169	2349.6875
3313.38269	2321.9875
3315.62236	2327.5875
3317.86068	2298.4875
3320.09766	2270.4875
3322.3333	2264.5875
3324.5676	2258.0875
3326.80056	2221.8875
3329.03219	2207.2875
3331.26248	0.1875
3333.49143	1.1875
3335.71905	1.1875
