Data from AgNPs_UA_50uM_CRN_0uM_R6G_10uM_Q_RamanShift__40__12-57-51-806.txt Node

Date: Tue Jul 26 12:57:51 BST 2022
User: TCL
Spectrometer: QEP01345
Trigger mode: 4
Integration Time (sec): 7.000000E0
Scans to average: 10
Electric dark correction enabled: true
Nonlinearity correction enabled: false
Boxcar width: 0
XAxis mode: Raman Shifts
Number of Pixels in Spectrum: 1044
>>>>>Begin Spectral Data<<<<<
46.04893	-1.125
50.45542	-0.225
54.85868	0.075
59.25871	-1.725
63.6555	95.975
68.04907	103.175
72.43941	108.575
76.82654	111.875
81.21044	114.775
85.59113	121.875
89.96862	126.275
94.34289	128.675
98.71396	138.175
103.08183	140.175
107.4465	137.775
111.80798	147.975
116.16626	148.475
120.52136	157.275
124.87327	156.475
129.222	165.875
133.56755	178.475
137.90993	188.075
142.24913	199.875
146.58517	226.475
150.91804	254.775
155.24774	301.075
159.57429	371.775
163.89768	468.675
168.21792	619.575
172.53501	845.475
176.84895	1165.875
181.15975	1637.675
185.46741	2282.675
189.77193	3137.475
194.07331	4178.775
198.37157	5350.875
202.6667	6596.975
206.9587	7835.875
211.24758	9051.675
215.53334	10260.775
219.81599	11579.375
224.09553	13074.275
228.37195	14687.075
232.64527	16500.775
236.91549	18423.875
241.18261	20228.075
245.44663	21828.675
249.70755	23213.275
253.96539	24325.275
258.22014	25256.475
262.4718	26012.175
266.72039	26486.575
270.96589	26679.075
275.20832	26629.675
279.44768	26298.075
283.68397	25931.575
287.91719	25641.675
292.14735	25493.575
296.37445	25604.375
300.59849	25896.975
304.81948	26326.475
309.03742	26693.775
313.25231	26880.175
317.46415	26710.175
321.67296	26350.175
325.87872	25960.075
330.08145	25838.675
334.28114	25890.875
338.47781	26088.875
342.67145	26470.575
346.86207	27088.075
351.04966	27748.575
355.23424	28355.075
359.4158	28754.975
363.59435	29029.375
367.76989	29162.275
371.94243	29219.675
376.11196	29291.775
380.27849	29368.275
384.44203	29594.575
388.60257	29864.975
392.76012	30033.775
396.91468	30302.275
401.06626	30689.575
405.21485	30950.475
409.36047	30663.575
413.50311	30170.175
417.64277	29707.875
421.77947	29635.575
425.9132	29759.975
430.04396	29942.175
434.17176	30278.075
438.2966	30722.975
442.41849	31542.675
446.53742	32691.675
450.6534	33760.775
454.76644	34308.075
458.87653	34223.475
462.98368	33785.775
467.08789	33157.275
471.18916	32388.975
475.2875	31503.975
479.38291	30759.675
483.4754	30129.075
487.56496	29794.775
491.6516	29600.975
495.73531	29632.675
499.81612	29737.875
503.89401	30092.175
507.96899	30199.075
512.04106	30294.675
516.11023	30292.675
520.1765	30410.375
524.23987	30576.275
528.30034	30724.575
532.35792	30770.875
536.41261	30436.175
540.46441	30008.475
544.51333	29876.675
548.55936	30062.375
552.60252	30570.175
556.64279	31336.975
560.6802	31763.675
564.71473	31816.375
568.7464	31943.675
572.7752	32398.875
576.80114	32838.075
580.82422	33526.975
584.84444	34855.575
588.86181	36906.075
592.87633	39296.875
596.888	40296.275
600.89682	39106.175
604.9028	38708.775
608.90594	41639.375
612.90624	44968.575
616.90371	41980.075
620.89834	35176.575
624.89015	32140.075
628.87913	31836.175
632.86528	31990.775
636.84862	32038.775
640.82913	31556.275
644.80683	30696.775
648.78172	30189.175
652.75379	30264.575
656.72306	30830.475
660.68952	31437.775
664.65319	31172.075
668.61405	30561.875
672.57211	30518.075
676.52738	30682.575
680.47986	30542.775
684.42955	30276.475
688.37646	30104.975
692.32058	30377.875
696.26192	30737.875
700.20048	31279.175
704.13626	31477.275
708.06928	31368.375
711.99952	31158.775
715.927	31155.675
719.85171	31346.875
723.77365	31293.975
727.69284	31029.775
731.60928	30754.375
735.52295	30832.475
739.43388	31024.475
743.34206	31179.375
747.24749	31288.475
751.15017	31395.575
755.05012	31895.775
758.94733	32823.975
762.8418	34787.075
766.73354	37821.475
770.62254	40458.075
774.50882	40978.875
778.39237	39210.375
782.27321	36535.675
786.15132	34109.875
790.02671	32579.275
793.89938	31779.475
797.76935	31379.475
801.6366	31147.275
805.50115	31004.675
809.36299	30817.075
813.22213	30629.175
817.07857	30516.375
820.93231	30456.875
824.78336	30424.075
828.63172	30489.875
832.47738	30493.075
836.32036	30572.075
840.16066	30565.675
843.99827	30636.575
847.8332	30687.175
851.66546	30697.475
855.49504	30753.675
859.32195	30756.775
863.1462	30668.075
866.96777	30638.075
870.78668	30651.275
874.60293	30783.675
878.41652	30873.175
882.22745	31027.175
886.03573	31113.775
889.84136	31112.975
893.64433	31017.275
897.44466	30918.375
901.24235	30851.575
905.0374	30722.775
908.8298	30670.675
912.61957	30625.375
916.40671	30777.275
920.19121	31061.475
923.97308	31355.275
927.75233	31560.075
931.52895	31454.275
935.30295	31069.675
939.07433	30624.075
942.84309	30281.975
946.60924	30137.675
950.37278	30107.575
954.13371	30099.675
957.89203	30046.475
961.64774	29986.375
965.40086	30006.775
969.15137	30013.775
972.89929	30047.075
976.64461	30036.675
980.38733	30147.975
984.12747	30269.475
987.86502	30438.575
991.59999	30692.675
995.33237	31125.375
999.06217	31768.275
1002.78939	32568.975
1006.51404	33310.275
1010.23611	33983.875
1013.95561	34365.675
1017.67255	34446.275
1021.38692	34003.875
1025.09872	33343.675
1028.80796	32984.175
1032.51465	33031.475
1036.21877	33317.875
1039.92035	33440.775
1043.61937	33326.175
1047.31584	33012.075
1051.00976	32736.375
1054.70114	32606.075
1058.38998	32605.275
1062.07627	32796.875
1065.76003	33033.775
1069.44126	33371.475
1073.11995	33918.775
1076.79611	34571.675
1080.46974	34965.775
1084.14085	35361.975
1087.80943	35685.475
1091.47549	35812.075
1095.13903	35583.875
1098.80005	35060.475
1102.45857	34458.775
1106.11456	34169.975
1109.76805	34193.875
1113.41903	34413.075
1117.06751	34791.275
1120.71348	35273.975
1124.35696	35795.375
1127.99793	36235.775
1131.63641	36196.875
1135.2724	35778.575
1138.90589	35424.275
1142.5369	35308.575
1146.16542	35295.075
1149.79145	35327.975
1153.415	35409.975
1157.03607	35565.575
1160.65467	36102.975
1164.27079	37185.775
1167.88443	38761.875
1171.49561	41103.475
1175.10432	44217.775
1178.71056	48217.175
1182.31434	51699.675
1185.91565	52930.875
1189.51451	52096.175
1193.11091	50335.775
1196.70485	48221.675
1200.29634	46290.575
1203.88538	44562.975
1207.47197	43090.475
1211.05612	41960.075
1214.63782	41134.975
1218.21708	40812.475
1221.79391	40874.475
1225.36829	41240.775
1228.94024	41264.175
1232.50976	40653.175
1236.07685	39873.675
1239.6415	39254.175
1243.20374	39108.675
1246.76355	39268.375
1250.32093	39725.575
1253.8759	40290.075
1257.42845	41266.575
1260.97859	42486.775
1264.52631	43786.675
1268.07163	45093.475
1271.61453	46232.375
1275.15503	47141.175
1278.69312	47921.575
1282.22882	48749.475
1285.76211	49977.675
1289.29301	51593.775
1292.82151	53479.775
1296.34761	55869.375
1299.87133	58881.675
1303.39266	62505.175
1306.9116	66912.475
1310.42815	71065.275
1313.94233	73211.275
1317.45412	71919.775
1320.96354	68591.675
1324.47058	64874.975
1327.97525	61719.175
1331.47754	59546.675
1334.97747	58538.575
1338.47502	58293.875
1341.97022	58511.975
1345.46305	59086.975
1348.95352	60249.975
1352.44163	62292.875
1355.92738	65648.075
1359.41078	70421.575
1362.89183	74160.875
1366.37053	72753.875
1369.84688	65689.375
1373.32088	57575.175
1376.79254	52407.075
1380.26186	50287.175
1383.72883	49658.975
1387.19347	49070.575
1390.65578	48151.175
1394.11575	47397.575
1397.57339	47241.975
1401.0287	47301.975
1404.48168	47363.975
1407.93234	47412.875
1411.38068	47295.275
1414.82669	46962.075
1418.27039	46299.175
1421.71177	45447.375
1425.15083	44709.775
1428.58758	44451.775
1432.02203	44995.675
1435.45416	46029.775
1438.88399	46727.475
1442.31151	46987.175
1445.73673	46889.075
1449.15965	46755.175
1452.58027	46379.075
1455.9986	45964.375
1459.41463	45984.175
1462.82837	46689.775
1466.23982	47631.675
1469.64898	48719.375
1473.05586	49571.775
1476.46045	50160.175
1479.86276	50520.175
1483.26279	50656.975
1486.66054	50896.875
1490.05602	51608.875
1493.44922	52664.875
1496.84016	53950.775
1500.22882	55775.075
1503.61521	58224.875
1506.99934	60647.375
1510.38121	62172.575
1513.76081	61576.175
1517.13816	58923.975
1520.51324	55324.375
1523.88607	52625.575
1527.25665	51363.875
1530.62498	51039.675
1533.99105	50689.475
1537.35488	50092.075
1540.71647	49287.475
1544.07581	48308.675
1547.4329	47287.975
1550.78776	46522.775
1554.14038	45905.375
1557.49077	45601.975
1560.83892	45631.675
1564.18484	46055.275
1567.52853	46615.975
1570.86999	47147.375
1574.20922	47582.275
1577.54624	47596.175
1580.88103	46743.275
1584.2136	45941.075
1587.54395	46317.775
1590.87208	48242.975
1594.19801	51405.775
1597.52172	54932.875
1600.84321	56630.575
1604.16251	55109.775
1607.47959	51578.975
1610.79447	47341.575
1614.10715	43565.575
1617.41763	40738.175
1620.7259	38853.175
1624.03199	37925.875
1627.33587	38049.975
1630.63757	38969.275
1633.93707	41133.375
1637.23439	44884.275
1640.52951	50424.275
1643.82246	57073.475
1647.11321	62242.475
1650.40179	62804.375
1653.68819	57971.575
1656.97241	50302.475
1660.25446	43478.875
1663.53433	38787.975
1666.81203	35964.175
1670.08756	34286.775
1673.36092	33161.575
1676.63211	32512.875
1679.90115	31908.575
1683.16801	31492.875
1686.43272	31164.375
1689.69527	30922.775
1692.95567	30740.475
1696.2139	30622.375
1699.46999	30526.275
1702.72392	30469.075
1705.97571	30399.075
1709.22535	30397.675
1712.47284	30390.175
1715.71819	30364.075
1718.96139	30222.275
1722.20246	30187.675
1725.44139	30034.975
1728.67818	29894.875
1731.91284	29776.875
1735.14537	29664.975
1738.37576	29530.175
1741.60403	29470.975
1744.83017	29347.975
1748.05418	29285.275
1751.27607	29255.875
1754.49584	29216.375
1757.71349	29130.675
1760.92903	29130.375
1764.14244	29141.875
1767.35375	29117.975
1770.56294	29072.175
1773.77002	28999.675
1776.97499	28999.475
1780.17785	28982.475
1783.37861	28930.775
1786.57727	28914.675
1789.77382	28892.075
1792.96828	28809.875
1796.16064	28766.775
1799.3509	28755.175
1802.53907	28758.775
1805.72514	28681.775
1808.90913	28559.875
1812.09102	28501.275
1815.27083	28429.175
1818.44856	28365.975
1821.6242	28342.675
1824.79776	28328.775
1827.96924	28283.175
1831.13864	28257.875
1834.30597	28259.075
1837.47122	28269.675
1840.6344	28236.775
1843.7955	28287.875
1846.95454	28255.075
1850.11151	28230.775
1853.26642	28228.375
1856.41926	28176.475
1859.57004	28195.575
1862.71876	28189.475
1865.86542	28158.875
1869.01003	28091.075
1872.15258	28077.475
1875.29308	28092.775
1878.43152	28060.275
1881.56792	28054.075
1884.70227	28039.575
1887.83457	28004.175
1890.96482	27987.575
1894.09304	27929.875
1897.21921	27932.075
1900.34335	27882.275
1903.46544	27893.775
1906.58551	27840.475
1909.70353	27838.175
1912.81953	27861.375
1915.93349	27812.875
1919.04543	27757.575
1922.15534	27711.975
1925.26322	27618.175
1928.36908	27607.375
1931.47292	27554.275
1934.57473	27482.475
1937.67453	27358.075
1940.77232	27333.075
1943.86808	27266.275
1946.96184	27214.475
1950.05358	27160.175
1953.14331	27129.675
1956.23103	27045.775
1959.31675	26923.575
1962.40046	26884.075
1965.48217	26789.975
1968.56188	26733.275
1971.63959	26674.675
1974.7153	26557.275
1977.78901	26549.275
1980.86073	26463.575
1983.93046	26411.775
1986.99819	26289.375
1990.06394	26233.075
1993.1277	26180.975
1996.18947	26123.275
1999.24925	26076.375
2002.30706	25974.675
2005.36288	25881.775
2008.41672	25819.875
2011.46859	25810.275
2014.51848	25736.975
2017.56639	25617.675
2020.61233	25583.875
2023.6563	25543.075
2026.6983	25495.475
2029.73833	25421.775
2032.7764	25391.675
2035.8125	25339.075
2038.84664	25333.775
2041.87881	25325.975
2044.90903	25276.275
2047.93729	25228.675
2050.96359	25175.875
2053.98794	25173.375
2057.01034	25154.875
2060.03078	25174.075
2063.04927	25142.675
2066.06582	25108.675
2069.08042	25099.175
2072.09307	25094.075
2075.10378	25055.175
2078.11255	25028.175
2081.11938	25016.375
2084.12426	24992.875
2087.12722	25025.375
2090.12824	25023.075
2093.12732	25029.275
2096.12447	24995.575
2099.11969	25004.675
2102.11299	25006.275
2105.10435	25032.075
2108.09379	25034.175
2111.08131	25061.775
2114.0669	25008.975
2117.05057	25054.375
2120.03233	25113.175
2123.01216	25156.675
2125.99008	25179.675
2128.96609	25192.575
2131.94018	25219.475
2134.91236	25246.575
2137.88263	25218.875
2140.851	25227.375
2143.81746	25231.275
2146.78201	25268.375
2149.74466	25270.575
2152.7054	25277.175
2155.66425	25294.375
2158.6212	25293.275
2161.57625	25243.875
2164.52941	25265.275
2167.48067	25258.775
2170.43004	25212.675
2173.37752	25237.975
2176.32311	25208.575
2179.26681	25234.775
2182.20863	25260.375
2185.14856	25295.475
2188.08661	25295.075
2191.02278	25257.675
2193.95707	25270.575
2196.88948	25268.875
2199.82001	25270.175
2202.74867	25252.375
2205.67545	25267.875
2208.60037	25198.075
2211.52341	25185.475
2214.44458	25130.275
2217.36388	25075.975
2220.28132	25063.175
2223.1969	24973.475
2226.11061	24965.675
2229.02246	24964.775
2231.93245	24922.975
2234.84058	24901.575
2237.74686	24857.475
2240.65128	24808.575
2243.55385	24792.275
2246.45456	24756.175
2249.35343	24779.275
2252.25044	24726.475
2255.14561	24706.475
2258.03893	24706.575
2260.93041	24612.775
2263.82004	24559.275
2266.70783	24507.175
2269.59378	24469.775
2272.4779	24461.175
2275.36017	24391.875
2278.24061	24358.275
2281.11922	24317.475
2283.996	24253.175
2286.87094	24259.175
2289.74405	24190.475
2292.61534	24148.175
2295.4848	24158.075
2298.35243	24169.075
2301.21824	24152.975
2304.08223	24176.675
2306.94439	24191.175
2309.80474	24180.975
2312.66327	24170.175
2315.51999	24110.975
2318.37489	24148.875
2321.22797	24113.875
2324.07925	24058.475
2326.92871	24023.275
2329.77637	24025.475
2332.62222	23968.975
2335.46626	23994.375
2338.3085	23934.975
2341.14893	23880.975
2343.98756	23914.975
2346.8244	23949.475
2349.65943	23988.475
2352.49267	23960.975
2355.32411	23931.275
2358.15376	23877.375
2360.98161	23887.375
2363.80768	23900.775
2366.63195	23889.275
2369.45444	23824.375
2372.27514	23795.775
2375.09405	23852.675
2377.91118	23781.775
2380.72652	23723.175
2383.54009	23660.475
2386.35187	23645.475
2389.16188	23581.375
2391.97011	23545.275
2394.77657	23503.075
2397.58125	23455.075
2400.38416	23447.075
2403.18529	23430.875
2405.98466	23371.275
2408.78226	23294.775
2411.57809	23309.675
2414.37216	23267.175
2417.16446	23308.675
2419.955	23296.175
2422.74378	23313.575
2425.5308	23216.475
2428.31606	23226.375
2431.09956	23213.875
2433.88131	23198.675
2436.6613	23214.075
2439.43954	23202.875
2442.21603	23173.575
2444.99077	23152.275
2447.76377	23199.975
2450.53501	23125.375
2453.30451	23134.575
2456.07226	23126.275
2458.83827	23140.175
2461.60254	23094.375
2464.36507	23050.175
2467.12586	23060.375
2469.88492	23056.975
2472.64224	23077.375
2475.39782	23067.475
2478.15167	23064.275
2480.90379	23065.175
2483.65417	23105.275
2486.40283	23146.575
2489.14976	23143.775
2491.89497	23104.675
2494.63845	23120.275
2497.3802	23092.875
2500.12024	23097.475
2502.85855	23068.675
2505.59514	23015.775
2508.33002	22985.175
2511.06318	22971.975
2513.79462	22960.975
2516.52435	22951.275
2519.25237	22906.075
2521.97867	22880.875
2524.70327	22914.175
2527.42616	22851.375
2530.14734	22879.975
2532.86681	22851.075
2535.58458	22842.875
2538.30065	22790.775
2541.01501	22750.475
2543.72768	22751.075
2546.43864	22749.575
2549.14791	22721.275
2551.85548	22685.275
2554.56136	22663.375
2557.26554	22644.275
2559.96803	22639.775
2562.66883	22638.275
2565.36794	22600.675
2568.06536	22584.475
2570.7611	22556.375
2573.45514	22536.775
2576.14751	22517.975
2578.83819	22476.075
2581.52719	22491.875
2584.21451	22439.575
2586.90015	22397.175
2589.58411	22372.675
2592.2664	22367.575
2594.94701	22385.875
2597.62594	22314.875
2600.30321	22270.375
2602.9788	22275.075
2605.65273	22269.275
2608.32498	22319.275
2610.99557	22306.475
2613.66449	22306.575
2616.33175	22258.175
2618.99734	22290.075
2621.66128	22259.875
2624.32355	22205.075
2626.98416	22179.875
2629.64311	22183.075
2632.30041	22126.075
2634.95605	22185.775
2637.61004	22144.175
2640.26238	22125.475
2642.91306	22115.375
2645.56209	22094.575
2648.20948	22085.675
2650.85521	22062.675
2653.4993	22036.875
2656.14175	22047.875
2658.78255	22085.275
2661.42171	22056.675
2664.05923	22055.075
2666.6951	22129.175
2669.32934	22156.175
2671.96194	22157.075
2674.59291	22148.975
2677.22224	22126.575
2679.84993	22141.775
2682.476	22069.975
2685.10043	22103.075
2687.72324	22078.575
2690.34441	22075.975
2692.96396	22045.575
2695.58188	22017.675
2698.19818	22034.475
2700.81285	22030.175
2703.4259	22042.475
2706.03733	22062.475
2708.64714	22030.375
2711.25533	22052.675
2713.86191	22039.975
2716.46687	22084.775
2719.07021	22088.975
2721.67194	22128.875
2724.27206	22114.375
2726.87057	22107.875
2729.46747	22130.575
2732.06276	22128.675
2734.65644	22166.375
2737.24852	22145.775
2739.83899	22140.775
2742.42786	22148.975
2745.01513	22122.575
2747.60079	22080.275
2750.18486	22006.475
2752.76733	22006.675
2755.3482	22007.575
2757.92747	21980.975
2760.50515	21977.575
2763.08123	21980.475
2765.65573	21986.975
2768.22863	22004.075
2770.79994	21988.375
2773.36967	21967.175
2775.9378	21926.975
2778.50435	21923.975
2781.06932	21914.875
2783.6327	21930.775
2786.1945	21875.775
2788.75471	21861.775
2791.31335	21809.875
2793.87041	21758.875
2796.42589	21704.975
2798.97979	21716.875
2801.53212	21647.075
2804.08288	21645.375
2806.63206	21584.375
2809.17967	21527.675
2811.72571	21471.375
2814.27018	21480.975
2816.81308	21431.175
2819.35442	21467.775
2821.89419	21418.775
2824.43239	21396.475
2826.96904	21361.575
2829.50412	21352.475
2832.03763	21301.275
2834.56959	21271.775
2837.1	21223.275
2839.62884	21268.075
2842.15613	21209.275
2844.68186	21236.375
2847.20604	21181.375
2849.72867	21163.875
2852.24974	21162.875
2854.76927	21120.675
2857.28724	21104.775
2859.80367	21098.675
2862.31855	21119.175
2864.83189	21034.775
2867.34368	21031.875
2869.85393	21056.475
2872.36264	20987.375
2874.8698	21008.975
2877.37543	20948.775
2879.87952	20951.375
2882.38207	20969.475
2884.88308	20959.075
2887.38256	20963.175
2889.88051	20982.375
2892.37692	20981.475
2894.8718	20934.075
2897.36515	20988.075
2899.85698	20963.475
2902.34727	21042.775
2904.83604	21050.475
2907.32328	21150.675
2909.809	21107.775
2912.29319	21090.475
2914.77587	21060.575
2917.25702	21091.975
2919.73665	21015.975
2922.21476	21024.275
2924.69136	21022.675
2927.16644	20983.175
2929.64	20969.975
2932.11205	20982.775
2934.58258	20880.475
2937.05161	20910.575
2939.51912	20925.775
2941.98513	20902.175
2944.44962	20903.375
2946.91261	20852.975
2949.37409	20861.275
2951.83407	20864.075
2954.29254	20839.175
2956.74951	20849.775
2959.20498	20835.675
2961.65895	20846.775
2964.11142	20835.075
2966.56239	20764.575
2969.01186	20766.375
2971.45984	20770.075
2973.90632	20753.175
2976.35131	20698.175
2978.7948	20675.075
2981.23681	20670.475
2983.67732	20602.175
2986.11635	20569.775
2988.55388	20517.575
2990.98993	20544.575
2993.4245	20450.275
2995.85758	20420.675
2998.28917	20420.075
3000.71928	20405.675
3003.14791	20336.975
3005.57506	20286.775
3008.00073	20246.975
3010.42493	20208.075
3012.84764	20174.675
3015.26888	20172.775
3017.68865	20104.775
3020.10694	20100.775
3022.52376	20032.075
3024.9391	20023.275
3027.35298	19967.275
3029.76539	19985.075
3032.17632	19965.175
3034.5858	19924.875
3036.9938	19947.375
3039.40034	19875.175
3041.80542	19886.375
3044.20903	19868.175
3046.61118	19832.275
3049.01187	19810.475
3051.4111	19798.875
3053.80888	19769.475
3056.20519	19704.775
3058.60005	19645.575
3060.99345	19636.475
3063.3854	19569.075
3065.7759	19535.475
3068.16494	19526.875
3070.55254	19460.775
3072.93868	19427.775
3075.32338	19322.775
3077.70662	19329.875
3080.08842	19315.575
3082.46878	19241.675
3084.84769	19237.375
3087.22515	19235.275
3089.60118	19240.775
3091.97576	19262.775
3094.3489	19200.175
3096.72061	19207.275
3099.09087	19218.175
3101.4597	19174.775
3103.82709	19223.375
3106.19305	19176.175
3108.55757	19154.275
3110.92066	19102.075
3113.28232	19104.875
3115.64255	19028.475
3118.00134	19011.375
3120.35871	19009.375
3122.71466	18967.675
3125.06917	18917.375
3127.42226	18879.975
3129.77393	18895.875
3132.12417	18848.875
3134.47299	18842.875
3136.82039	18825.975
3139.16636	18827.575
3141.51092	18800.075
3143.85406	18812.175
3146.19579	18806.375
3148.53609	18795.675
3150.87499	18829.075
3153.21246	18839.075
3155.54853	18859.575
3157.88318	18805.775
3160.21642	18826.975
3162.54826	18826.575
3164.87868	18798.575
3167.2077	18783.375
3169.5353	18822.375
3171.86151	18799.175
3174.18631	18787.675
3176.5097	18787.075
3178.83169	18778.975
3181.15228	18753.475
3183.47147	18676.675
3185.78926	18696.075
3188.10565	18622.075
3190.42065	18614.075
3192.73424	18572.275
3195.04645	18557.375
3197.35725	18564.775
3199.66667	18553.675
3201.97469	18548.275
3204.28132	18534.775
3206.58656	18525.675
3208.8904	18563.575
3211.19287	18568.875
3213.49394	18539.275
3215.79363	18571.075
3218.09193	18566.275
3220.38884	18549.375
3222.68438	18575.675
3224.97853	18519.975
3227.2713	18583.275
3229.56269	18563.275
3231.8527	18566.375
3234.14133	18519.275
3236.42858	18480.375
3238.71446	18434.075
3240.99896	18411.975
3243.28209	18369.275
3245.56384	18360.275
3247.84423	18344.575
3250.12324	18287.975
3252.40088	18242.475
3254.67715	18232.275
3256.95205	18194.575
3259.22558	18212.575
3261.49775	18200.375
3263.76855	18196.975
3266.03799	18199.975
3268.30606	18187.175
3270.57277	18171.775
3272.83812	18114.175
3275.10211	18055.575
3277.36474	18030.875
3279.62601	17998.975
3281.88593	18011.275
3284.14448	18027.575
3286.40168	17957.475
3288.65753	17970.075
3290.91202	18001.875
3293.16516	17986.375
3295.41695	17892.075
3297.66738	17806.275
3299.91647	17704.175
3302.16421	17601.775
3304.4106	17531.075
3306.65564	17411.475
3308.89933	17313.575
3311.14169	17209.775
3313.38269	17028.175
3315.62236	16949.475
3317.86068	16822.075
3320.09766	16704.075
3322.3333	16584.775
3324.5676	16502.075
3326.80056	16286.775
3329.03219	16205.875
3331.26248	3.875
3333.49143	-1.625
3335.71905	0.275
