Data from AgNPs_UA_20uM_CRN_0uM_R6G_10uM_Q_RamanShift__11__12-49-12-015.txt Node

Date: Mon Jul 18 12:49:12 BST 2022
User: TCL
Spectrometer: QEP01345
Trigger mode: 4
Integration Time (sec): 7.000000E0
Scans to average: 10
Electric dark correction enabled: true
Nonlinearity correction enabled: false
Boxcar width: 0
XAxis mode: Raman Shifts
Number of Pixels in Spectrum: 1044
>>>>>Begin Spectral Data<<<<<
46.04893	-1.075
50.45542	-0.975
54.85868	-0.375
59.25871	-1.075
63.6555	127.625
68.04907	136.525
72.43941	145.425
76.82654	144.225
81.21044	154.825
85.59113	157.725
89.96862	163.325
94.34289	167.425
98.71396	177.925
103.08183	182.225
107.4465	186.625
111.80798	187.725
116.16626	200.225
120.52136	208.225
124.87327	218.125
129.222	226.725
133.56755	238.525
137.90993	263.425
142.24913	291.525
146.58517	333.725
150.91804	386.825
155.24774	464.725
159.57429	577.525
163.89768	742.225
168.21792	994.625
172.53501	1371.825
176.84895	1900.425
181.15975	2693.525
185.46741	3786.125
189.77193	5219.225
194.07331	7010.025
198.37157	8989.525
202.6667	11081.525
206.9587	13188.425
211.24758	15237.125
215.53334	17266.525
219.81599	19458.325
224.09553	21840.725
228.37195	24554.225
232.64527	27427.625
236.91549	30433.825
241.18261	33520.425
245.44663	36246.225
249.70755	38759.925
253.96539	40952.625
258.22014	42756.425
262.4718	44251.025
266.72039	45230.425
270.96589	45710.625
275.20832	45708.725
279.44768	45538.625
283.68397	45115.125
287.91719	44823.925
292.14735	44718.625
296.37445	44810.525
300.59849	45113.825
304.81948	45496.325
309.03742	45728.725
313.25231	45633.025
317.46415	44930.825
321.67296	43896.525
325.87872	43100.525
330.08145	42814.525
334.28114	42866.825
338.47781	43339.425
342.67145	43881.525
346.86207	44547.825
351.04966	45304.225
355.23424	46145.125
359.4158	46839.125
363.59435	47423.725
367.76989	47706.225
371.94243	47925.425
376.11196	47941.425
380.27849	48134.025
384.44203	48354.525
388.60257	48593.625
392.76012	49033.525
396.91468	49616.125
401.06626	50194.425
405.21485	50605.525
409.36047	50437.025
413.50311	49775.025
417.64277	49316.225
421.77947	49235.725
425.9132	49325.125
430.04396	49573.725
434.17176	49838.625
438.2966	50205.125
442.41849	50671.825
446.53742	51549.525
450.6534	52433.425
454.76644	53023.725
458.87653	53292.425
462.98368	53413.125
467.08789	53316.925
471.18916	53020.925
475.2875	52607.225
479.38291	52231.425
483.4754	51821.425
487.56496	51542.225
491.6516	51423.225
495.73531	51293.825
499.81612	51220.325
503.89401	51523.525
507.96899	51758.325
512.04106	51861.225
516.11023	51950.325
520.1765	51824.525
524.23987	51587.325
528.30034	51413.525
532.35792	51262.725
536.41261	51093.025
540.46441	50780.725
544.51333	50923.425
548.55936	51442.225
552.60252	52074.925
556.64279	52727.825
560.6802	53224.725
564.71473	53560.925
568.7464	54111.325
572.7752	54884.325
576.80114	55549.225
580.82422	56292.025
584.84444	56801.725
588.86181	57045.925
592.87633	57253.825
596.888	57331.825
600.89682	57845.925
604.9028	59924.625
608.90594	64864.325
612.90624	69042.325
616.90371	64651.725
620.89834	56507.025
624.89015	53362.825
628.87913	53138.025
632.86528	53689.425
636.84862	54005.125
640.82913	53525.825
644.80683	52553.925
648.78172	51948.625
652.75379	51978.825
656.72306	52667.525
660.68952	53480.425
664.65319	53210.925
668.61405	52725.125
672.57211	52758.025
676.52738	52832.525
680.47986	52632.325
684.42955	52421.525
688.37646	52351.925
692.32058	52602.425
696.26192	53040.925
700.20048	53531.225
704.13626	53907.825
708.06928	53864.325
711.99952	53613.625
715.927	53493.425
719.85171	53400.025
723.77365	53418.225
727.69284	53064.225
731.60928	52727.025
735.52295	52606.125
739.43388	52692.525
743.34206	52813.525
747.24749	52842.125
751.15017	53152.225
755.05012	53680.625
758.94733	55091.825
762.8418	57635.325
766.73354	61408.425
770.62254	64405.325
774.50882	64654.925
778.39237	62407.025
782.27321	59196.325
786.15132	56399.925
790.02671	54594.425
793.89938	53550.325
797.76935	53126.125
801.6366	52865.625
805.50115	52701.325
809.36299	52583.125
813.22213	52403.225
817.07857	52320.025
820.93231	52355.925
824.78336	52475.325
828.63172	52464.025
832.47738	52409.325
836.32036	52389.525
840.16066	52358.925
843.99827	52307.625
847.8332	52411.425
851.66546	52508.025
855.49504	52643.925
859.32195	52652.525
863.1462	52639.425
866.96777	52652.225
870.78668	52659.025
874.60293	52741.425
878.41652	52874.025
882.22745	53051.225
886.03573	53214.625
889.84136	53154.925
893.64433	53038.825
897.44466	52967.425
901.24235	52941.025
905.0374	52857.625
908.8298	52784.025
912.61957	52796.725
916.40671	53029.025
920.19121	53228.725
923.97308	53500.225
927.75233	53615.425
931.52895	53452.625
935.30295	53113.625
939.07433	52430.725
942.84309	52045.825
946.60924	51794.125
950.37278	51615.025
954.13371	51571.625
957.89203	51618.925
961.64774	51623.225
965.40086	51517.225
969.15137	51419.425
972.89929	51360.225
976.64461	51355.025
980.38733	51335.125
984.12747	51376.025
987.86502	51549.025
991.59999	51687.525
995.33237	51881.125
999.06217	52238.425
1002.78939	52806.725
1006.51404	53338.425
1010.23611	53800.925
1013.95561	54163.425
1017.67255	54182.325
1021.38692	54014.925
1025.09872	53596.725
1028.80796	53150.225
1032.51465	53015.125
1036.21877	53135.725
1039.92035	53260.025
1043.61937	53504.625
1047.31584	53654.825
1051.00976	53724.625
1054.70114	54013.925
1058.38998	54156.825
1062.07627	54600.225
1065.76003	55162.325
1069.44126	55679.625
1073.11995	56381.525
1076.79611	57083.525
1080.46974	57352.425
1084.14085	57627.225
1087.80943	58013.925
1091.47549	58300.125
1095.13903	58097.825
1098.80005	57587.525
1102.45857	56903.325
1106.11456	56401.125
1109.76805	55909.625
1113.41903	55879.725
1117.06751	56219.625
1120.71348	56767.325
1124.35696	57332.525
1127.99793	57828.025
1131.63641	57768.425
1135.2724	57233.525
1138.90589	56836.525
1142.5369	56543.725
1146.16542	56521.325
1149.79145	56527.925
1153.415	56615.825
1157.03607	56797.125
1160.65467	57435.425
1164.27079	58663.425
1167.88443	60216.425
1171.49561	62430.725
1175.10432	65315.625
1178.71056	68890.225
1182.31434	72020.025
1185.91565	73481.825
1189.51451	73755.725
1193.11091	72999.025
1196.70485	71512.225
1200.29634	69682.225
1203.88538	67800.925
1207.47197	65933.725
1211.05612	64188.125
1214.63782	62982.325
1218.21708	62043.125
1221.79391	61219.125
1225.36829	60712.025
1228.94024	60480.325
1232.50976	60383.225
1236.07685	60311.225
1239.6415	60323.925
1243.20374	60440.325
1246.76355	60673.125
1250.32093	61126.625
1253.8759	61687.425
1257.42845	62683.725
1260.97859	63914.025
1264.52631	65117.925
1268.07163	66165.825
1271.61453	67053.625
1275.15503	67822.125
1278.69312	68605.425
1282.22882	69259.325
1285.76211	70165.725
1289.29301	71336.025
1292.82151	72564.225
1296.34761	74136.625
1299.87133	76251.025
1303.39266	78911.225
1306.9116	82131.325
1310.42815	85100.225
1313.94233	86418.825
1317.45412	85661.525
1320.96354	84111.725
1324.47058	82834.425
1327.97525	81676.225
1331.47754	81092.825
1334.97747	81163.725
1338.47502	81858.425
1341.97022	83105.925
1345.46305	84993.225
1348.95352	86836.425
1352.44163	88087.625
1355.92738	89190.925
1359.41078	91213.325
1362.89183	93025.625
1366.37053	90698.725
1369.84688	84097.425
1373.32088	77324.525
1376.79254	72638.525
1380.26186	70262.225
1383.72883	68982.725
1387.19347	68019.925
1390.65578	66945.525
1394.11575	66125.225
1397.57339	65419.425
1401.0287	64981.125
1404.48168	64764.525
1407.93234	64433.125
1411.38068	64172.325
1414.82669	63522.325
1418.27039	62645.025
1421.71177	61762.925
1425.15083	61051.625
1428.58758	60552.425
1432.02203	60744.625
1435.45416	61209.725
1438.88399	61747.225
1442.31151	62178.425
1445.73673	62613.725
1449.15965	62968.725
1452.58027	63246.925
1455.9986	63359.925
1459.41463	63712.025
1462.82837	64410.625
1466.23982	65282.525
1469.64898	66261.725
1473.05586	66978.725
1476.46045	67443.125
1479.86276	67779.525
1483.26279	68065.825
1486.66054	68726.425
1490.05602	69708.025
1493.44922	71245.425
1496.84016	73608.425
1500.22882	77141.025
1503.61521	81564.525
1506.99934	85668.625
1510.38121	88029.225
1513.76081	87335.425
1517.13816	83872.525
1520.51324	79433.025
1523.88607	75908.325
1527.25665	73777.925
1530.62498	72682.625
1533.99105	71814.425
1537.35488	70953.125
1540.71647	69972.325
1544.07581	69071.225
1547.4329	67982.625
1550.78776	67180.425
1554.14038	66719.625
1557.49077	66586.925
1560.83892	66759.725
1564.18484	67312.225
1567.52853	68027.725
1570.86999	68628.625
1574.20922	69049.425
1577.54624	68982.125
1580.88103	67789.225
1584.2136	66615.525
1587.54395	66054.725
1590.87208	66485.225
1594.19801	68064.025
1597.52172	69856.125
1600.84321	70304.625
1604.16251	69217.025
1607.47959	67441.225
1610.79447	65073.825
1614.10715	62590.325
1617.41763	60098.625
1620.7259	58182.825
1624.03199	57019.825
1627.33587	56731.525
1630.63757	57234.325
1633.93707	58684.525
1637.23439	61426.925
1640.52951	65663.325
1643.82246	70850.625
1647.11321	75404.325
1650.40179	77380.525
1653.68819	74776.725
1656.97241	68896.325
1660.25446	62557.025
1663.53433	57742.325
1666.81203	54535.425
1670.08756	52514.425
1673.36092	51240.125
1676.63211	50419.625
1679.90115	49783.325
1683.16801	49257.825
1686.43272	48812.125
1689.69527	48500.425
1692.95567	48218.125
1696.2139	48043.425
1699.46999	47935.225
1702.72392	47884.225
1705.97571	47821.525
1709.22535	47777.425
1712.47284	47722.425
1715.71819	47679.825
1718.96139	47679.925
1722.20246	47503.225
1725.44139	47396.525
1728.67818	47195.925
1731.91284	47022.125
1735.14537	46833.525
1738.37576	46716.025
1741.60403	46580.825
1744.83017	46411.825
1748.05418	46302.725
1751.27607	46254.425
1754.49584	46173.725
1757.71349	46147.525
1760.92903	46084.625
1764.14244	46051.925
1767.35375	45988.825
1770.56294	45940.525
1773.77002	45910.925
1776.97499	45855.625
1780.17785	45721.425
1783.37861	45706.025
1786.57727	45549.325
1789.77382	45472.825
1792.96828	45413.025
1796.16064	45343.925
1799.3509	45287.625
1802.53907	45144.325
1805.72514	45052.125
1808.90913	45023.825
1812.09102	44963.625
1815.27083	44875.125
1818.44856	44831.125
1821.6242	44770.225
1824.79776	44671.425
1827.96924	44544.025
1831.13864	44536.625
1834.30597	44520.525
1837.47122	44456.625
1840.6344	44402.725
1843.7955	44332.625
1846.95454	44310.625
1850.11151	44381.025
1853.26642	44304.525
1856.41926	44298.925
1859.57004	44267.425
1862.71876	44226.325
1865.86542	44234.225
1869.01003	44176.125
1872.15258	44084.725
1875.29308	44037.825
1878.43152	43888.625
1881.56792	43883.225
1884.70227	43780.325
1887.83457	43763.925
1890.96482	43730.825
1894.09304	43655.425
1897.21921	43640.825
1900.34335	43525.125
1903.46544	43392.325
1906.58551	43356.425
1909.70353	43355.725
1912.81953	43296.725
1915.93349	43199.825
1919.04543	43081.125
1922.15534	43017.925
1925.26322	42939.925
1928.36908	42900.625
1931.47292	42893.825
1934.57473	42735.225
1937.67453	42609.125
1940.77232	42527.325
1943.86808	42339.325
1946.96184	42245.725
1950.05358	42114.425
1953.14331	41922.525
1956.23103	41749.525
1959.31675	41672.025
1962.40046	41590.025
1965.48217	41452.025
1968.56188	41357.725
1971.63959	41230.325
1974.7153	41117.825
1977.78901	40945.325
1980.86073	40853.425
1983.93046	40738.025
1986.99819	40577.725
1990.06394	40497.225
1993.1277	40380.525
1996.18947	40255.625
1999.24925	40205.125
2002.30706	40056.725
2005.36288	39921.425
2008.41672	39892.625
2011.46859	39772.525
2014.51848	39622.525
2017.56639	39576.725
2020.61233	39470.025
2023.6563	39389.125
2026.6983	39224.825
2029.73833	39103.425
2032.7764	38987.225
2035.8125	38919.825
2038.84664	38821.825
2041.87881	38761.825
2044.90903	38635.925
2047.93729	38546.725
2050.96359	38505.925
2053.98794	38492.125
2057.01034	38426.325
2060.03078	38430.425
2063.04927	38434.925
2066.06582	38406.425
2069.08042	38388.725
2072.09307	38322.425
2075.10378	38340.125
2078.11255	38313.925
2081.11938	38253.225
2084.12426	38200.425
2087.12722	38209.825
2090.12824	38190.625
2093.12732	38208.025
2096.12447	38194.625
2099.11969	38154.625
2102.11299	38214.925
2105.10435	38187.425
2108.09379	38181.525
2111.08131	38207.425
2114.0669	38205.625
2117.05057	38154.425
2120.03233	38189.025
2123.01216	38243.625
2125.99008	38248.725
2128.96609	38362.725
2131.94018	38488.125
2134.91236	38465.625
2137.88263	38505.425
2140.851	38498.125
2143.81746	38534.225
2146.78201	38565.125
2149.74466	38540.625
2152.7054	38509.725
2155.66425	38498.425
2158.6212	38379.525
2161.57625	38349.725
2164.52941	38369.325
2167.48067	38429.325
2170.43004	38394.825
2173.37752	38365.525
2176.32311	38341.625
2179.26681	38290.925
2182.20863	38252.725
2185.14856	38245.825
2188.08661	38262.225
2191.02278	38229.925
2193.95707	38218.825
2196.88948	38212.625
2199.82001	38152.625
2202.74867	38092.925
2205.67545	38046.425
2208.60037	37975.325
2211.52341	37932.425
2214.44458	37871.425
2217.36388	37770.425
2220.28132	37695.625
2223.1969	37582.125
2226.11061	37569.825
2229.02246	37398.925
2231.93245	37336.525
2234.84058	37319.825
2237.74686	37287.625
2240.65128	37231.925
2243.55385	37142.525
2246.45456	37153.725
2249.35343	36985.325
2252.25044	37002.125
2255.14561	36951.925
2258.03893	36902.025
2260.93041	36824.725
2263.82004	36786.325
2266.70783	36703.725
2269.59378	36640.925
2272.4779	36572.125
2275.36017	36520.325
2278.24061	36473.825
2281.11922	36343.525
2283.996	36295.725
2286.87094	36260.825
2289.74405	36111.525
2292.61534	36150.225
2295.4848	36105.625
2298.35243	36125.625
2301.21824	36102.025
2304.08223	36045.425
2306.94439	35969.025
2309.80474	35882.025
2312.66327	35854.225
2315.51999	35860.925
2318.37489	35839.425
2321.22797	35799.325
2324.07925	35716.525
2326.92871	35628.225
2329.77637	35597.725
2332.62222	35546.825
2335.46626	35436.625
2338.3085	35339.425
2341.14893	35300.825
2343.98756	35279.125
2346.8244	35317.025
2349.65943	35365.325
2352.49267	35337.425
2355.32411	35293.525
2358.15376	35276.525
2360.98161	35216.425
2363.80768	35242.125
2366.63195	35225.025
2369.45444	35194.625
2372.27514	35170.825
2375.09405	35075.825
2377.91118	35032.525
2380.72652	34887.625
2383.54009	34797.125
2386.35187	34787.825
2389.16188	34746.225
2391.97011	34656.525
2394.77657	34563.025
2397.58125	34527.125
2400.38416	34461.225
2403.18529	34416.725
2405.98466	34440.325
2408.78226	34314.925
2411.57809	34268.725
2414.37216	34130.925
2417.16446	34122.625
2419.955	34098.925
2422.74378	34051.725
2425.5308	34060.025
2428.31606	34028.925
2431.09956	33969.125
2433.88131	33917.425
2436.6613	33892.025
2439.43954	33862.125
2442.21603	33912.825
2444.99077	33792.925
2447.76377	33785.625
2450.53501	33783.025
2453.30451	33779.025
2456.07226	33664.725
2458.83827	33641.025
2461.60254	33643.725
2464.36507	33610.325
2467.12586	33557.125
2469.88492	33545.525
2472.64224	33510.525
2475.39782	33456.225
2478.15167	33506.125
2480.90379	33487.925
2483.65417	33500.025
2486.40283	33492.925
2489.14976	33520.725
2491.89497	33456.725
2494.63845	33450.425
2497.3802	33411.925
2500.12024	33440.825
2502.85855	33365.025
2505.59514	33318.825
2508.33002	33189.725
2511.06318	33137.725
2513.79462	33069.825
2516.52435	32976.325
2519.25237	33034.225
2521.97867	33016.125
2524.70327	32969.425
2527.42616	32911.225
2530.14734	32861.625
2532.86681	32802.325
2535.58458	32780.525
2538.30065	32748.025
2541.01501	32749.825
2543.72768	32741.925
2546.43864	32660.225
2549.14791	32549.525
2551.85548	32557.725
2554.56136	32442.525
2557.26554	32368.125
2559.96803	32326.825
2562.66883	32257.925
2565.36794	32121.525
2568.06536	32182.225
2570.7611	32067.625
2573.45514	31988.725
2576.14751	31983.625
2578.83819	31875.125
2581.52719	31853.925
2584.21451	31796.225
2586.90015	31717.025
2589.58411	31668.725
2592.2664	31673.125
2594.94701	31571.225
2597.62594	31588.325
2600.30321	31525.925
2602.9788	31466.525
2605.65273	31381.625
2608.32498	31369.125
2610.99557	31283.625
2613.66449	31296.825
2616.33175	31257.325
2618.99734	31263.625
2621.66128	31209.125
2624.32355	31103.325
2626.98416	31067.825
2629.64311	30964.825
2632.30041	30956.625
2634.95605	30880.825
2637.61004	30837.125
2640.26238	30791.925
2642.91306	30821.925
2645.56209	30755.925
2648.20948	30749.825
2650.85521	30715.325
2653.4993	30707.725
2656.14175	30733.825
2658.78255	30716.325
2661.42171	30748.925
2664.05923	30764.025
2666.6951	30784.725
2669.32934	30794.925
2671.96194	30715.025
2674.59291	30720.325
2677.22224	30663.625
2679.84993	30671.525
2682.476	30649.925
2685.10043	30655.325
2687.72324	30592.225
2690.34441	30593.725
2692.96396	30592.425
2695.58188	30616.425
2698.19818	30616.725
2700.81285	30577.225
2703.4259	30493.325
2706.03733	30518.025
2708.64714	30547.125
2711.25533	30548.725
2713.86191	30560.225
2716.46687	30563.825
2719.07021	30568.925
2721.67194	30605.725
2724.27206	30573.825
2726.87057	30584.525
2729.46747	30553.025
2732.06276	30590.125
2734.65644	30596.625
2737.24852	30605.125
2739.83899	30477.525
2742.42786	30440.225
2745.01513	30357.025
2747.60079	30339.625
2750.18486	30340.625
2752.76733	30381.525
2755.3482	30221.925
2757.92747	30258.025
2760.50515	30159.625
2763.08123	30128.125
2765.65573	30037.025
2768.22863	30067.625
2770.79994	30043.125
2773.36967	30031.025
2775.9378	29928.025
2778.50435	29863.125
2781.06932	29761.325
2783.6327	29752.825
2786.1945	29710.125
2788.75471	29690.325
2791.31335	29622.725
2793.87041	29605.725
2796.42589	29530.125
2798.97979	29533.625
2801.53212	29452.425
2804.08288	29482.925
2806.63206	29372.425
2809.17967	29288.125
2811.72571	29170.025
2814.27018	29169.325
2816.81308	29062.825
2819.35442	29007.925
2821.89419	28929.325
2824.43239	28928.625
2826.96904	28925.125
2829.50412	28877.325
2832.03763	28819.325
2834.56959	28804.325
2837.1	28729.625
2839.62884	28676.525
2842.15613	28624.625
2844.68186	28593.925
2847.20604	28554.525
2849.72867	28580.525
2852.24974	28518.625
2854.76927	28500.925
2857.28724	28479.725
2859.80367	28440.525
2862.31855	28348.025
2864.83189	28323.925
2867.34368	28277.925
2869.85393	28204.425
2872.36264	28183.325
2874.8698	28116.025
2877.37543	28107.125
2879.87952	28052.725
2882.38207	28000.025
2884.88308	28015.425
2887.38256	28081.125
2889.88051	28064.725
2892.37692	28051.125
2894.8718	28016.825
2897.36515	28004.525
2899.85698	28039.125
2902.34727	28041.025
2904.83604	28079.625
2907.32328	28106.225
2909.809	28147.925
2912.29319	28149.925
2914.77587	28137.325
2917.25702	28159.625
2919.73665	28124.725
2922.21476	28134.025
2924.69136	28026.825
2927.16644	27993.825
2929.64	27968.725
2932.11205	27911.525
2934.58258	27776.325
2937.05161	27774.425
2939.51912	27800.225
2941.98513	27759.125
2944.44962	27690.625
2946.91261	27625.425
2949.37409	27784.325
2951.83407	27720.825
2954.29254	27741.225
2956.74951	27723.025
2959.20498	27680.525
2961.65895	27650.325
2964.11142	27702.625
2966.56239	27626.625
2969.01186	27630.325
2971.45984	27587.225
2973.90632	27575.325
2976.35131	27551.925
2978.7948	27539.425
2981.23681	27470.425
2983.67732	27425.125
2986.11635	27370.325
2988.55388	27311.225
2990.98993	27301.325
2993.4245	27202.725
2995.85758	27141.025
2998.28917	27053.125
3000.71928	26931.025
3003.14791	26906.425
3005.57506	26829.325
3008.00073	26704.925
3010.42493	26733.225
3012.84764	26641.425
3015.26888	26638.525
3017.68865	26535.925
3020.10694	26519.925
3022.52376	26498.425
3024.9391	26474.925
3027.35298	26459.425
3029.76539	26426.425
3032.17632	26394.225
3034.5858	26383.525
3036.9938	26320.625
3039.40034	26303.325
3041.80542	26297.125
3044.20903	26160.025
3046.61118	26167.825
3049.01187	26094.225
3051.4111	26074.325
3053.80888	26066.225
3056.20519	26038.825
3058.60005	25952.725
3060.99345	25869.025
3063.3854	25777.125
3065.7759	25724.525
3068.16494	25623.425
3070.55254	25596.025
3072.93868	25526.225
3075.32338	25448.525
3077.70662	25387.125
3080.08842	25309.625
3082.46878	25353.825
3084.84769	25300.025
3087.22515	25366.425
3089.60118	25280.525
3091.97576	25199.325
3094.3489	25175.425
3096.72061	25196.325
3099.09087	25182.625
3101.4597	25157.225
3103.82709	25178.225
3106.19305	25152.925
3108.55757	25171.825
3110.92066	25122.425
3113.28232	25109.525
3115.64255	25057.025
3118.00134	24980.225
3120.35871	24921.825
3122.71466	24840.925
3125.06917	24772.025
3127.42226	24668.125
3129.77393	24698.625
3132.12417	24674.725
3134.47299	24577.525
3136.82039	24549.425
3139.16636	24510.025
3141.51092	24551.625
3143.85406	24578.125
3146.19579	24525.625
3148.53609	24536.025
3150.87499	24579.225
3153.21246	24583.125
3155.54853	24597.625
3157.88318	24524.425
3160.21642	24522.025
3162.54826	24567.325
3164.87868	24541.325
3167.2077	24546.825
3169.5353	24563.325
3171.86151	24508.025
3174.18631	24434.025
3176.5097	24424.025
3178.83169	24347.925
3181.15228	24422.825
3183.47147	24337.325
3185.78926	24246.425
3188.10565	24208.825
3190.42065	24172.125
3192.73424	24133.125
3195.04645	24139.625
3197.35725	24117.425
3199.66667	24072.925
3201.97469	24109.325
3204.28132	24050.925
3206.58656	24097.925
3208.8904	24047.125
3211.19287	24106.125
3213.49394	24039.525
3215.79363	24027.025
3218.09193	24066.725
3220.38884	24064.025
3222.68438	24041.925
3224.97853	23984.125
3227.2713	24024.425
3229.56269	23973.225
3231.8527	23954.425
3234.14133	23932.925
3236.42858	23882.325
3238.71446	23860.125
3240.99896	23754.525
3243.28209	23767.325
3245.56384	23665.225
3247.84423	23613.325
3250.12324	23600.725
3252.40088	23587.125
3254.67715	23582.125
3256.95205	23559.625
3259.22558	23532.625
3261.49775	23540.625
3263.76855	23501.525
3266.03799	23452.225
3268.30606	23451.225
3270.57277	23405.425
3272.83812	23302.625
3275.10211	23265.825
3277.36474	23211.525
3279.62601	23207.425
3281.88593	23177.525
3284.14448	23176.925
3286.40168	23195.325
3288.65753	23138.225
3290.91202	23106.725
3293.16516	23085.125
3295.41695	23043.925
3297.66738	22928.025
3299.91647	22835.225
3302.16421	22667.525
3304.4106	22579.325
3306.65564	22462.125
3308.89933	22283.725
3311.14169	22134.525
3313.38269	21956.025
3315.62236	21857.825
3317.86068	21740.425
3320.09766	21591.225
3322.3333	21419.525
3324.5676	21313.025
3326.80056	21004.425
3329.03219	20882.925
3331.26248	4.625
3333.49143	-0.575
3335.71905	-0.275
