Data from AgNPs_UA_2uM_CRN_0uM_R6G_10uM_Q_RamanShift__14__13-17-21-913.txt Node

Date: Wed Jul 13 13:17:21 BST 2022
User: TCL
Spectrometer: QEP01345
Trigger mode: 4
Integration Time (sec): 7.000000E0
Scans to average: 10
Electric dark correction enabled: true
Nonlinearity correction enabled: false
Boxcar width: 0
XAxis mode: Raman Shifts
Number of Pixels in Spectrum: 1044
>>>>>Begin Spectral Data<<<<<
46.04893	-1.7
50.45542	-2.2
54.85868	-1.3
59.25871	-2.1
63.6555	146.3
68.04907	155.6
72.43941	158.1
76.82654	161.9
81.21044	166.8
85.59113	176.7
89.96862	181.9
94.34289	183
98.71396	192.2
103.08183	196.5
107.4465	203.9
111.80798	210.6
116.16626	218.7
120.52136	230.6
124.87327	233.5
129.222	247.4
133.56755	263
137.90993	286.7
142.24913	312.8
146.58517	351
150.91804	402.8
155.24774	479
159.57429	588.9
163.89768	757.9
168.21792	1000.2
172.53501	1357.2
176.84895	1897.5
181.15975	2683.2
185.46741	3784
189.77193	5228.9
194.07331	6980.9
198.37157	8996.2
202.6667	11137.5
206.9587	13227.8
211.24758	15285
215.53334	17321
219.81599	19454.4
224.09553	21814.9
228.37195	24388.6
232.64527	27239.7
236.91549	30265.2
241.18261	33406.2
245.44663	36360.8
249.70755	39115.4
253.96539	41568.1
258.22014	43668.8
262.4718	45324.9
266.72039	46441
270.96589	46984.1
275.20832	47067
279.44768	46793.4
283.68397	46407.6
287.91719	45984.6
292.14735	45646.1
296.37445	45464.9
300.59849	45460.8
304.81948	45522.9
309.03742	45651.9
313.25231	45610.4
317.46415	45367.8
321.67296	44841.9
325.87872	44510.4
330.08145	44456.6
334.28114	44650.8
338.47781	45178.5
342.67145	45716.1
346.86207	46429.6
351.04966	47223.1
355.23424	47934
359.4158	48588.4
363.59435	49182.1
367.76989	49635.1
371.94243	49952.8
376.11196	50252.5
380.27849	50517.8
384.44203	50818.4
388.60257	51232.2
392.76012	51715.6
396.91468	52273.8
401.06626	52924.5
405.21485	53384.6
409.36047	53404.9
413.50311	53092.3
417.64277	52926.1
421.77947	52992.9
425.9132	53257.9
430.04396	53663.9
434.17176	53973
438.2966	54362.9
442.41849	54856.9
446.53742	55618.9
450.6534	56372.9
454.76644	56941.3
458.87653	57259.4
462.98368	57393.1
467.08789	57444.6
471.18916	57368
475.2875	57146
479.38291	56997.2
483.4754	56807
487.56496	56773.2
491.6516	56832.8
495.73531	56724.6
499.81612	56722.6
503.89401	56981.9
507.96899	57267.6
512.04106	57370.2
516.11023	57447.7
520.1765	57467
524.23987	57518
528.30034	57470.1
532.35792	57416.4
536.41261	57321.2
540.46441	57124.8
544.51333	57236.6
548.55936	57578.9
552.60252	57983.4
556.64279	58612
560.6802	58979.2
564.71473	59299.6
568.7464	59800.5
572.7752	60509.1
576.80114	61076.2
580.82422	61744.5
584.84444	62368
588.86181	62824.6
592.87633	63169.9
596.888	63357.4
600.89682	63507.7
604.9028	64870.5
608.90594	67894.9
612.90624	70454.6
616.90371	67628.6
620.89834	62609.5
624.89015	60774.3
628.87913	60707.8
632.86528	61263.8
636.84862	61445.3
640.82913	61202.6
644.80683	60650.5
648.78172	60365.4
652.75379	60415.7
656.72306	60988.2
660.68952	61462.3
664.65319	61390.4
668.61405	61193.1
672.57211	61268.8
676.52738	61473.9
680.47986	61450.3
684.42955	61356.9
688.37646	61328.6
692.32058	61588.8
696.26192	61964
700.20048	62409.1
704.13626	62775.4
708.06928	62934.8
711.99952	62898.7
715.927	62804.2
719.85171	62860
723.77365	62842.7
727.69284	62671.6
731.60928	62484.7
735.52295	62465.9
739.43388	62581.1
743.34206	62760.5
747.24749	62860.3
751.15017	63083.6
755.05012	63603.5
758.94733	64357.4
762.8418	66009.1
766.73354	68451.5
770.62254	70316.3
774.50882	70548.5
778.39237	69244.7
782.27321	67425.2
786.15132	65735.5
790.02671	64696.9
793.89938	64027.6
797.76935	63756.8
801.6366	63570.3
805.50115	63455
809.36299	63527.8
813.22213	63522.6
817.07857	63579.1
820.93231	63563.6
824.78336	63627.3
828.63172	63780.3
832.47738	63835
836.32036	63846.7
840.16066	63839.3
843.99827	63924.9
847.8332	64043.9
851.66546	64162.8
855.49504	64268.1
859.32195	64493.8
863.1462	64457.4
866.96777	64631.9
870.78668	64616.4
874.60293	64826
878.41652	64982.4
882.22745	65213
886.03573	65341.5
889.84136	65390.1
893.64433	65343.5
897.44466	65278.5
901.24235	65264.4
905.0374	65232.3
908.8298	65181.9
912.61957	65164.9
916.40671	65357.4
920.19121	65669.4
923.97308	65860.3
927.75233	65834.4
931.52895	65678.3
935.30295	65401.5
939.07433	64993.1
942.84309	64699.8
946.60924	64575
950.37278	64531.2
954.13371	64397.4
957.89203	64351.8
961.64774	64347.7
965.40086	64325.6
969.15137	64269.5
972.89929	64188.2
976.64461	64123.3
980.38733	64136.9
984.12747	64146.8
987.86502	64350.3
991.59999	64500.6
995.33237	64770.7
999.06217	65002.7
1002.78939	65391.7
1006.51404	65886.7
1010.23611	66323.8
1013.95561	66618.9
1017.67255	66634.9
1021.38692	66595
1025.09872	66290.4
1028.80796	66050.2
1032.51465	65880.5
1036.21877	65970.1
1039.92035	66006.6
1043.61937	66148.4
1047.31584	66290.4
1051.00976	66437.6
1054.70114	66631.6
1058.38998	66959.9
1062.07627	67312.1
1065.76003	67669.6
1069.44126	68167.7
1073.11995	68800.9
1076.79611	69311.4
1080.46974	69577.3
1084.14085	69740.3
1087.80943	69985.2
1091.47549	70088.4
1095.13903	70059.4
1098.80005	69810.5
1102.45857	69475.1
1106.11456	69094.2
1109.76805	68628
1113.41903	68442.5
1117.06751	68465.4
1120.71348	68760.9
1124.35696	69172.8
1127.99793	69482.8
1131.63641	69454.9
1135.2724	69208.5
1138.90589	68982.7
1142.5369	68938.6
1146.16542	68930.1
1149.79145	68948.7
1153.415	68826
1157.03607	68820.1
1160.65467	69201.2
1164.27079	69986.4
1167.88443	71046
1171.49561	72436.8
1175.10432	74354
1178.71056	76639
1182.31434	78464.9
1185.91565	79439.8
1189.51451	79613.7
1193.11091	79188.7
1196.70485	78389
1200.29634	77276.5
1203.88538	76318.3
1207.47197	75415.1
1211.05612	74581.2
1214.63782	73961.2
1218.21708	73170.7
1221.79391	72502.2
1225.36829	72100.8
1228.94024	71839.3
1232.50976	71766.3
1236.07685	71795.4
1239.6415	71837.7
1243.20374	71909.2
1246.76355	72157.5
1250.32093	72405.3
1253.8759	72898.7
1257.42845	73696.8
1260.97859	74618.5
1264.52631	75392.5
1268.07163	76034.1
1271.61453	76557.3
1275.15503	77088.7
1278.69312	77564.5
1282.22882	78016
1285.76211	78670
1289.29301	79481.7
1292.82151	80432.6
1296.34761	81549
1299.87133	83049.5
1303.39266	84831.7
1306.9116	86831.4
1310.42815	88854.5
1313.94233	89697
1317.45412	89158.1
1320.96354	88056.5
1324.47058	87087.1
1327.97525	86249.8
1331.47754	85719.1
1334.97747	85573.5
1338.47502	85582.4
1341.97022	86359.6
1345.46305	87646.2
1348.95352	88949.7
1352.44163	89743.8
1355.92738	90292.8
1359.41078	91352
1362.89183	92306.1
1366.37053	90831.1
1369.84688	86859
1373.32088	82330.6
1376.79254	79222.7
1380.26186	77571.4
1383.72883	76762.4
1387.19347	76133.7
1390.65578	75400.9
1394.11575	74693
1397.57339	74216.1
1401.0287	73876.4
1404.48168	73618.2
1407.93234	73490.5
1411.38068	73216.1
1414.82669	72698.7
1418.27039	72018.3
1421.71177	71263.8
1425.15083	70766.2
1428.58758	70537.8
1432.02203	70698.7
1435.45416	70983
1438.88399	71328
1442.31151	71649.5
1445.73673	71963
1449.15965	72214
1452.58027	72366.3
1455.9986	72432.3
1459.41463	72621.5
1462.82837	73075.8
1466.23982	73677.4
1469.64898	74257.2
1473.05586	74724
1476.46045	75077.3
1479.86276	75182.6
1483.26279	75511.2
1486.66054	75857.9
1490.05602	76449.5
1493.44922	77481.3
1496.84016	78935.3
1500.22882	81067
1503.61521	83600.7
1506.99934	85993
1510.38121	87516.3
1513.76081	87289.5
1517.13816	85323.4
1520.51324	82805.2
1523.88607	80763.9
1527.25665	79549.7
1530.62498	78998.7
1533.99105	78597.6
1537.35488	78063.3
1540.71647	77379.2
1544.07581	76789.1
1547.4329	76216.6
1550.78776	75692.6
1554.14038	75328.7
1557.49077	75241
1560.83892	75231.8
1564.18484	75595.4
1567.52853	75985.9
1570.86999	76425.1
1574.20922	76817.8
1577.54624	76847.7
1580.88103	76184.6
1584.2136	75516.7
1587.54395	75238.6
1590.87208	75818
1594.19801	76960.6
1597.52172	78239.7
1600.84321	78554.4
1604.16251	77758.9
1607.47959	76529.7
1610.79447	74916.1
1614.10715	72857.8
1617.41763	71042.4
1620.7259	69726
1624.03199	68881.5
1627.33587	68718.6
1630.63757	68909.4
1633.93707	69984.3
1637.23439	71857.8
1640.52951	74941.2
1643.82246	78737.4
1647.11321	82020.7
1650.40179	83246.1
1653.68819	81363.4
1656.97241	77331.7
1660.25446	72940.5
1663.53433	69600.6
1666.81203	67303.8
1670.08756	65939.4
1673.36092	64941.4
1676.63211	64233.7
1679.90115	63810.4
1683.16801	63453.9
1686.43272	63109.1
1689.69527	62895.6
1692.95567	62737.3
1696.2139	62734.8
1699.46999	62633.9
1702.72392	62621.4
1705.97571	62577.3
1709.22535	62615.1
1712.47284	62496.5
1715.71819	62602.8
1718.96139	62507.1
1722.20246	62438.6
1725.44139	62266.8
1728.67818	62192.7
1731.91284	62098.9
1735.14537	61859.6
1738.37576	61783.6
1741.60403	61579.4
1744.83017	61510.4
1748.05418	61438.2
1751.27607	61375.3
1754.49584	61334.1
1757.71349	61282.9
1760.92903	61268.2
1764.14244	61133.1
1767.35375	61104.9
1770.56294	61063
1773.77002	61049.2
1776.97499	60945.4
1780.17785	60953.5
1783.37861	60895.6
1786.57727	60824.9
1789.77382	60767.7
1792.96828	60703
1796.16064	60634.6
1799.3509	60577.5
1802.53907	60500
1805.72514	60472.7
1808.90913	60224.8
1812.09102	60178.1
1815.27083	60001
1818.44856	59973.5
1821.6242	59932.7
1824.79776	59788.8
1827.96924	59794.4
1831.13864	59716.3
1834.30597	59629.4
1837.47122	59633.7
1840.6344	59564
1843.7955	59527.8
1846.95454	59465.1
1850.11151	59468.4
1853.26642	59389.2
1856.41926	59317.7
1859.57004	59412.2
1862.71876	59327.2
1865.86542	59306.1
1869.01003	59195.3
1872.15258	59139.5
1875.29308	59077.3
1878.43152	58966.3
1881.56792	58955.2
1884.70227	58899.6
1887.83457	58815.4
1890.96482	58720.8
1894.09304	58620
1897.21921	58652.3
1900.34335	58577.3
1903.46544	58465.1
1906.58551	58473.2
1909.70353	58403.9
1912.81953	58318.8
1915.93349	58269.3
1919.04543	58123.5
1922.15534	58018
1925.26322	57951.8
1928.36908	57863.7
1931.47292	57847.4
1934.57473	57769.5
1937.67453	57603.3
1940.77232	57487.3
1943.86808	57284.5
1946.96184	57212.4
1950.05358	57067.6
1953.14331	56939.3
1956.23103	56772.8
1959.31675	56665.4
1962.40046	56507.8
1965.48217	56319.4
1968.56188	56124.7
1971.63959	55922.5
1974.7153	55788.1
1977.78901	55634.1
1980.86073	55393.8
1983.93046	55272.4
1986.99819	55157.8
1990.06394	54985
1993.1277	54858.8
1996.18947	54693
1999.24925	54668.4
2002.30706	54547.3
2005.36288	54380.4
2008.41672	54254.9
2011.46859	53995.6
2014.51848	53881.1
2017.56639	53735
2020.61233	53629.9
2023.6563	53482.5
2026.6983	53275.7
2029.73833	53194.1
2032.7764	53064.1
2035.8125	52923.6
2038.84664	52800.6
2041.87881	52738.3
2044.90903	52585.9
2047.93729	52522.8
2050.96359	52522
2053.98794	52386.8
2057.01034	52424.8
2060.03078	52408.1
2063.04927	52218.2
2066.06582	52210.5
2069.08042	52192.2
2072.09307	52181.7
2075.10378	52084.7
2078.11255	52141.8
2081.11938	52092.5
2084.12426	51980.1
2087.12722	51929.3
2090.12824	51901.1
2093.12732	51928.3
2096.12447	52009.5
2099.11969	52044.9
2102.11299	52055.5
2105.10435	52034.1
2108.09379	51991.4
2111.08131	52124.2
2114.0669	52110.6
2117.05057	52125.7
2120.03233	52211.9
2123.01216	52220.3
2125.99008	52186.4
2128.96609	52296.2
2131.94018	52401.6
2134.91236	52434.8
2137.88263	52457.5
2140.851	52489.5
2143.81746	52562.6
2146.78201	52561.7
2149.74466	52553.9
2152.7054	52593.7
2155.66425	52553.4
2158.6212	52485
2161.57625	52449.1
2164.52941	52509.1
2167.48067	52575.3
2170.43004	52493.2
2173.37752	52429.3
2176.32311	52414.3
2179.26681	52339.6
2182.20863	52318.2
2185.14856	52345.9
2188.08661	52394.7
2191.02278	52393.1
2193.95707	52332.7
2196.88948	52294.9
2199.82001	52277.8
2202.74867	52171.7
2205.67545	52115.9
2208.60037	52021
2211.52341	51952.6
2214.44458	51887.2
2217.36388	51749.9
2220.28132	51618.5
2223.1969	51425.6
2226.11061	51406.2
2229.02246	51284.1
2231.93245	51218.5
2234.84058	51183.9
2237.74686	51082.3
2240.65128	51087.5
2243.55385	51065.1
2246.45456	51056
2249.35343	50978.1
2252.25044	50926.8
2255.14561	50926.6
2258.03893	50821.1
2260.93041	50697.7
2263.82004	50598
2266.70783	50471.7
2269.59378	50275.3
2272.4779	50152.5
2275.36017	49958.6
2278.24061	49954
2281.11922	49898.9
2283.996	49745.4
2286.87094	49656.9
2289.74405	49544.6
2292.61534	49525.4
2295.4848	49516.9
2298.35243	49517.4
2301.21824	49440.8
2304.08223	49326
2306.94439	49364
2309.80474	49272.3
2312.66327	49262.2
2315.51999	49121.7
2318.37489	49075
2321.22797	49078.1
2324.07925	48952.2
2326.92871	48896
2329.77637	48743
2332.62222	48663.9
2335.46626	48563.9
2338.3085	48594.3
2341.14893	48462.9
2343.98756	48395.2
2346.8244	48323.3
2349.65943	48300
2352.49267	48193
2355.32411	48258.9
2358.15376	48223.8
2360.98161	48180.6
2363.80768	48114
2366.63195	48141.1
2369.45444	48054.2
2372.27514	48029.5
2375.09405	47973.7
2377.91118	47945.7
2380.72652	47840.8
2383.54009	47736
2386.35187	47654.9
2389.16188	47454
2391.97011	47394
2394.77657	47251.6
2397.58125	47190
2400.38416	47154.3
2403.18529	46974.6
2405.98466	46943.1
2408.78226	46831.9
2411.57809	46809.6
2414.37216	46835.1
2417.16446	46766.7
2419.955	46670.9
2422.74378	46630.9
2425.5308	46638.2
2428.31606	46629.8
2431.09956	46530.8
2433.88131	46369.1
2436.6613	46399.5
2439.43954	46352.7
2442.21603	46340.9
2444.99077	46263.1
2447.76377	46238.3
2450.53501	46172
2453.30451	46182.8
2456.07226	46042.8
2458.83827	46010.6
2461.60254	45892.3
2464.36507	45836.7
2467.12586	45751.2
2469.88492	45707.5
2472.64224	45692.8
2475.39782	45698.2
2478.15167	45746.5
2480.90379	45663.1
2483.65417	45632.5
2486.40283	45629.4
2489.14976	45579.6
2491.89497	45517.9
2494.63845	45536.5
2497.3802	45482.7
2500.12024	45430.3
2502.85855	45437.6
2505.59514	45351
2508.33002	45330.5
2511.06318	45264.2
2513.79462	45097.8
2516.52435	44988.4
2519.25237	44958.6
2521.97867	44866.8
2524.70327	44912.7
2527.42616	44777.1
2530.14734	44701.8
2532.86681	44678.4
2535.58458	44565.2
2538.30065	44469.2
2541.01501	44475
2543.72768	44360.2
2546.43864	44375
2549.14791	44231.4
2551.85548	44130.1
2554.56136	44054.8
2557.26554	43939.6
2559.96803	43872.9
2562.66883	43764.3
2565.36794	43752
2568.06536	43666.4
2570.7611	43524.5
2573.45514	43499
2576.14751	43430.1
2578.83819	43322.4
2581.52719	43253.7
2584.21451	43158.1
2586.90015	43097.7
2589.58411	43050.6
2592.2664	42932.7
2594.94701	42817.2
2597.62594	42808.6
2600.30321	42708.1
2602.9788	42638.2
2605.65273	42520.1
2608.32498	42468.5
2610.99557	42413.6
2613.66449	42367.4
2616.33175	42359.4
2618.99734	42397.5
2621.66128	42267.1
2624.32355	42123.7
2626.98416	42043.1
2629.64311	41998.4
2632.30041	41908
2634.95605	41858.5
2637.61004	41741.5
2640.26238	41686.9
2642.91306	41645.3
2645.56209	41623.8
2648.20948	41569.8
2650.85521	41536.1
2653.4993	41527.5
2656.14175	41471.2
2658.78255	41536.5
2661.42171	41501.5
2664.05923	41514.1
2666.6951	41483.7
2669.32934	41433.5
2671.96194	41442.8
2674.59291	41406.3
2677.22224	41412.3
2679.84993	41418.7
2682.476	41339.8
2685.10043	41342
2687.72324	41352.9
2690.34441	41316.2
2692.96396	41289.7
2695.58188	41289.5
2698.19818	41273.7
2700.81285	41326.7
2703.4259	41251.9
2706.03733	41282.3
2708.64714	41261.4
2711.25533	41271.8
2713.86191	41274.2
2716.46687	41246.4
2719.07021	41233.7
2721.67194	41239.1
2724.27206	41167.4
2726.87057	41200.1
2729.46747	41259.9
2732.06276	41282.5
2734.65644	41256.9
2737.24852	41192.5
2739.83899	41086.9
2742.42786	41028.5
2745.01513	40927.4
2747.60079	40829.3
2750.18486	40683.6
2752.76733	40743
2755.3482	40724
2757.92747	40696.3
2760.50515	40523.7
2763.08123	40517.1
2765.65573	40398.6
2768.22863	40401.2
2770.79994	40332.3
2773.36967	40341.1
2775.9378	40228.5
2778.50435	40242.4
2781.06932	40150.9
2783.6327	40050.9
2786.1945	39960
2788.75471	39935.7
2791.31335	39835.1
2793.87041	39789.5
2796.42589	39692
2798.97979	39675.2
2801.53212	39575.6
2804.08288	39493
2806.63206	39319.2
2809.17967	39206.4
2811.72571	39118.6
2814.27018	39090.7
2816.81308	38921.9
2819.35442	38877.7
2821.89419	38767.4
2824.43239	38663.9
2826.96904	38624.1
2829.50412	38583.5
2832.03763	38480
2834.56959	38453.5
2837.1	38393.3
2839.62884	38428.7
2842.15613	38377.7
2844.68186	38402.8
2847.20604	38312.5
2849.72867	38240.6
2852.24974	38155.4
2854.76927	38096
2857.28724	38004.3
2859.80367	37934.2
2862.31855	37928.9
2864.83189	37832.8
2867.34368	37779.5
2869.85393	37742.2
2872.36264	37666.1
2874.8698	37588.2
2877.37543	37592.6
2879.87952	37512.7
2882.38207	37486.7
2884.88308	37440.4
2887.38256	37414.3
2889.88051	37382
2892.37692	37445.6
2894.8718	37475.5
2897.36515	37503.8
2899.85698	37439.1
2902.34727	37497.7
2904.83604	37435.5
2907.32328	37545.9
2909.809	37493.3
2912.29319	37475.4
2914.77587	37430.1
2917.25702	37440
2919.73665	37402.2
2922.21476	37408
2924.69136	37270.7
2927.16644	37278.7
2929.64	37285.4
2932.11205	37187.8
2934.58258	37100.1
2937.05161	37112.8
2939.51912	37116.4
2941.98513	37169.5
2944.44962	37026.1
2946.91261	36951.8
2949.37409	37043.7
2951.83407	36931.6
2954.29254	36947.8
2956.74951	36956.3
2959.20498	37004.7
2961.65895	36929.7
2964.11142	36989
2966.56239	36878
2969.01186	36954.5
2971.45984	36837.7
2973.90632	36827.7
2976.35131	36709.5
2978.7948	36726.9
2981.23681	36620
2983.67732	36615.8
2986.11635	36489.9
2988.55388	36352.1
2990.98993	36414.4
2993.4245	36326.9
2995.85758	36246.3
2998.28917	36070
3000.71928	36082.1
3003.14791	36041.5
3005.57506	35957.9
3008.00073	35843.4
3010.42493	35738.9
3012.84764	35660.1
3015.26888	35670
3017.68865	35666.6
3020.10694	35551.5
3022.52376	35482.4
3024.9391	35444.9
3027.35298	35342.4
3029.76539	35406.5
3032.17632	35353.8
3034.5858	35250.5
3036.9938	35210.4
3039.40034	35153.7
3041.80542	35088.3
3044.20903	35032.1
3046.61118	34998.9
3049.01187	34894.3
3051.4111	34886
3053.80888	34711.7
3056.20519	34716.7
3058.60005	34645.5
3060.99345	34612.2
3063.3854	34495.1
3065.7759	34423.8
3068.16494	34341.5
3070.55254	34209.8
3072.93868	34091.6
3075.32338	34065.5
3077.70662	33956.8
3080.08842	33911.9
3082.46878	33846.3
3084.84769	33784.6
3087.22515	33771
3089.60118	33780.4
3091.97576	33772.8
3094.3489	33715.5
3096.72061	33693.3
3099.09087	33677.8
3101.4597	33651.8
3103.82709	33649.2
3106.19305	33568.1
3108.55757	33588.4
3110.92066	33503.7
3113.28232	33546.4
3115.64255	33411.3
3118.00134	33323.8
3120.35871	33306.3
3122.71466	33176
3125.06917	33152.5
3127.42226	33071.6
3129.77393	33060.2
3132.12417	32960.7
3134.47299	32869.1
3136.82039	32816.5
3139.16636	32819.1
3141.51092	32815.9
3143.85406	32758.3
3146.19579	32749.6
3148.53609	32759.9
3150.87499	32822.6
3153.21246	32771.4
3155.54853	32795.9
3157.88318	32770.2
3160.21642	32795.9
3162.54826	32743.6
3164.87868	32737
3167.2077	32702
3169.5353	32651.4
3171.86151	32675.7
3174.18631	32613.5
3176.5097	32519.4
3178.83169	32444.2
3181.15228	32389.7
3183.47147	32322.3
3185.78926	32300.4
3188.10565	32253.8
3190.42065	32166.7
3192.73424	32104.2
3195.04645	32103.1
3197.35725	32028.2
3199.66667	31926
3201.97469	31937.9
3204.28132	31927.2
3206.58656	31978
3208.8904	31994.5
3211.19287	31975
3213.49394	31928.1
3215.79363	31891
3218.09193	31935.8
3220.38884	31924.1
3222.68438	31928.2
3224.97853	31918.3
3227.2713	31871.7
3229.56269	31848.5
3231.8527	31820.2
3234.14133	31720
3236.42858	31664.4
3238.71446	31580.9
3240.99896	31494.7
3243.28209	31402.2
3245.56384	31372.9
3247.84423	31377.7
3250.12324	31336
3252.40088	31301.3
3254.67715	31249.8
3256.95205	31200.4
3259.22558	31219.8
3261.49775	31205.9
3263.76855	31213.1
3266.03799	31167.8
3268.30606	31128.5
3270.57277	31065.9
3272.83812	30958
3275.10211	30921.9
3277.36474	30811.6
3279.62601	30773.7
3281.88593	30665.9
3284.14448	30649.2
3286.40168	30696.4
3288.65753	30689
3290.91202	30610.7
3293.16516	30519.9
3295.41695	30464
3297.66738	30299.1
3299.91647	30183.1
3302.16421	29949.3
3304.4106	29820.3
3306.65564	29570.8
3308.89933	29389.7
3311.14169	29203.9
3313.38269	28954.4
3315.62236	28848.1
3317.86068	28602
3320.09766	28416.1
3322.3333	28227.7
3324.5676	28040.5
3326.80056	27709.4
3329.03219	27529.4
3331.26248	4.2
3333.49143	1.5
3335.71905	1.4
