Data from AgNPs_UA_100uM_CRN_0uM_R6G_10uM_Q_RamanShift__17__13-32-15-329.txt Node

Date: Tue Jul 26 13:32:15 BST 2022
User: TCL
Spectrometer: QEP01345
Trigger mode: 4
Integration Time (sec): 7.000000E0
Scans to average: 10
Electric dark correction enabled: true
Nonlinearity correction enabled: false
Boxcar width: 0
XAxis mode: Raman Shifts
Number of Pixels in Spectrum: 1044
>>>>>Begin Spectral Data<<<<<
46.04893	-0.7125
50.45542	0.5875
54.85868	-1.5125
59.25871	-0.1125
63.6555	67.5875
68.04907	74.7875
72.43941	79.7875
76.82654	79.2875
81.21044	86.1875
85.59113	84.1875
89.96862	93.1875
94.34289	96.8875
98.71396	98.9875
103.08183	100.8875
107.4465	100.3875
111.80798	103.9875
116.16626	104.8875
120.52136	107.2875
124.87327	107.9875
129.222	118.1875
133.56755	118.1875
137.90993	123.5875
142.24913	125.8875
146.58517	142.3875
150.91804	149.5875
155.24774	178.1875
159.57429	208.5875
163.89768	267.3875
168.21792	340.3875
172.53501	444.3875
176.84895	616.1875
181.15975	860.0875
185.46741	1192.2875
189.77193	1642.2875
194.07331	2190.5875
198.37157	2820.3875
202.6667	3458.5875
206.9587	4109.8875
211.24758	4752.9875
215.53334	5357.9875
219.81599	6039.0875
224.09553	6770.3875
228.37195	7561.4875
232.64527	8462.4875
236.91549	9414.9875
241.18261	10361.0875
245.44663	11287.3875
249.70755	12107.1875
253.96539	12837.7875
258.22014	13393.0875
262.4718	13870.0875
266.72039	14214.7875
270.96589	14371.6875
275.20832	14393.4875
279.44768	14250.3875
283.68397	14087.5875
287.91719	13856.7875
292.14735	13727.3875
296.37445	13679.9875
300.59849	13717.2875
304.81948	13784.9875
309.03742	13789.5875
313.25231	13720.0875
317.46415	13561.3875
321.67296	13393.1875
325.87872	13257.2875
330.08145	13264.6875
334.28114	13350.4875
338.47781	13542.5875
342.67145	13727.5875
346.86207	13973.7875
351.04966	14282.7875
355.23424	14589.4875
359.4158	14885.6875
363.59435	15097.7875
367.76989	15340.3875
371.94243	15529.9875
376.11196	15632.0875
380.27849	15760.6875
384.44203	15885.6875
388.60257	15979.0875
392.76012	16087.3875
396.91468	16230.2875
401.06626	16381.7875
405.21485	16560.3875
409.36047	16559.0875
413.50311	16416.5875
417.64277	16273.5875
421.77947	16192.1875
425.9132	16191.8875
430.04396	16262.0875
434.17176	16348.5875
438.2966	16478.1875
442.41849	16720.6875
446.53742	16980.3875
450.6534	17224.7875
454.76644	17454.2875
458.87653	17574.8875
462.98368	17628.0875
467.08789	17622.6875
471.18916	17558.7875
475.2875	17414.5875
479.38291	17277.7875
483.4754	17209.4875
487.56496	17203.8875
491.6516	17166.7875
495.73531	17175.8875
499.81612	17176.8875
503.89401	17309.5875
507.96899	17380.8875
512.04106	17393.8875
516.11023	17459.4875
520.1765	17515.0875
524.23987	17527.2875
528.30034	17511.5875
532.35792	17555.4875
536.41261	17536.1875
540.46441	17462.0875
544.51333	17430.8875
548.55936	17487.0875
552.60252	17569.2875
556.64279	17743.0875
560.6802	17909.8875
564.71473	18008.5875
568.7464	18034.2875
572.7752	18070.1875
576.80114	18048.5875
580.82422	18040.2875
584.84444	18151.4875
588.86181	18195.7875
592.87633	18331.6875
596.888	18486.4875
600.89682	18786.3875
604.9028	19591.6875
608.90594	21190.4875
612.90624	22692.6875
616.90371	21800.7875
620.89834	19576.5875
624.89015	18710.4875
628.87913	18687.3875
632.86528	18793.0875
636.84862	18888.5875
640.82913	18793.0875
644.80683	18503.6875
648.78172	18327.9875
652.75379	18347.9875
656.72306	18562.5875
660.68952	18848.8875
664.65319	18842.8875
668.61405	18783.3875
672.57211	18847.7875
676.52738	18944.0875
680.47986	18875.7875
684.42955	18787.9875
688.37646	18737.5875
692.32058	18851.6875
696.26192	19005.7875
700.20048	19149.6875
704.13626	19228.1875
708.06928	19180.4875
711.99952	19073.2875
715.927	19021.6875
719.85171	19049.5875
723.77365	19095.5875
727.69284	19009.1875
731.60928	18951.9875
735.52295	18952.7875
739.43388	19003.3875
743.34206	19011.1875
747.24749	19045.5875
751.15017	19123.4875
755.05012	19156.9875
758.94733	19405.4875
762.8418	19876.1875
766.73354	20652.7875
770.62254	21496.2875
774.50882	22008.0875
778.39237	21828.6875
782.27321	21111.0875
786.15132	20306.2875
790.02671	19767.8875
793.89938	19481.6875
797.76935	19367.8875
801.6366	19314.7875
805.50115	19263.0875
809.36299	19262.3875
813.22213	19213.5875
817.07857	19189.6875
820.93231	19196.8875
824.78336	19234.3875
828.63172	19250.6875
832.47738	19262.1875
836.32036	19258.8875
840.16066	19272.4875
843.99827	19310.7875
847.8332	19298.7875
851.66546	19290.5875
855.49504	19347.7875
859.32195	19407.3875
863.1462	19420.6875
866.96777	19391.7875
870.78668	19401.2875
874.60293	19494.6875
878.41652	19501.1875
882.22745	19581.3875
886.03573	19642.2875
889.84136	19669.5875
893.64433	19606.1875
897.44466	19550.6875
901.24235	19517.0875
905.0374	19516.7875
908.8298	19502.0875
912.61957	19425.8875
916.40671	19443.0875
920.19121	19514.6875
923.97308	19563.4875
927.75233	19596.1875
931.52895	19683.0875
935.30295	19642.3875
939.07433	19501.1875
942.84309	19403.0875
946.60924	19390.3875
950.37278	19382.5875
954.13371	19347.4875
957.89203	19344.8875
961.64774	19323.1875
965.40086	19288.9875
969.15137	19238.3875
972.89929	19244.7875
976.64461	19281.8875
980.38733	19250.1875
984.12747	19333.6875
987.86502	19380.3875
991.59999	19508.6875
995.33237	19669.7875
999.06217	19865.7875
1002.78939	20072.3875
1006.51404	20165.6875
1010.23611	20343.6875
1013.95561	20502.8875
1017.67255	20523.1875
1021.38692	20508.5875
1025.09872	20416.4875
1028.80796	20395.2875
1032.51465	20543.6875
1036.21877	20643.3875
1039.92035	20675.4875
1043.61937	20580.1875
1047.31584	20502.7875
1051.00976	20371.7875
1054.70114	20336.9875
1058.38998	20373.2875
1062.07627	20430.6875
1065.76003	20560.0875
1069.44126	20616.0875
1073.11995	20871.9875
1076.79611	21049.6875
1080.46974	21240.1875
1084.14085	21286.1875
1087.80943	21349.0875
1091.47549	21421.2875
1095.13903	21386.4875
1098.80005	21339.0875
1102.45857	21290.0875
1106.11456	21283.3875
1109.76805	21262.4875
1113.41903	21190.8875
1117.06751	21246.8875
1120.71348	21376.8875
1124.35696	21484.3875
1127.99793	21603.3875
1131.63641	21601.3875
1135.2724	21452.9875
1138.90589	21272.8875
1142.5369	21131.7875
1146.16542	21003.6875
1149.79145	20918.4875
1153.415	20842.0875
1157.03607	20765.8875
1160.65467	20839.4875
1164.27079	21055.1875
1167.88443	21447.2875
1171.49561	21935.6875
1175.10432	22625.8875
1178.71056	23545.1875
1182.31434	24448.8875
1185.91565	25004.1875
1189.51451	25071.5875
1193.11091	24819.5875
1196.70485	24419.6875
1200.29634	23953.8875
1203.88538	23515.9875
1207.47197	23086.3875
1211.05612	22658.7875
1214.63782	22393.4875
1218.21708	22170.9875
1221.79391	22031.2875
1225.36829	21978.6875
1228.94024	21992.0875
1232.50976	21847.0875
1236.07685	21814.0875
1239.6415	21810.1875
1243.20374	21859.2875
1246.76355	21927.3875
1250.32093	22087.1875
1253.8759	22269.5875
1257.42845	22576.7875
1260.97859	22898.2875
1264.52631	23209.1875
1268.07163	23492.1875
1271.61453	23783.5875
1275.15503	24041.3875
1278.69312	24163.1875
1282.22882	24219.0875
1285.76211	24280.3875
1289.29301	24334.6875
1292.82151	24515.8875
1296.34761	24802.4875
1299.87133	25350.5875
1303.39266	26061.3875
1306.9116	27095.8875
1310.42815	28190.3875
1313.94233	28809.5875
1317.45412	28592.6875
1320.96354	28049.3875
1324.47058	27266.3875
1327.97525	26610.3875
1331.47754	26048.0875
1334.97747	25846.3875
1338.47502	25948.0875
1341.97022	26329.0875
1345.46305	26876.6875
1348.95352	27500.3875
1352.44163	28104.9875
1355.92738	28749.9875
1359.41078	29660.3875
1362.89183	30273.7875
1366.37053	29535.7875
1369.84688	27641.9875
1373.32088	25773.0875
1376.79254	24551.8875
1380.26186	23897.7875
1383.72883	23520.4875
1387.19347	23180.0875
1390.65578	22823.3875
1394.11575	22497.5875
1397.57339	22259.6875
1401.0287	22145.2875
1404.48168	22140.0875
1407.93234	22202.2875
1411.38068	22314.4875
1414.82669	22361.6875
1418.27039	22263.0875
1421.71177	22141.7875
1425.15083	22032.9875
1428.58758	22034.2875
1432.02203	22064.9875
1435.45416	22195.8875
1438.88399	22217.2875
1442.31151	22207.1875
1445.73673	22229.2875
1449.15965	22254.9875
1452.58027	22237.7875
1455.9986	22172.4875
1459.41463	22257.5875
1462.82837	22450.1875
1466.23982	22676.0875
1469.64898	22928.5875
1473.05586	23115.4875
1476.46045	23236.0875
1479.86276	23320.5875
1483.26279	23373.2875
1486.66054	23484.8875
1490.05602	23660.0875
1493.44922	23973.6875
1496.84016	24479.6875
1500.22882	25199.8875
1503.61521	26184.0875
1506.99934	27103.0875
1510.38121	27680.7875
1513.76081	27568.9875
1517.13816	26761.6875
1520.51324	25623.8875
1523.88607	24603.7875
1527.25665	23932.2875
1530.62498	23567.5875
1533.99105	23327.8875
1537.35488	23227.5875
1540.71647	23174.6875
1544.07581	23190.7875
1547.4329	23112.9875
1550.78776	23067.1875
1554.14038	23023.2875
1557.49077	23009.3875
1560.83892	23048.4875
1564.18484	23191.1875
1567.52853	23373.7875
1570.86999	23504.3875
1574.20922	23597.3875
1577.54624	23567.4875
1580.88103	23292.2875
1584.2136	22955.6875
1587.54395	22858.3875
1590.87208	23089.4875
1594.19801	23648.3875
1597.52172	24382.0875
1600.84321	24742.5875
1604.16251	24544.3875
1607.47959	23988.2875
1610.79447	23250.9875
1614.10715	22461.4875
1617.41763	21780.7875
1620.7259	21261.5875
1624.03199	20984.8875
1627.33587	20909.4875
1630.63757	21031.9875
1633.93707	21347.4875
1637.23439	21983.3875
1640.52951	22869.0875
1643.82246	23895.9875
1647.11321	24879.0875
1650.40179	25196.5875
1653.68819	24489.8875
1656.97241	23147.5875
1660.25446	21772.1875
1663.53433	20774.8875
1666.81203	20204.5875
1670.08756	19846.0875
1673.36092	19584.4875
1676.63211	19344.0875
1679.90115	19236.1875
1683.16801	19117.3875
1686.43272	19031.8875
1689.69527	18921.0875
1692.95567	18860.7875
1696.2139	18839.7875
1699.46999	18784.7875
1702.72392	18736.2875
1705.97571	18729.9875
1709.22535	18729.4875
1712.47284	18731.4875
1715.71819	18728.2875
1718.96139	18710.7875
1722.20246	18668.5875
1725.44139	18601.8875
1728.67818	18539.0875
1731.91284	18477.4875
1735.14537	18467.7875
1738.37576	18427.9875
1741.60403	18361.2875
1744.83017	18326.6875
1748.05418	18288.7875
1751.27607	18251.8875
1754.49584	18206.7875
1757.71349	18194.2875
1760.92903	18178.2875
1764.14244	18226.3875
1767.35375	18191.8875
1770.56294	18181.6875
1773.77002	18167.8875
1776.97499	18121.3875
1780.17785	18123.9875
1783.37861	18082.9875
1786.57727	18069.1875
1789.77382	18059.0875
1792.96828	18029.9875
1796.16064	18048.7875
1799.3509	17995.6875
1802.53907	17971.6875
1805.72514	17950.9875
1808.90913	17887.6875
1812.09102	17885.3875
1815.27083	17826.7875
1818.44856	17795.3875
1821.6242	17769.7875
1824.79776	17777.0875
1827.96924	17727.0875
1831.13864	17727.9875
1834.30597	17701.9875
1837.47122	17694.5875
1840.6344	17650.2875
1843.7955	17675.8875
1846.95454	17631.6875
1850.11151	17656.2875
1853.26642	17640.0875
1856.41926	17648.2875
1859.57004	17620.4875
1862.71876	17600.0875
1865.86542	17629.8875
1869.01003	17540.3875
1872.15258	17553.4875
1875.29308	17545.6875
1878.43152	17544.9875
1881.56792	17547.4875
1884.70227	17496.6875
1887.83457	17495.3875
1890.96482	17439.6875
1894.09304	17420.9875
1897.21921	17388.1875
1900.34335	17410.8875
1903.46544	17380.8875
1906.58551	17397.3875
1909.70353	17361.2875
1912.81953	17350.0875
1915.93349	17307.7875
1919.04543	17309.2875
1922.15534	17315.4875
1925.26322	17271.6875
1928.36908	17232.0875
1931.47292	17226.8875
1934.57473	17182.3875
1937.67453	17155.3875
1940.77232	17137.5875
1943.86808	17064.7875
1946.96184	17037.6875
1950.05358	17001.9875
1953.14331	16904.9875
1956.23103	16906.5875
1959.31675	16858.2875
1962.40046	16790.7875
1965.48217	16755.9875
1968.56188	16715.7875
1971.63959	16647.4875
1974.7153	16620.4875
1977.78901	16572.3875
1980.86073	16531.2875
1983.93046	16505.4875
1986.99819	16457.8875
1990.06394	16439.7875
1993.1277	16373.5875
1996.18947	16294.6875
1999.24925	16253.8875
2002.30706	16209.3875
2005.36288	16169.9875
2008.41672	16144.9875
2011.46859	16064.0875
2014.51848	16026.1875
2017.56639	15992.6875
2020.61233	16004.4875
2023.6563	15939.8875
2026.6983	15880.4875
2029.73833	15865.7875
2032.7764	15826.3875
2035.8125	15775.5875
2038.84664	15755.7875
2041.87881	15727.5875
2044.90903	15700.4875
2047.93729	15667.4875
2050.96359	15702.6875
2053.98794	15684.4875
2057.01034	15654.7875
2060.03078	15639.8875
2063.04927	15600.1875
2066.06582	15614.5875
2069.08042	15596.4875
2072.09307	15620.7875
2075.10378	15559.8875
2078.11255	15586.2875
2081.11938	15577.3875
2084.12426	15550.1875
2087.12722	15572.3875
2090.12824	15543.4875
2093.12732	15556.9875
2096.12447	15564.3875
2099.11969	15546.4875
2102.11299	15555.4875
2105.10435	15592.5875
2108.09379	15579.9875
2111.08131	15574.4875
2114.0669	15550.0875
2117.05057	15587.0875
2120.03233	15637.1875
2123.01216	15672.2875
2125.99008	15679.4875
2128.96609	15666.5875
2131.94018	15697.3875
2134.91236	15714.8875
2137.88263	15711.3875
2140.851	15735.0875
2143.81746	15784.9875
2146.78201	15776.2875
2149.74466	15785.5875
2152.7054	15776.7875
2155.66425	15736.1875
2158.6212	15764.7875
2161.57625	15744.2875
2164.52941	15771.2875
2167.48067	15740.2875
2170.43004	15716.0875
2173.37752	15718.2875
2176.32311	15699.9875
2179.26681	15731.8875
2182.20863	15723.9875
2185.14856	15717.6875
2188.08661	15730.0875
2191.02278	15721.0875
2193.95707	15726.1875
2196.88948	15686.7875
2199.82001	15727.7875
2202.74867	15713.0875
2205.67545	15681.9875
2208.60037	15667.6875
2211.52341	15683.1875
2214.44458	15656.3875
2217.36388	15592.2875
2220.28132	15564.7875
2223.1969	15535.4875
2226.11061	15490.7875
2229.02246	15496.9875
2231.93245	15446.1875
2234.84058	15408.4875
2237.74686	15399.4875
2240.65128	15380.5875
2243.55385	15361.8875
2246.45456	15351.0875
2249.35343	15350.3875
2252.25044	15327.3875
2255.14561	15301.0875
2258.03893	15258.1875
2260.93041	15272.9875
2263.82004	15213.1875
2266.70783	15218.7875
2269.59378	15157.8875
2272.4779	15163.8875
2275.36017	15155.0875
2278.24061	15122.5875
2281.11922	15040.3875
2283.996	15043.2875
2286.87094	15032.0875
2289.74405	15005.9875
2292.61534	15004.1875
2295.4848	14961.7875
2298.35243	14952.7875
2301.21824	14951.2875
2304.08223	14953.6875
2306.94439	14950.7875
2309.80474	14929.9875
2312.66327	14960.1875
2315.51999	14926.5875
2318.37489	14912.0875
2321.22797	14898.7875
2324.07925	14868.9875
2326.92871	14848.0875
2329.77637	14811.5875
2332.62222	14816.0875
2335.46626	14776.9875
2338.3085	14738.5875
2341.14893	14722.2875
2343.98756	14736.2875
2346.8244	14723.4875
2349.65943	14709.2875
2352.49267	14701.2875
2355.32411	14677.5875
2358.15376	14653.0875
2360.98161	14667.4875
2363.80768	14659.7875
2366.63195	14629.0875
2369.45444	14626.3875
2372.27514	14626.1875
2375.09405	14596.3875
2377.91118	14563.9875
2380.72652	14533.4875
2383.54009	14532.7875
2386.35187	14516.2875
2389.16188	14479.8875
2391.97011	14441.7875
2394.77657	14416.9875
2397.58125	14375.7875
2400.38416	14357.4875
2403.18529	14323.1875
2405.98466	14368.6875
2408.78226	14286.6875
2411.57809	14273.1875
2414.37216	14282.0875
2417.16446	14264.8875
2419.955	14273.9875
2422.74378	14211.6875
2425.5308	14216.4875
2428.31606	14224.9875
2431.09956	14236.7875
2433.88131	14216.0875
2436.6613	14197.6875
2439.43954	14201.9875
2442.21603	14210.7875
2444.99077	14179.5875
2447.76377	14174.2875
2450.53501	14140.4875
2453.30451	14123.7875
2456.07226	14088.1875
2458.83827	14068.6875
2461.60254	14032.9875
2464.36507	14044.7875
2467.12586	14060.7875
2469.88492	14041.5875
2472.64224	14036.1875
2475.39782	14041.0875
2478.15167	14023.7875
2480.90379	14018.2875
2483.65417	14013.7875
2486.40283	14003.9875
2489.14976	13997.3875
2491.89497	13964.5875
2494.63845	13976.8875
2497.3802	13960.6875
2500.12024	13973.0875
2502.85855	13970.6875
2505.59514	13909.1875
2508.33002	13903.1875
2511.06318	13884.4875
2513.79462	13866.0875
2516.52435	13849.7875
2519.25237	13827.1875
2521.97867	13832.7875
2524.70327	13836.1875
2527.42616	13816.9875
2530.14734	13799.2875
2532.86681	13764.4875
2535.58458	13752.8875
2538.30065	13729.1875
2541.01501	13748.2875
2543.72768	13697.1875
2546.43864	13691.4875
2549.14791	13669.6875
2551.85548	13653.2875
2554.56136	13661.9875
2557.26554	13597.8875
2559.96803	13597.8875
2562.66883	13548.0875
2565.36794	13551.3875
2568.06536	13523.1875
2570.7611	13490.7875
2573.45514	13487.1875
2576.14751	13451.0875
2578.83819	13460.3875
2581.52719	13434.9875
2584.21451	13420.5875
2586.90015	13399.0875
2589.58411	13371.3875
2592.2664	13388.0875
2594.94701	13362.1875
2597.62594	13326.7875
2600.30321	13293.0875
2602.9788	13279.6875
2605.65273	13249.6875
2608.32498	13244.6875
2610.99557	13248.9875
2613.66449	13254.0875
2616.33175	13230.3875
2618.99734	13208.2875
2621.66128	13206.7875
2624.32355	13183.3875
2626.98416	13149.1875
2629.64311	13147.3875
2632.30041	13116.8875
2634.95605	13108.5875
2637.61004	13086.8875
2640.26238	13079.9875
2642.91306	13076.1875
2645.56209	13055.8875
2648.20948	13034.1875
2650.85521	13020.3875
2653.4993	13012.6875
2656.14175	13019.4875
2658.78255	13027.0875
2661.42171	13024.9875
2664.05923	13042.1875
2666.6951	13026.3875
2669.32934	13050.7875
2671.96194	13009.0875
2674.59291	13026.0875
2677.22224	13017.1875
2679.84993	13004.6875
2682.476	13007.9875
2685.10043	12982.8875
2687.72324	12965.3875
2690.34441	12972.1875
2692.96396	12988.5875
2695.58188	12984.0875
2698.19818	12975.3875
2700.81285	12942.2875
2703.4259	12945.2875
2706.03733	12975.2875
2708.64714	12994.6875
2711.25533	12975.6875
2713.86191	12976.4875
2716.46687	12998.3875
2719.07021	12968.4875
2721.67194	12992.9875
2724.27206	12982.9875
2726.87057	12982.4875
2729.46747	12965.4875
2732.06276	12974.2875
2734.65644	12983.4875
2737.24852	12954.3875
2739.83899	12925.8875
2742.42786	12985.5875
2745.01513	12917.9875
2747.60079	12885.9875
2750.18486	12878.5875
2752.76733	12883.1875
2755.3482	12831.9875
2757.92747	12855.9875
2760.50515	12816.1875
2763.08123	12814.5875
2765.65573	12796.1875
2768.22863	12795.4875
2770.79994	12788.2875
2773.36967	12766.7875
2775.9378	12727.9875
2778.50435	12714.3875
2781.06932	12734.6875
2783.6327	12702.7875
2786.1945	12680.3875
2788.75471	12681.3875
2791.31335	12644.6875
2793.87041	12643.0875
2796.42589	12627.0875
2798.97979	12611.3875
2801.53212	12565.0875
2804.08288	12570.9875
2806.63206	12508.9875
2809.17967	12489.1875
2811.72571	12426.3875
2814.27018	12415.2875
2816.81308	12406.3875
2819.35442	12370.2875
2821.89419	12364.7875
2824.43239	12350.8875
2826.96904	12341.3875
2829.50412	12303.3875
2832.03763	12249.9875
2834.56959	12273.3875
2837.1	12250.7875
2839.62884	12289.1875
2842.15613	12264.6875
2844.68186	12258.8875
2847.20604	12226.5875
2849.72867	12207.5875
2852.24974	12178.5875
2854.76927	12143.2875
2857.28724	12149.0875
2859.80367	12158.0875
2862.31855	12145.9875
2864.83189	12118.1875
2867.34368	12108.1875
2869.85393	12101.9875
2872.36264	12040.3875
2874.8698	12041.4875
2877.37543	12052.3875
2879.87952	12042.5875
2882.38207	12040.5875
2884.88308	12042.5875
2887.38256	12054.2875
2889.88051	12032.5875
2892.37692	12084.4875
2894.8718	12068.0875
2897.36515	12058.4875
2899.85698	12066.2875
2902.34727	12088.1875
2904.83604	12086.9875
2907.32328	12135.3875
2909.809	12132.9875
2912.29319	12085.5875
2914.77587	12120.4875
2917.25702	12094.8875
2919.73665	12068.0875
2922.21476	12078.1875
2924.69136	12076.6875
2927.16644	12048.7875
2929.64	12040.5875
2932.11205	12023.2875
2934.58258	11988.5875
2937.05161	12016.7875
2939.51912	12027.3875
2941.98513	12030.8875
2944.44962	12021.8875
2946.91261	11970.1875
2949.37409	11992.3875
2951.83407	11970.7875
2954.29254	11978.1875
2956.74951	11978.6875
2959.20498	11994.1875
2961.65895	11951.3875
2964.11142	11985.2875
2966.56239	11957.5875
2969.01186	11971.0875
2971.45984	11972.1875
2973.90632	11986.2875
2976.35131	11946.2875
2978.7948	11928.2875
2981.23681	11903.2875
2983.67732	11899.3875
2986.11635	11874.0875
2988.55388	11850.6875
2990.98993	11826.7875
2993.4245	11806.1875
2995.85758	11777.7875
2998.28917	11781.6875
3000.71928	11767.8875
3003.14791	11740.2875
3005.57506	11737.1875
3008.00073	11677.6875
3010.42493	11684.6875
3012.84764	11654.9875
3015.26888	11650.9875
3017.68865	11641.1875
3020.10694	11623.7875
3022.52376	11594.3875
3024.9391	11585.4875
3027.35298	11580.5875
3029.76539	11585.6875
3032.17632	11599.2875
3034.5858	11561.9875
3036.9938	11548.8875
3039.40034	11545.8875
3041.80542	11537.6875
3044.20903	11524.2875
3046.61118	11541.5875
3049.01187	11470.5875
3051.4111	11460.9875
3053.80888	11454.2875
3056.20519	11438.8875
3058.60005	11404.3875
3060.99345	11405.9875
3063.3854	11385.2875
3065.7759	11362.1875
3068.16494	11318.6875
3070.55254	11290.8875
3072.93868	11309.1875
3075.32338	11271.9875
3077.70662	11226.4875
3080.08842	11210.5875
3082.46878	11209.8875
3084.84769	11212.1875
3087.22515	11202.1875
3089.60118	11212.5875
3091.97576	11206.2875
3094.3489	11193.9875
3096.72061	11217.8875
3099.09087	11250.2875
3101.4597	11211.3875
3103.82709	11249.5875
3106.19305	11222.6875
3108.55757	11244.2875
3110.92066	11229.8875
3113.28232	11232.6875
3115.64255	11212.6875
3118.00134	11184.7875
3120.35871	11170.2875
3122.71466	11146.7875
3125.06917	11117.6875
3127.42226	11098.1875
3129.77393	11104.2875
3132.12417	11083.7875
3134.47299	11070.0875
3136.82039	11058.4875
3139.16636	11085.4875
3141.51092	11068.5875
3143.85406	11087.5875
3146.19579	11077.8875
3148.53609	11098.3875
3150.87499	11107.7875
3153.21246	11102.5875
3155.54853	11150.2875
3157.88318	11132.9875
3160.21642	11159.2875
3162.54826	11148.7875
3164.87868	11149.6875
3167.2077	11155.0875
3169.5353	11149.1875
3171.86151	11165.1875
3174.18631	11144.4875
3176.5097	11167.1875
3178.83169	11146.5875
3181.15228	11147.5875
3183.47147	11112.0875
3185.78926	11089.7875
3188.10565	11046.7875
3190.42065	11037.9875
3192.73424	11045.9875
3195.04645	11047.4875
3197.35725	11070.1875
3199.66667	11040.7875
3201.97469	11073.1875
3204.28132	11039.7875
3206.58656	11054.0875
3208.8904	11056.8875
3211.19287	11062.9875
3213.49394	11075.8875
3215.79363	11097.9875
3218.09193	11087.8875
3220.38884	11088.3875
3222.68438	11101.8875
3224.97853	11063.2875
3227.2713	11086.7875
3229.56269	11076.6875
3231.8527	11080.4875
3234.14133	11034.9875
3236.42858	11033.0875
3238.71446	11030.5875
3240.99896	10975.2875
3243.28209	10965.8875
3245.56384	10938.8875
3247.84423	10939.6875
3250.12324	10936.2875
3252.40088	10940.2875
3254.67715	10920.7875
3256.95205	10927.2875
3259.22558	10949.0875
3261.49775	10932.4875
3263.76855	10944.3875
3266.03799	10937.2875
3268.30606	10945.1875
3270.57277	10906.7875
3272.83812	10872.9875
3275.10211	10855.7875
3277.36474	10820.6875
3279.62601	10840.0875
3281.88593	10806.8875
3284.14448	10804.4875
3286.40168	10826.0875
3288.65753	10834.1875
3290.91202	10783.5875
3293.16516	10770.5875
3295.41695	10738.0875
3297.66738	10705.3875
3299.91647	10634.0875
3302.16421	10579.7875
3304.4106	10539.3875
3306.65564	10457.8875
3308.89933	10380.9875
3311.14169	10326.4875
3313.38269	10267.0875
3315.62236	10209.5875
3317.86068	10140.7875
3320.09766	10054.4875
3322.3333	9979.8875
3324.5676	9930.0875
3326.80056	9810.7875
3329.03219	9772.8875
3331.26248	3.7875
3333.49143	-1.1125
3335.71905	-1.5125
