Data from AgNPs_UA_50uM_CRN_0uM_R6G_10uM_Q_RamanShift__11__12-24-01-765.txt Node

Date: Tue Jul 26 12:24:01 BST 2022
User: TCL
Spectrometer: QEP01345
Trigger mode: 4
Integration Time (sec): 7.000000E0
Scans to average: 10
Electric dark correction enabled: true
Nonlinearity correction enabled: false
Boxcar width: 0
XAxis mode: Raman Shifts
Number of Pixels in Spectrum: 1044
>>>>>Begin Spectral Data<<<<<
46.04893	1.6125
50.45542	-0.1875
54.85868	-1.1875
59.25871	-0.9875
63.6555	95.8125
68.04907	101.3125
72.43941	107.7125
76.82654	114.5125
81.21044	116.3125
85.59113	123.3125
89.96862	130.2125
94.34289	130.9125
98.71396	138.1125
103.08183	144.9125
107.4465	145.4125
111.80798	152.0125
116.16626	152.4125
120.52136	161.2125
124.87327	163.2125
129.222	169.5125
133.56755	186.2125
137.90993	192.0125
142.24913	209.6125
146.58517	230.2125
150.91804	263.8125
155.24774	310.4125
159.57429	381.0125
163.89768	478.1125
168.21792	638.7125
172.53501	864.0125
176.84895	1194.4125
181.15975	1669.7125
185.46741	2350.6125
189.77193	3234.4125
194.07331	4327.5125
198.37157	5580.9125
202.6667	6922.3125
206.9587	8231.4125
211.24758	9534.7125
215.53334	10897.6125
219.81599	12279.6125
224.09553	13840.7125
228.37195	15541.7125
232.64527	17396.2125
236.91549	19317.9125
241.18261	21139.1125
245.44663	22768.5125
249.70755	24174.6125
253.96539	25340.3125
258.22014	26350.3125
262.4718	27212.3125
266.72039	27762.0125
270.96589	28046.1125
275.20832	28001.6125
279.44768	27729.9125
283.68397	27417.7125
287.91719	27155.9125
292.14735	26985.9125
296.37445	27153.8125
300.59849	27562.2125
304.81948	28030.5125
309.03742	28410.0125
313.25231	28435.8125
317.46415	27959.0125
321.67296	27119.6125
325.87872	26308.2125
330.08145	25904.9125
334.28114	25919.7125
338.47781	26207.1125
342.67145	26613.1125
346.86207	27220.6125
351.04966	28001.0125
355.23424	28836.3125
359.4158	29470.9125
363.59435	29912.0125
367.76989	30131.1125
371.94243	30247.7125
376.11196	30311.1125
380.27849	30364.4125
384.44203	30482.3125
388.60257	30636.7125
392.76012	30857.7125
396.91468	31199.5125
401.06626	31686.4125
405.21485	32048.4125
409.36047	31816.0125
413.50311	31210.7125
417.64277	30480.8125
421.77947	30128.2125
425.9132	29889.4125
430.04396	29852.6125
434.17176	29995.1125
438.2966	30237.7125
442.41849	30528.2125
446.53742	31058.7125
450.6534	31561.0125
454.76644	32007.3125
458.87653	32215.0125
462.98368	32276.1125
467.08789	32294.3125
471.18916	32016.6125
475.2875	31516.1125
479.38291	31033.0125
483.4754	30781.2125
487.56496	30584.8125
491.6516	30489.1125
495.73531	30460.2125
499.81612	30540.6125
503.89401	30875.6125
507.96899	31024.6125
512.04106	31100.6125
516.11023	31199.8125
520.1765	31191.9125
524.23987	31135.5125
528.30034	30970.7125
532.35792	30845.9125
536.41261	30690.7125
540.46441	30437.6125
544.51333	30375.6125
548.55936	30643.6125
552.60252	31068.1125
556.64279	31570.9125
560.6802	31934.3125
564.71473	32170.4125
568.7464	32500.4125
572.7752	32641.9125
576.80114	32387.7125
580.82422	32361.0125
584.84444	32497.7125
588.86181	32551.9125
592.87633	32499.4125
596.888	32698.9125
600.89682	33609.8125
604.9028	36056.0125
608.90594	41294.3125
612.90624	46761.2125
616.90371	44310.5125
620.89834	36222.7125
624.89015	32477.7125
628.87913	32022.2125
632.86528	32606.4125
636.84862	33171.2125
640.82913	32873.4125
644.80683	31856.5125
648.78172	31148.8125
652.75379	31054.4125
656.72306	31677.0125
660.68952	32397.8125
664.65319	32329.0125
668.61405	31907.6125
672.57211	32041.9125
676.52738	32140.3125
680.47986	31780.7125
684.42955	31315.0125
688.37646	31195.4125
692.32058	31396.5125
696.26192	31802.0125
700.20048	32258.4125
704.13626	32473.6125
708.06928	32276.1125
711.99952	31987.1125
715.927	31868.9125
719.85171	31903.4125
723.77365	31920.6125
727.69284	31700.3125
731.60928	31448.1125
735.52295	31336.2125
739.43388	31387.3125
743.34206	31483.7125
747.24749	31564.6125
751.15017	31626.3125
755.05012	31933.9125
758.94733	32733.4125
762.8418	34807.7125
766.73354	37998.9125
770.62254	40874.5125
774.50882	41868.0125
778.39237	40713.1125
782.27321	38265.0125
786.15132	35546.4125
790.02671	33557.3125
793.89938	32444.4125
797.76935	31875.3125
801.6366	31586.8125
805.50115	31449.6125
809.36299	31295.4125
813.22213	31165.9125
817.07857	31128.3125
820.93231	31200.7125
824.78336	31167.6125
828.63172	31256.0125
832.47738	31154.8125
836.32036	31132.3125
840.16066	31005.0125
843.99827	30957.7125
847.8332	30970.9125
851.66546	31050.5125
855.49504	31095.1125
859.32195	31131.8125
863.1462	31123.6125
866.96777	31120.7125
870.78668	31150.4125
874.60293	31238.8125
878.41652	31330.1125
882.22745	31454.4125
886.03573	31567.3125
889.84136	31598.1125
893.64433	31555.9125
897.44466	31454.6125
901.24235	31369.8125
905.0374	31309.4125
908.8298	31249.5125
912.61957	31212.1125
916.40671	31195.0125
920.19121	31332.4125
923.97308	31493.4125
927.75233	31563.8125
931.52895	31672.3125
935.30295	31481.6125
939.07433	31119.2125
942.84309	30714.1125
946.60924	30530.6125
950.37278	30476.4125
954.13371	30511.3125
957.89203	30442.6125
961.64774	30473.5125
965.40086	30428.5125
969.15137	30370.8125
972.89929	30369.9125
976.64461	30326.7125
980.38733	30321.4125
984.12747	30352.0125
987.86502	30480.3125
991.59999	30603.4125
995.33237	30735.1125
999.06217	30947.5125
1002.78939	31242.7125
1006.51404	31698.1125
1010.23611	32163.3125
1013.95561	32476.3125
1017.67255	32542.7125
1021.38692	32471.7125
1025.09872	32234.0125
1028.80796	31852.3125
1032.51465	31685.6125
1036.21877	31661.4125
1039.92035	31727.9125
1043.61937	31899.5125
1047.31584	31975.0125
1051.00976	32175.8125
1054.70114	32360.1125
1058.38998	32554.8125
1062.07627	32820.4125
1065.76003	33110.0125
1069.44126	33500.3125
1073.11995	34097.5125
1076.79611	34908.6125
1080.46974	35439.8125
1084.14085	35673.5125
1087.80943	35885.9125
1091.47549	36028.5125
1095.13903	36011.7125
1098.80005	36050.9125
1102.45857	36048.0125
1106.11456	35894.8125
1109.76805	35345.7125
1113.41903	35082.0125
1117.06751	35186.6125
1120.71348	35638.9125
1124.35696	36145.6125
1127.99793	36606.1125
1131.63641	36455.7125
1135.2724	35756.2125
1138.90589	35263.4125
1142.5369	34823.5125
1146.16542	34560.7125
1149.79145	34265.5125
1153.415	34029.1125
1157.03607	33998.4125
1160.65467	34293.9125
1164.27079	34943.9125
1167.88443	36032.6125
1171.49561	37518.5125
1175.10432	39751.6125
1178.71056	42659.5125
1182.31434	45280.3125
1185.91565	46623.7125
1189.51451	46824.6125
1193.11091	46294.1125
1196.70485	45236.8125
1200.29634	43862.7125
1203.88538	42409.3125
1207.47197	40741.2125
1211.05612	39274.6125
1214.63782	38019.0125
1218.21708	37061.8125
1221.79391	36439.2125
1225.36829	36171.0125
1228.94024	36033.6125
1232.50976	36126.9125
1236.07685	36204.2125
1239.6415	36337.0125
1243.20374	36535.1125
1246.76355	36651.6125
1250.32093	36838.1125
1253.8759	37181.7125
1257.42845	37963.9125
1260.97859	38977.4125
1264.52631	40015.1125
1268.07163	40831.5125
1271.61453	41439.0125
1275.15503	41740.0125
1278.69312	41851.1125
1282.22882	41963.1125
1285.76211	42256.9125
1289.29301	42923.2125
1292.82151	43633.8125
1296.34761	44639.4125
1299.87133	45944.1125
1303.39266	47926.8125
1306.9116	50859.2125
1310.42815	53908.7125
1313.94233	55377.7125
1317.45412	54438.7125
1320.96354	52659.4125
1324.47058	50957.5125
1327.97525	49333.9125
1331.47754	48234.4125
1334.97747	47904.6125
1338.47502	48279.8125
1341.97022	49385.5125
1345.46305	51336.4125
1348.95352	53949.4125
1352.44163	56520.9125
1355.92738	58877.0125
1359.41078	61626.5125
1362.89183	64130.0125
1366.37053	62445.6125
1369.84688	56137.9125
1373.32088	49523.6125
1376.79254	45290.2125
1380.26186	43119.3125
1383.72883	41759.7125
1387.19347	40705.3125
1390.65578	39644.2125
1394.11575	38555.6125
1397.57339	37723.1125
1401.0287	37265.2125
1404.48168	37105.7125
1407.93234	37247.9125
1411.38068	37437.2125
1414.82669	37604.3125
1418.27039	37537.1125
1421.71177	37251.4125
1425.15083	36920.8125
1428.58758	36577.2125
1432.02203	36468.2125
1435.45416	36592.1125
1438.88399	36627.1125
1442.31151	36635.1125
1445.73673	36721.0125
1449.15965	36850.1125
1452.58027	37004.7125
1455.9986	36941.2125
1459.41463	37084.5125
1462.82837	37538.5125
1466.23982	38236.4125
1469.64898	38903.8125
1473.05586	39506.9125
1476.46045	39977.0125
1479.86276	40388.1125
1483.26279	40827.7125
1486.66054	41536.0125
1490.05602	42420.6125
1493.44922	43878.7125
1496.84016	46208.1125
1500.22882	49621.2125
1503.61521	54006.4125
1506.99934	58321.8125
1510.38121	60840.2125
1513.76081	60446.1125
1517.13816	56983.4125
1520.51324	52095.1125
1523.88607	47980.1125
1527.25665	45229.4125
1530.62498	43711.4125
1533.99105	42805.4125
1537.35488	42095.9125
1540.71647	41470.6125
1544.07581	40969.8125
1547.4329	40498.5125
1550.78776	40084.1125
1554.14038	39803.9125
1557.49077	39821.2125
1560.83892	40101.8125
1564.18484	40823.1125
1567.52853	41770.1125
1570.86999	42399.9125
1574.20922	42817.1125
1577.54624	42676.9125
1580.88103	41430.5125
1584.2136	39840.6125
1587.54395	38712.4125
1590.87208	38639.6125
1594.19801	39544.5125
1597.52172	40924.1125
1600.84321	41540.3125
1604.16251	41051.9125
1607.47959	40232.6125
1610.79447	39055.0125
1614.10715	37349.3125
1617.41763	35637.5125
1620.7259	34259.5125
1624.03199	33404.8125
1627.33587	33147.8125
1630.63757	33291.5125
1633.93707	34078.6125
1637.23439	35647.1125
1640.52951	38226.1125
1643.82246	41782.0125
1647.11321	45667.1125
1650.40179	47900.4125
1653.68819	46801.6125
1656.97241	42693.7125
1660.25446	37995.6125
1663.53433	34573.5125
1666.81203	32336.5125
1670.08756	30936.3125
1673.36092	30063.6125
1676.63211	29444.6125
1679.90115	29009.2125
1683.16801	28675.8125
1686.43272	28371.4125
1689.69527	28182.9125
1692.95567	28066.2125
1696.2139	27945.0125
1699.46999	27880.6125
1702.72392	27765.5125
1705.97571	27742.1125
1709.22535	27675.3125
1712.47284	27656.3125
1715.71819	27619.8125
1718.96139	27477.4125
1722.20246	27393.3125
1725.44139	27302.4125
1728.67818	27207.0125
1731.91284	27039.8125
1735.14537	26923.1125
1738.37576	26812.8125
1741.60403	26741.1125
1744.83017	26628.0125
1748.05418	26527.9125
1751.27607	26482.2125
1754.49584	26390.4125
1757.71349	26374.9125
1760.92903	26290.8125
1764.14244	26262.1125
1767.35375	26231.1125
1770.56294	26181.2125
1773.77002	26154.7125
1776.97499	26124.1125
1780.17785	26046.2125
1783.37861	26007.2125
1786.57727	26025.8125
1789.77382	25939.7125
1792.96828	25915.2125
1796.16064	25825.0125
1799.3509	25807.1125
1802.53907	25769.6125
1805.72514	25699.2125
1808.90913	25550.1125
1812.09102	25490.9125
1815.27083	25423.6125
1818.44856	25361.8125
1821.6242	25293.6125
1824.79776	25229.8125
1827.96924	25176.4125
1831.13864	25151.6125
1834.30597	25145.0125
1837.47122	25103.5125
1840.6344	25086.6125
1843.7955	25076.4125
1846.95454	25012.7125
1850.11151	24991.6125
1853.26642	24903.6125
1856.41926	24897.7125
1859.57004	24863.3125
1862.71876	24820.9125
1865.86542	24809.4125
1869.01003	24796.2125
1872.15258	24723.3125
1875.29308	24724.8125
1878.43152	24674.6125
1881.56792	24593.6125
1884.70227	24544.1125
1887.83457	24549.2125
1890.96482	24475.3125
1894.09304	24396.2125
1897.21921	24395.0125
1900.34335	24367.7125
1903.46544	24323.6125
1906.58551	24296.4125
1909.70353	24301.4125
1912.81953	24237.1125
1915.93349	24246.9125
1919.04543	24158.3125
1922.15534	24072.0125
1925.26322	24006.6125
1928.36908	23971.2125
1931.47292	23934.3125
1934.57473	23821.6125
1937.67453	23799.1125
1940.77232	23752.3125
1943.86808	23655.6125
1946.96184	23608.9125
1950.05358	23523.8125
1953.14331	23431.9125
1956.23103	23395.8125
1959.31675	23334.5125
1962.40046	23228.5125
1965.48217	23125.5125
1968.56188	23080.6125
1971.63959	23014.8125
1974.7153	22964.4125
1977.78901	22873.2125
1980.86073	22830.3125
1983.93046	22748.7125
1986.99819	22671.0125
1990.06394	22592.0125
1993.1277	22534.0125
1996.18947	22396.3125
1999.24925	22365.3125
2002.30706	22297.9125
2005.36288	22261.7125
2008.41672	22157.4125
2011.46859	22123.4125
2014.51848	22012.2125
2017.56639	21936.6125
2020.61233	21854.3125
2023.6563	21812.7125
2026.6983	21750.9125
2029.73833	21677.0125
2032.7764	21575.6125
2035.8125	21557.3125
2038.84664	21505.3125
2041.87881	21491.0125
2044.90903	21457.6125
2047.93729	21371.5125
2050.96359	21321.7125
2053.98794	21312.8125
2057.01034	21281.5125
2060.03078	21286.7125
2063.04927	21223.2125
2066.06582	21211.8125
2069.08042	21218.4125
2072.09307	21139.1125
2075.10378	21131.8125
2078.11255	21096.9125
2081.11938	21074.0125
2084.12426	21072.3125
2087.12722	21069.2125
2090.12824	21081.1125
2093.12732	21049.5125
2096.12447	21041.4125
2099.11969	21046.0125
2102.11299	21036.5125
2105.10435	21037.8125
2108.09379	21058.7125
2111.08131	21038.4125
2114.0669	21067.8125
2117.05057	21078.5125
2120.03233	21093.6125
2123.01216	21129.9125
2125.99008	21112.6125
2128.96609	21129.1125
2131.94018	21162.8125
2134.91236	21102.7125
2137.88263	21153.3125
2140.851	21140.7125
2143.81746	21149.0125
2146.78201	21088.8125
2149.74466	21164.5125
2152.7054	21207.7125
2155.66425	21137.9125
2158.6212	21096.1125
2161.57625	21065.0125
2164.52941	21022.4125
2167.48067	21062.0125
2170.43004	21042.2125
2173.37752	20996.8125
2176.32311	21010.3125
2179.26681	20964.3125
2182.20863	20936.8125
2185.14856	20973.1125
2188.08661	20905.9125
2191.02278	20872.1125
2193.95707	20867.7125
2196.88948	20902.8125
2199.82001	20880.6125
2202.74867	20836.2125
2205.67545	20827.8125
2208.60037	20781.4125
2211.52341	20781.3125
2214.44458	20697.9125
2217.36388	20639.2125
2220.28132	20617.6125
2223.1969	20515.7125
2226.11061	20495.9125
2229.02246	20478.6125
2231.93245	20450.9125
2234.84058	20380.6125
2237.74686	20334.6125
2240.65128	20310.6125
2243.55385	20258.2125
2246.45456	20253.7125
2249.35343	20244.3125
2252.25044	20234.4125
2255.14561	20202.8125
2258.03893	20229.3125
2260.93041	20145.9125
2263.82004	20078.5125
2266.70783	20033.6125
2269.59378	20027.0125
2272.4779	19966.4125
2275.36017	19912.9125
2278.24061	19861.0125
2281.11922	19807.8125
2283.996	19767.0125
2286.87094	19756.5125
2289.74405	19683.6125
2292.61534	19630.1125
2295.4848	19625.2125
2298.35243	19562.7125
2301.21824	19560.2125
2304.08223	19555.9125
2306.94439	19530.8125
2309.80474	19528.6125
2312.66327	19467.9125
2315.51999	19446.0125
2318.37489	19492.2125
2321.22797	19431.3125
2324.07925	19360.4125
2326.92871	19288.1125
2329.77637	19285.7125
2332.62222	19231.3125
2335.46626	19216.2125
2338.3085	19173.9125
2341.14893	19137.9125
2343.98756	19165.0125
2346.8244	19197.0125
2349.65943	19162.7125
2352.49267	19132.4125
2355.32411	19129.6125
2358.15376	19092.0125
2360.98161	19093.0125
2363.80768	19151.7125
2366.63195	19095.7125
2369.45444	19084.5125
2372.27514	19067.8125
2375.09405	19048.6125
2377.91118	19022.2125
2380.72652	18961.2125
2383.54009	18941.3125
2386.35187	18844.3125
2389.16188	18774.5125
2391.97011	18730.6125
2394.77657	18693.8125
2397.58125	18654.1125
2400.38416	18596.5125
2403.18529	18587.9125
2405.98466	18532.7125
2408.78226	18488.8125
2411.57809	18450.2125
2414.37216	18430.6125
2417.16446	18488.3125
2419.955	18458.7125
2422.74378	18493.4125
2425.5308	18423.9125
2428.31606	18418.2125
2431.09956	18358.5125
2433.88131	18363.1125
2436.6613	18374.2125
2439.43954	18346.9125
2442.21603	18301.1125
2444.99077	18282.9125
2447.76377	18259.1125
2450.53501	18251.2125
2453.30451	18229.5125
2456.07226	18179.3125
2458.83827	18171.1125
2461.60254	18166.3125
2464.36507	18115.1125
2467.12586	18070.7125
2469.88492	18088.1125
2472.64224	18083.2125
2475.39782	18086.3125
2478.15167	18062.3125
2480.90379	18055.2125
2483.65417	18028.4125
2486.40283	18057.0125
2489.14976	18048.8125
2491.89497	18037.5125
2494.63845	17996.7125
2497.3802	17996.4125
2500.12024	17952.5125
2502.85855	17927.0125
2505.59514	17913.5125
2508.33002	17867.2125
2511.06318	17819.5125
2513.79462	17821.5125
2516.52435	17785.2125
2519.25237	17729.7125
2521.97867	17681.7125
2524.70327	17657.1125
2527.42616	17613.6125
2530.14734	17620.8125
2532.86681	17616.0125
2535.58458	17586.7125
2538.30065	17530.2125
2541.01501	17511.6125
2543.72768	17515.0125
2546.43864	17485.1125
2549.14791	17456.0125
2551.85548	17398.9125
2554.56136	17386.7125
2557.26554	17372.3125
2559.96803	17310.3125
2562.66883	17297.7125
2565.36794	17237.5125
2568.06536	17228.0125
2570.7611	17200.6125
2573.45514	17146.6125
2576.14751	17115.8125
2578.83819	17097.9125
2581.52719	17070.7125
2584.21451	17022.6125
2586.90015	16958.1125
2589.58411	16972.2125
2592.2664	16960.2125
2594.94701	16935.7125
2597.62594	16869.0125
2600.30321	16813.2125
2602.9788	16787.8125
2605.65273	16764.2125
2608.32498	16784.0125
2610.99557	16792.4125
2613.66449	16732.8125
2616.33175	16704.3125
2618.99734	16753.3125
2621.66128	16719.8125
2624.32355	16680.7125
2626.98416	16622.2125
2629.64311	16570.8125
2632.30041	16556.7125
2634.95605	16527.5125
2637.61004	16526.6125
2640.26238	16539.0125
2642.91306	16481.5125
2645.56209	16480.6125
2648.20948	16473.7125
2650.85521	16412.6125
2653.4993	16392.2125
2656.14175	16349.9125
2658.78255	16379.5125
2661.42171	16377.5125
2664.05923	16388.7125
2666.6951	16416.3125
2669.32934	16453.9125
2671.96194	16441.2125
2674.59291	16455.9125
2677.22224	16412.9125
2679.84993	16403.9125
2682.476	16365.3125
2685.10043	16383.4125
2687.72324	16347.1125
2690.34441	16351.4125
2692.96396	16349.9125
2695.58188	16340.8125
2698.19818	16337.6125
2700.81285	16312.2125
2703.4259	16311.1125
2706.03733	16318.5125
2708.64714	16260.4125
2711.25533	16305.2125
2713.86191	16279.8125
2716.46687	16278.8125
2719.07021	16288.4125
2721.67194	16315.7125
2724.27206	16322.7125
2726.87057	16281.2125
2729.46747	16260.9125
2732.06276	16263.7125
2734.65644	16225.6125
2737.24852	16229.7125
2739.83899	16198.3125
2742.42786	16195.8125
2745.01513	16209.2125
2747.60079	16147.5125
2750.18486	16084.1125
2752.76733	16068.6125
2755.3482	16091.3125
2757.92747	16072.0125
2760.50515	16021.3125
2763.08123	15997.4125
2765.65573	15982.5125
2768.22863	15994.5125
2770.79994	15941.9125
2773.36967	15925.9125
2775.9378	15887.7125
2778.50435	15859.7125
2781.06932	15831.0125
2783.6327	15838.6125
2786.1945	15816.6125
2788.75471	15820.3125
2791.31335	15764.6125
2793.87041	15717.3125
2796.42589	15695.9125
2798.97979	15646.7125
2801.53212	15600.5125
2804.08288	15596.7125
2806.63206	15538.8125
2809.17967	15519.9125
2811.72571	15454.1125
2814.27018	15468.7125
2816.81308	15423.2125
2819.35442	15423.1125
2821.89419	15392.1125
2824.43239	15373.2125
2826.96904	15374.0125
2829.50412	15335.0125
2832.03763	15297.3125
2834.56959	15269.1125
2837.1	15224.1125
2839.62884	15211.0125
2842.15613	15187.1125
2844.68186	15182.7125
2847.20604	15145.9125
2849.72867	15158.7125
2852.24974	15108.4125
2854.76927	15132.4125
2857.28724	15111.3125
2859.80367	15109.3125
2862.31855	15106.0125
2864.83189	15053.5125
2867.34368	15041.8125
2869.85393	15055.8125
2872.36264	15011.9125
2874.8698	14995.7125
2877.37543	14952.1125
2879.87952	14945.3125
2882.38207	14927.7125
2884.88308	14897.4125
2887.38256	14931.8125
2889.88051	14916.7125
2892.37692	14897.1125
2894.8718	14868.8125
2897.36515	14851.9125
2899.85698	14824.7125
2902.34727	14904.6125
2904.83604	14914.4125
2907.32328	14921.0125
2909.809	14968.1125
2912.29319	14893.3125
2914.77587	14921.7125
2917.25702	14906.2125
2919.73665	14881.8125
2922.21476	14891.4125
2924.69136	14870.0125
2927.16644	14833.8125
2929.64	14821.6125
2932.11205	14789.0125
2934.58258	14742.4125
2937.05161	14774.4125
2939.51912	14745.2125
2941.98513	14729.7125
2944.44962	14701.5125
2946.91261	14654.5125
2949.37409	14659.9125
2951.83407	14679.8125
2954.29254	14642.6125
2956.74951	14638.4125
2959.20498	14632.5125
2961.65895	14604.7125
2964.11142	14601.4125
2966.56239	14559.8125
2969.01186	14594.1125
2971.45984	14586.6125
2973.90632	14610.6125
2976.35131	14532.1125
2978.7948	14524.3125
2981.23681	14472.6125
2983.67732	14463.5125
2986.11635	14443.2125
2988.55388	14433.8125
2990.98993	14371.3125
2993.4245	14355.4125
2995.85758	14326.9125
2998.28917	14316.0125
3000.71928	14279.7125
3003.14791	14250.9125
3005.57506	14207.9125
3008.00073	14187.7125
3010.42493	14146.9125
3012.84764	14149.9125
3015.26888	14133.1125
3017.68865	14072.1125
3020.10694	14037.7125
3022.52376	14018.7125
3024.9391	13996.0125
3027.35298	13953.8125
3029.76539	13963.4125
3032.17632	13941.7125
3034.5858	13907.3125
3036.9938	13877.2125
3039.40034	13851.5125
3041.80542	13868.2125
3044.20903	13811.6125
3046.61118	13770.4125
3049.01187	13756.0125
3051.4111	13734.1125
3053.80888	13720.7125
3056.20519	13699.2125
3058.60005	13673.1125
3060.99345	13627.7125
3063.3854	13586.3125
3065.7759	13572.6125
3068.16494	13556.3125
3070.55254	13526.7125
3072.93868	13488.3125
3075.32338	13428.9125
3077.70662	13401.0125
3080.08842	13385.8125
3082.46878	13383.3125
3084.84769	13347.2125
3087.22515	13371.5125
3089.60118	13353.5125
3091.97576	13334.3125
3094.3489	13345.8125
3096.72061	13300.0125
3099.09087	13277.0125
3101.4597	13294.4125
3103.82709	13308.2125
3106.19305	13274.2125
3108.55757	13288.9125
3110.92066	13240.2125
3113.28232	13212.9125
3115.64255	13202.5125
3118.00134	13199.5125
3120.35871	13188.6125
3122.71466	13110.2125
3125.06917	13077.7125
3127.42226	13073.3125
3129.77393	13085.0125
3132.12417	13031.8125
3134.47299	13034.3125
3136.82039	13001.7125
3139.16636	13002.1125
3141.51092	12970.4125
3143.85406	13009.7125
3146.19579	13011.7125
3148.53609	12995.3125
3150.87499	13028.1125
3153.21246	13042.3125
3155.54853	13021.9125
3157.88318	13003.6125
3160.21642	13029.7125
3162.54826	13005.9125
3164.87868	13024.1125
3167.2077	12994.3125
3169.5353	12973.3125
3171.86151	12998.0125
3174.18631	12976.8125
3176.5097	12980.9125
3178.83169	12935.5125
3181.15228	12922.5125
3183.47147	12859.6125
3185.78926	12806.4125
3188.10565	12805.4125
3190.42065	12807.9125
3192.73424	12824.5125
3195.04645	12812.4125
3197.35725	12798.8125
3199.66667	12766.3125
3201.97469	12775.2125
3204.28132	12775.7125
3206.58656	12796.0125
3208.8904	12770.7125
3211.19287	12798.7125
3213.49394	12784.3125
3215.79363	12752.6125
3218.09193	12774.1125
3220.38884	12788.7125
3222.68438	12793.1125
3224.97853	12761.8125
3227.2713	12785.3125
3229.56269	12790.9125
3231.8527	12750.5125
3234.14133	12715.5125
3236.42858	12693.8125
3238.71446	12660.5125
3240.99896	12593.5125
3243.28209	12570.1125
3245.56384	12550.4125
3247.84423	12572.8125
3250.12324	12547.9125
3252.40088	12500.6125
3254.67715	12467.9125
3256.95205	12462.6125
3259.22558	12476.2125
3261.49775	12486.7125
3263.76855	12481.1125
3266.03799	12437.4125
3268.30606	12450.0125
3270.57277	12407.3125
3272.83812	12380.6125
3275.10211	12331.8125
3277.36474	12309.3125
3279.62601	12323.9125
3281.88593	12310.1125
3284.14448	12287.8125
3286.40168	12298.8125
3288.65753	12263.7125
3290.91202	12256.5125
3293.16516	12261.9125
3295.41695	12216.5125
3297.66738	12126.6125
3299.91647	12078.0125
3302.16421	11975.1125
3304.4106	11926.6125
3306.65564	11882.3125
3308.89933	11809.4125
3311.14169	11711.1125
3313.38269	11626.4125
3315.62236	11538.5125
3317.86068	11449.5125
3320.09766	11359.0125
3322.3333	11277.6125
3324.5676	11260.4125
3326.80056	11104.1125
3329.03219	11015.0125
3331.26248	2.7125
3333.49143	-0.9875
3335.71905	-1.6875
