Data from AgNPs_UA_10uM_CRN_0uM_R6G_10uM_Q_RamanShift__19__12-10-52-646.txt Node

Date: Mon Jul 18 12:10:52 BST 2022
User: TCL
Spectrometer: QEP01345
Trigger mode: 4
Integration Time (sec): 7.000000E0
Scans to average: 10
Electric dark correction enabled: true
Nonlinearity correction enabled: false
Boxcar width: 0
XAxis mode: Raman Shifts
Number of Pixels in Spectrum: 1044
>>>>>Begin Spectral Data<<<<<
46.04893	-1.225
50.45542	-1.925
54.85868	-2.225
59.25871	0.075
63.6555	121.475
68.04907	128.475
72.43941	136.975
76.82654	137.975
81.21044	139.275
85.59113	145.475
89.96862	153.975
94.34289	159.675
98.71396	161.475
103.08183	169.375
107.4465	174.375
111.80798	174.975
116.16626	182.275
120.52136	189.575
124.87327	200.675
129.222	204.875
133.56755	228.575
137.90993	243.975
142.24913	262.175
146.58517	299.675
150.91804	346.475
155.24774	416.575
159.57429	516.775
163.89768	668.375
168.21792	885.375
172.53501	1219.975
176.84895	1694.875
181.15975	2383.275
185.46741	3332.975
189.77193	4593.075
194.07331	6111.375
198.37157	7844.075
202.6667	9663.275
206.9587	11432.475
211.24758	13194.275
215.53334	14978.475
219.81599	16919.975
224.09553	19077.175
228.37195	21519.275
232.64527	24075.475
236.91549	26786.175
241.18261	29340.475
245.44663	31697.775
249.70755	33788.275
253.96539	35579.875
258.22014	37173.475
262.4718	38428.675
266.72039	39359.275
270.96589	39869.475
275.20832	39907.275
279.44768	39587.675
283.68397	39144.475
287.91719	38766.575
292.14735	38674.675
296.37445	38734.975
300.59849	39039.975
304.81948	39488.375
309.03742	39601.975
313.25231	39341.675
317.46415	38545.675
321.67296	37494.075
325.87872	36561.675
330.08145	36204.975
334.28114	36261.475
338.47781	36645.675
342.67145	37161.775
346.86207	37827.175
351.04966	38761.475
355.23424	39746.275
359.4158	40509.975
363.59435	41065.375
367.76989	41398.775
371.94243	41617.375
376.11196	41764.275
380.27849	41881.875
384.44203	42117.675
388.60257	42218.975
392.76012	42454.475
396.91468	42966.675
401.06626	43626.475
405.21485	44064.975
409.36047	43684.375
413.50311	42945.175
417.64277	42294.575
421.77947	42129.275
425.9132	42258.575
430.04396	42445.575
434.17176	42731.475
438.2966	43271.975
442.41849	44218.075
446.53742	45501.775
450.6534	46805.175
454.76644	47723.775
458.87653	47896.975
462.98368	47450.975
467.08789	46757.075
471.18916	45973.675
475.2875	45296.875
479.38291	44741.975
483.4754	44219.875
487.56496	43659.975
491.6516	43127.275
495.73531	42715.275
499.81612	42617.675
503.89401	42847.075
507.96899	43020.075
512.04106	43008.875
516.11023	43048.475
520.1765	42980.975
524.23987	42808.675
528.30034	42626.175
532.35792	42326.175
536.41261	41896.875
540.46441	41361.675
544.51333	41400.575
548.55936	41919.175
552.60252	42826.775
556.64279	43875.275
560.6802	44527.875
564.71473	44894.775
568.7464	45740.475
572.7752	46568.975
576.80114	47009.775
580.82422	47536.875
584.84444	48346.875
588.86181	49564.275
592.87633	50772.375
596.888	51386.375
600.89682	51395.475
604.9028	53459.175
608.90594	59016.275
612.90624	63723.675
616.90371	58210.975
620.89834	48377.175
624.89015	44777.375
628.87913	44472.175
632.86528	44447.375
636.84862	43985.775
640.82913	43102.475
644.80683	41844.675
648.78172	41145.275
652.75379	41187.475
656.72306	42022.075
660.68952	42797.775
664.65319	42427.075
668.61405	41727.075
672.57211	41592.875
676.52738	41575.575
680.47986	41560.075
684.42955	41291.275
688.37646	41235.575
692.32058	41440.175
696.26192	41938.475
700.20048	42361.175
704.13626	42629.575
708.06928	42407.375
711.99952	42084.475
715.927	42068.475
719.85171	42266.775
723.77365	41993.275
727.69284	41610.775
731.60928	41265.175
735.52295	41305.675
739.43388	41427.775
743.34206	41686.075
747.24749	41839.875
751.15017	42137.275
755.05012	42813.075
758.94733	44262.675
762.8418	46986.375
766.73354	51137.475
770.62254	54667.175
774.50882	55119.975
778.39237	52399.375
782.27321	48414.175
786.15132	45015.075
790.02671	42982.475
793.89938	41977.475
797.76935	41590.275
801.6366	41486.475
805.50115	41351.775
809.36299	40982.575
813.22213	40757.975
817.07857	40565.575
820.93231	40574.375
824.78336	40550.875
828.63172	40489.475
832.47738	40482.675
836.32036	40624.675
840.16066	40906.075
843.99827	41033.475
847.8332	40915.775
851.66546	40664.575
855.49504	40622.675
859.32195	40665.775
863.1462	40567.775
866.96777	40380.775
870.78668	40288.975
874.60293	40195.275
878.41652	40358.875
882.22745	40607.775
886.03573	40615.975
889.84136	40553.975
893.64433	40332.975
897.44466	40183.375
901.24235	40076.975
905.0374	39959.675
908.8298	39866.175
912.61957	39917.775
916.40671	40274.975
920.19121	40799.575
923.97308	41445.175
927.75233	41738.875
931.52895	41792.975
935.30295	41211.675
939.07433	40332.675
942.84309	39739.475
946.60924	39482.175
950.37278	39390.275
954.13371	39253.175
957.89203	39121.475
961.64774	39058.075
965.40086	39033.475
969.15137	38965.475
972.89929	38896.975
976.64461	38821.175
980.38733	38965.375
984.12747	39203.075
987.86502	39559.075
991.59999	40054.275
995.33237	40944.875
999.06217	42289.275
1002.78939	43786.875
1006.51404	44421.875
1010.23611	44643.775
1013.95561	44943.875
1017.67255	44979.875
1021.38692	44553.875
1025.09872	44272.075
1028.80796	44776.075
1032.51465	46179.175
1036.21877	47281.375
1039.92035	47124.175
1043.61937	46201.475
1047.31584	44865.775
1051.00976	43670.175
1054.70114	43223.275
1058.38998	43167.375
1062.07627	43284.675
1065.76003	43372.375
1069.44126	43694.475
1073.11995	44219.875
1076.79611	44762.675
1080.46974	45235.575
1084.14085	45763.875
1087.80943	46292.275
1091.47549	46547.075
1095.13903	46225.975
1098.80005	45417.375
1102.45857	44587.975
1106.11456	44142.675
1109.76805	44148.275
1113.41903	44521.175
1117.06751	44992.475
1120.71348	45772.175
1124.35696	46338.775
1127.99793	46888.975
1131.63641	46851.175
1135.2724	46257.775
1138.90589	45844.575
1142.5369	45572.675
1146.16542	45443.175
1149.79145	45629.575
1153.415	45986.475
1157.03607	46696.275
1160.65467	47824.975
1164.27079	49651.675
1167.88443	52246.575
1171.49561	55771.575
1175.10432	60334.475
1178.71056	66044.475
1182.31434	71058.275
1185.91565	73074.975
1189.51451	71917.575
1193.11091	68850.075
1196.70485	65279.475
1200.29634	62253.075
1203.88538	59785.875
1207.47197	57809.175
1211.05612	56359.375
1214.63782	55506.075
1218.21708	55221.575
1221.79391	55449.475
1225.36829	55659.275
1228.94024	55037.875
1232.50976	53748.175
1236.07685	52594.275
1239.6415	52021.275
1243.20374	51999.175
1246.76355	52397.375
1250.32093	53270.975
1253.8759	54412.975
1257.42845	56104.175
1260.97859	57621.075
1264.52631	59160.375
1268.07163	60849.475
1271.61453	62617.375
1275.15503	64591.175
1278.69312	66625.375
1282.22882	68166.175
1285.76211	69796.175
1289.29301	71450.075
1292.82151	73558.175
1296.34761	76477.275
1299.87133	80486.875
1303.39266	85829.875
1306.9116	92493.475
1310.42815	99280.575
1313.94233	103321.875
1317.45412	102660.075
1320.96354	99339.975
1324.47058	95305.175
1327.97525	91671.375
1331.47754	89000.375
1334.97747	87462.475
1338.47502	86863.975
1341.97022	86788.675
1345.46305	86637.575
1348.95352	86445.475
1352.44163	87328.875
1355.92738	90115.775
1359.41078	95499.675
1362.89183	100179.975
1366.37053	97791.875
1369.84688	88373.175
1373.32088	78209.975
1376.79254	71765.075
1380.26186	68890.975
1383.72883	67842.375
1387.19347	67315.475
1390.65578	66333.575
1394.11575	65843.375
1397.57339	66471.275
1401.0287	67499.775
1404.48168	68247.675
1407.93234	68260.275
1411.38068	67490.475
1414.82669	65936.875
1418.27039	63837.175
1421.71177	61662.275
1425.15083	59914.275
1428.58758	59251.375
1432.02203	59801.075
1435.45416	61085.675
1438.88399	62522.775
1442.31151	63447.775
1445.73673	64118.375
1449.15965	64630.075
1452.58027	64850.575
1455.9986	64911.375
1459.41463	65298.175
1462.82837	66160.875
1466.23982	67525.975
1469.64898	68751.675
1473.05586	69476.275
1476.46045	69507.975
1479.86276	69204.775
1483.26279	68674.275
1486.66054	68503.375
1490.05602	68833.075
1493.44922	69747.675
1496.84016	71098.975
1500.22882	73310.475
1503.61521	76788.875
1506.99934	80906.375
1510.38121	84165.675
1513.76081	84732.575
1517.13816	81913.975
1520.51324	77314.675
1523.88607	73287.375
1527.25665	70879.275
1530.62498	69657.075
1533.99105	69028.875
1537.35488	68289.475
1540.71647	67553.675
1544.07581	66551.775
1547.4329	65384.275
1550.78776	64353.975
1554.14038	63524.375
1557.49077	63095.975
1560.83892	62936.775
1564.18484	63304.675
1567.52853	63880.075
1570.86999	64424.075
1574.20922	65225.575
1577.54624	65547.375
1580.88103	64959.275
1584.2136	64591.775
1587.54395	65666.975
1590.87208	68785.675
1594.19801	73482.575
1597.52172	78169.575
1600.84321	79491.175
1604.16251	76132.875
1607.47959	70381.775
1610.79447	64319.675
1614.10715	58968.975
1617.41763	54738.875
1620.7259	52095.275
1624.03199	50875.875
1627.33587	50988.375
1630.63757	52734.775
1633.93707	56138.675
1637.23439	61536.375
1640.52951	68635.075
1643.82246	76462.375
1647.11321	82172.875
1650.40179	82421.675
1653.68819	76319.275
1656.97241	66409.975
1660.25446	57132.275
1663.53433	50451.975
1666.81203	46244.575
1670.08756	43594.475
1673.36092	41946.175
1676.63211	40846.775
1679.90115	40017.475
1683.16801	39361.075
1686.43272	38976.975
1689.69527	38613.775
1692.95567	38338.375
1696.2139	38171.575
1699.46999	37975.775
1702.72392	37919.075
1705.97571	37834.775
1709.22535	37812.875
1712.47284	37772.575
1715.71819	37729.975
1718.96139	37671.975
1722.20246	37477.475
1725.44139	37320.175
1728.67818	37140.475
1731.91284	36902.575
1735.14537	36655.475
1738.37576	36546.575
1741.60403	36508.975
1744.83017	36407.075
1748.05418	36334.275
1751.27607	36245.675
1754.49584	36168.575
1757.71349	36105.475
1760.92903	36075.575
1764.14244	36036.375
1767.35375	36047.275
1770.56294	35969.575
1773.77002	35884.175
1776.97499	35934.975
1780.17785	35835.075
1783.37861	35773.875
1786.57727	35759.475
1789.77382	35739.575
1792.96828	35655.975
1796.16064	35593.775
1799.3509	35558.275
1802.53907	35438.875
1805.72514	35315.375
1808.90913	35251.475
1812.09102	35175.875
1815.27083	35159.575
1818.44856	35122.275
1821.6242	35091.475
1824.79776	35003.375
1827.96924	34980.175
1831.13864	34947.875
1834.30597	34917.975
1837.47122	34903.175
1840.6344	34949.675
1843.7955	34960.075
1846.95454	34903.175
1850.11151	34849.775
1853.26642	34864.775
1856.41926	34888.075
1859.57004	34900.175
1862.71876	34851.575
1865.86542	34812.175
1869.01003	34793.375
1872.15258	34853.575
1875.29308	34771.975
1878.43152	34761.075
1881.56792	34709.175
1884.70227	34747.975
1887.83457	34732.975
1890.96482	34764.375
1894.09304	34697.075
1897.21921	34677.575
1900.34335	34669.075
1903.46544	34586.275
1906.58551	34589.575
1909.70353	34509.375
1912.81953	34535.675
1915.93349	34499.575
1919.04543	34489.175
1922.15534	34449.575
1925.26322	34331.875
1928.36908	34318.275
1931.47292	34207.475
1934.57473	34106.475
1937.67453	34003.975
1940.77232	33968.875
1943.86808	33890.875
1946.96184	33849.475
1950.05358	33721.575
1953.14331	33571.975
1956.23103	33452.175
1959.31675	33435.275
1962.40046	33358.275
1965.48217	33283.775
1968.56188	33235.975
1971.63959	33176.475
1974.7153	33091.175
1977.78901	33010.175
1980.86073	32864.175
1983.93046	32779.475
1986.99819	32710.275
1990.06394	32626.575
1993.1277	32541.675
1996.18947	32446.675
1999.24925	32409.175
2002.30706	32334.975
2005.36288	32271.075
2008.41672	32218.675
2011.46859	32092.175
2014.51848	32056.575
2017.56639	32030.775
2020.61233	31953.275
2023.6563	31846.175
2026.6983	31729.275
2029.73833	31634.475
2032.7764	31617.075
2035.8125	31654.875
2038.84664	31580.175
2041.87881	31520.775
2044.90903	31488.975
2047.93729	31377.575
2050.96359	31392.875
2053.98794	31302.975
2057.01034	31365.875
2060.03078	31369.075
2063.04927	31343.975
2066.06582	31324.875
2069.08042	31316.475
2072.09307	31262.175
2075.10378	31238.075
2078.11255	31228.375
2081.11938	31240.975
2084.12426	31198.675
2087.12722	31234.975
2090.12824	31228.075
2093.12732	31186.875
2096.12447	31209.775
2099.11969	31221.275
2102.11299	31310.375
2105.10435	31266.575
2108.09379	31287.275
2111.08131	31317.275
2114.0669	31277.775
2117.05057	31285.675
2120.03233	31374.775
2123.01216	31444.975
2125.99008	31485.275
2128.96609	31545.675
2131.94018	31597.475
2134.91236	31636.175
2137.88263	31630.275
2140.851	31630.775
2143.81746	31668.275
2146.78201	31695.175
2149.74466	31733.175
2152.7054	31754.075
2155.66425	31691.475
2158.6212	31741.075
2161.57625	31702.975
2164.52941	31700.675
2167.48067	31704.875
2170.43004	31713.275
2173.37752	31690.575
2176.32311	31672.975
2179.26681	31729.075
2182.20863	31803.275
2185.14856	31829.175
2188.08661	31762.075
2191.02278	31801.575
2193.95707	31812.075
2196.88948	31773.275
2199.82001	31825.575
2202.74867	31815.775
2205.67545	31807.175
2208.60037	31724.675
2211.52341	31701.075
2214.44458	31737.375
2217.36388	31711.575
2220.28132	31715.175
2223.1969	31626.075
2226.11061	31576.275
2229.02246	31495.475
2231.93245	31498.175
2234.84058	31392.775
2237.74686	31329.775
2240.65128	31298.875
2243.55385	31294.475
2246.45456	31277.575
2249.35343	31236.775
2252.25044	31196.775
2255.14561	31118.675
2258.03893	31174.275
2260.93041	31080.475
2263.82004	31080.275
2266.70783	31036.375
2269.59378	30946.075
2272.4779	30874.175
2275.36017	30810.175
2278.24061	30774.875
2281.11922	30769.175
2283.996	30722.475
2286.87094	30682.175
2289.74405	30625.475
2292.61534	30592.775
2295.4848	30645.375
2298.35243	30642.575
2301.21824	30676.375
2304.08223	30669.075
2306.94439	30696.975
2309.80474	30764.375
2312.66327	30765.675
2315.51999	30771.875
2318.37489	30834.475
2321.22797	30801.175
2324.07925	30794.075
2326.92871	30696.775
2329.77637	30700.675
2332.62222	30714.275
2335.46626	30762.775
2338.3085	30803.775
2341.14893	30757.575
2343.98756	30768.475
2346.8244	30844.775
2349.65943	30951.175
2352.49267	30911.075
2355.32411	30890.575
2358.15376	30858.275
2360.98161	30858.075
2363.80768	30864.175
2366.63195	30801.475
2369.45444	30757.375
2372.27514	30707.975
2375.09405	30654.775
2377.91118	30549.275
2380.72652	30493.875
2383.54009	30408.075
2386.35187	30415.275
2389.16188	30373.875
2391.97011	30334.175
2394.77657	30278.875
2397.58125	30238.575
2400.38416	30244.475
2403.18529	30245.475
2405.98466	30233.675
2408.78226	30135.475
2411.57809	30106.975
2414.37216	30075.075
2417.16446	30035.675
2419.955	29987.675
2422.74378	29989.075
2425.5308	29962.875
2428.31606	29875.975
2431.09956	29918.375
2433.88131	29860.475
2436.6613	29875.975
2439.43954	29948.275
2442.21603	29913.175
2444.99077	29904.975
2447.76377	29928.975
2450.53501	29876.675
2453.30451	29839.975
2456.07226	29862.775
2458.83827	29823.675
2461.60254	29837.575
2464.36507	29870.275
2467.12586	29815.275
2469.88492	29853.975
2472.64224	29869.175
2475.39782	29892.875
2478.15167	29975.775
2480.90379	29985.375
2483.65417	30067.075
2486.40283	30152.475
2489.14976	30160.375
2491.89497	30208.675
2494.63845	30232.375
2497.3802	30154.075
2500.12024	30169.075
2502.85855	30130.875
2505.59514	30101.375
2508.33002	30028.975
2511.06318	29992.375
2513.79462	29975.275
2516.52435	29944.375
2519.25237	29918.575
2521.97867	29897.675
2524.70327	29918.275
2527.42616	29928.775
2530.14734	29912.375
2532.86681	29932.875
2535.58458	29991.475
2538.30065	29939.675
2541.01501	29940.775
2543.72768	29890.475
2546.43864	29876.675
2549.14791	29853.775
2551.85548	29855.375
2554.56136	29772.675
2557.26554	29745.075
2559.96803	29796.575
2562.66883	29704.475
2565.36794	29742.675
2568.06536	29763.775
2570.7611	29771.875
2573.45514	29756.375
2576.14751	29766.875
2578.83819	29691.475
2581.52719	29683.175
2584.21451	29684.075
2586.90015	29695.175
2589.58411	29693.475
2592.2664	29768.275
2594.94701	29725.175
2597.62594	29750.975
2600.30321	29722.275
2602.9788	29635.875
2605.65273	29603.775
2608.32498	29644.475
2610.99557	29637.575
2613.66449	29666.775
2616.33175	29670.775
2618.99734	29607.775
2621.66128	29626.175
2624.32355	29747.375
2626.98416	29763.075
2629.64311	29702.575
2632.30041	29692.175
2634.95605	29657.675
2637.61004	29663.875
2640.26238	29666.275
2642.91306	29683.375
2645.56209	29663.975
2648.20948	29601.075
2650.85521	29571.475
2653.4993	29484.775
2656.14175	29553.575
2658.78255	29608.775
2661.42171	29663.175
2664.05923	29710.975
2666.6951	29682.675
2669.32934	29686.775
2671.96194	29708.675
2674.59291	29748.475
2677.22224	29719.375
2679.84993	29706.875
2682.476	29675.075
2685.10043	29681.175
2687.72324	29604.575
2690.34441	29602.175
2692.96396	29620.675
2695.58188	29550.875
2698.19818	29493.875
2700.81285	29516.575
2703.4259	29529.975
2706.03733	29624.775
2708.64714	29620.375
2711.25533	29675.775
2713.86191	29678.375
2716.46687	29741.275
2719.07021	29704.575
2721.67194	29730.475
2724.27206	29755.575
2726.87057	29750.575
2729.46747	29791.475
2732.06276	29872.775
2734.65644	29791.475
2737.24852	29821.275
2739.83899	29765.675
2742.42786	29775.475
2745.01513	29712.675
2747.60079	29708.275
2750.18486	29700.175
2752.76733	29738.575
2755.3482	29695.675
2757.92747	29722.575
2760.50515	29652.375
2763.08123	29638.475
2765.65573	29627.775
2768.22863	29673.675
2770.79994	29625.775
2773.36967	29686.675
2775.9378	29616.175
2778.50435	29639.075
2781.06932	29635.275
2783.6327	29635.875
2786.1945	29679.975
2788.75471	29637.275
2791.31335	29560.175
2793.87041	29530.675
2796.42589	29422.675
2798.97979	29472.375
2801.53212	29431.775
2804.08288	29390.575
2806.63206	29348.075
2809.17967	29268.175
2811.72571	29238.175
2814.27018	29171.375
2816.81308	29114.475
2819.35442	29117.375
2821.89419	29059.175
2824.43239	29101.075
2826.96904	29026.575
2829.50412	29037.975
2832.03763	28937.975
2834.56959	28986.175
2837.1	28945.475
2839.62884	28974.075
2842.15613	28912.975
2844.68186	28887.075
2847.20604	28810.275
2849.72867	28867.675
2852.24974	28844.675
2854.76927	28772.575
2857.28724	28791.075
2859.80367	28814.975
2862.31855	28840.275
2864.83189	28812.475
2867.34368	28803.775
2869.85393	28817.275
2872.36264	28759.175
2874.8698	28712.675
2877.37543	28730.575
2879.87952	28759.075
2882.38207	28782.975
2884.88308	28781.875
2887.38256	28810.775
2889.88051	28794.475
2892.37692	28806.875
2894.8718	28833.675
2897.36515	28864.075
2899.85698	28846.375
2902.34727	28889.275
2904.83604	28950.975
2907.32328	29019.975
2909.809	29056.175
2912.29319	29065.675
2914.77587	29064.775
2917.25702	29073.875
2919.73665	29037.075
2922.21476	29085.175
2924.69136	29004.075
2927.16644	29032.375
2929.64	28973.575
2932.11205	28960.975
2934.58258	28820.675
2937.05161	28861.575
2939.51912	28856.775
2941.98513	28848.375
2944.44962	28823.775
2946.91261	28727.675
2949.37409	28818.075
2951.83407	28843.575
2954.29254	28875.175
2956.74951	28802.375
2959.20498	28816.675
2961.65895	28836.575
2964.11142	28937.975
2966.56239	28839.575
2969.01186	28768.075
2971.45984	28718.275
2973.90632	28718.775
2976.35131	28594.675
2978.7948	28567.175
2981.23681	28537.775
2983.67732	28507.475
2986.11635	28517.075
2988.55388	28469.075
2990.98993	28458.975
2993.4245	28325.275
2995.85758	28272.475
2998.28917	28238.075
3000.71928	28145.175
3003.14791	28075.575
3005.57506	28058.975
3008.00073	27974.775
3010.42493	27986.475
3012.84764	27927.275
3015.26888	27929.675
3017.68865	27848.275
3020.10694	27845.275
3022.52376	27818.575
3024.9391	27790.775
3027.35298	27764.175
3029.76539	27779.075
3032.17632	27774.375
3034.5858	27791.475
3036.9938	27824.275
3039.40034	27723.375
3041.80542	27740.875
3044.20903	27672.075
3046.61118	27674.775
3049.01187	27583.675
3051.4111	27587.975
3053.80888	27518.375
3056.20519	27504.375
3058.60005	27476.875
3060.99345	27423.775
3063.3854	27334.175
3065.7759	27260.375
3068.16494	27217.875
3070.55254	27133.475
3072.93868	27108.075
3075.32338	27037.575
3077.70662	26967.675
3080.08842	26885.875
3082.46878	26903.075
3084.84769	26881.975
3087.22515	26912.675
3089.60118	26901.775
3091.97576	26888.775
3094.3489	26868.475
3096.72061	26881.175
3099.09087	26896.375
3101.4597	26863.475
3103.82709	26892.675
3106.19305	26878.375
3108.55757	26868.075
3110.92066	26823.975
3113.28232	26779.175
3115.64255	26757.275
3118.00134	26710.375
3120.35871	26694.075
3122.71466	26649.575
3125.06917	26570.675
3127.42226	26482.575
3129.77393	26508.275
3132.12417	26493.275
3134.47299	26496.975
3136.82039	26472.075
3139.16636	26454.375
3141.51092	26443.675
3143.85406	26432.375
3146.19579	26434.275
3148.53609	26478.275
3150.87499	26467.475
3153.21246	26446.975
3155.54853	26485.475
3157.88318	26433.775
3160.21642	26483.175
3162.54826	26492.475
3164.87868	26575.675
3167.2077	26603.875
3169.5353	26586.475
3171.86151	26496.675
3174.18631	26452.675
3176.5097	26459.275
3178.83169	26490.475
3181.15228	26539.075
3183.47147	26431.575
3185.78926	26399.175
3188.10565	26393.775
3190.42065	26360.275
3192.73424	26371.975
3195.04645	26340.575
3197.35725	26328.875
3199.66667	26265.375
3201.97469	26326.175
3204.28132	26277.675
3206.58656	26328.175
3208.8904	26286.075
3211.19287	26315.675
3213.49394	26293.075
3215.79363	26356.675
3218.09193	26390.775
3220.38884	26367.775
3222.68438	26400.375
3224.97853	26389.875
3227.2713	26424.775
3229.56269	26437.775
3231.8527	26443.875
3234.14133	26445.175
3236.42858	26393.275
3238.71446	26379.575
3240.99896	26286.275
3243.28209	26301.575
3245.56384	26207.275
3247.84423	26211.975
3250.12324	26195.875
3252.40088	26147.875
3254.67715	26116.175
3256.95205	26079.675
3259.22558	26124.075
3261.49775	26144.975
3263.76855	26139.375
3266.03799	26118.175
3268.30606	26117.575
3270.57277	26059.575
3272.83812	25977.575
3275.10211	25957.975
3277.36474	25907.175
3279.62601	25904.575
3281.88593	25935.075
3284.14448	25962.275
3286.40168	25946.175
3288.65753	25945.475
3290.91202	25974.475
3293.16516	25904.675
3295.41695	25925.775
3297.66738	25790.675
3299.91647	25675.875
3302.16421	25501.575
3304.4106	25428.075
3306.65564	25336.575
3308.89933	25140.675
3311.14169	24980.375
3313.38269	24803.375
3315.62236	24699.975
3317.86068	24513.275
3320.09766	24355.075
3322.3333	24272.075
3324.5676	24181.275
3326.80056	23823.575
3329.03219	23746.775
3331.26248	4.975
3333.49143	0.275
3335.71905	0.975
