Data from AgNPs_UA_20uM_CRN_0uM_R6G_10uM_Q_RamanShift__17__12-56-12-023.txt Node

Date: Mon Jul 18 12:56:12 BST 2022
User: TCL
Spectrometer: QEP01345
Trigger mode: 4
Integration Time (sec): 7.000000E0
Scans to average: 10
Electric dark correction enabled: true
Nonlinearity correction enabled: false
Boxcar width: 0
XAxis mode: Raman Shifts
Number of Pixels in Spectrum: 1044
>>>>>Begin Spectral Data<<<<<
46.04893	-2.4625
50.45542	-0.8625
54.85868	1.3375
59.25871	-1.7625
63.6555	131.8375
68.04907	143.4375
72.43941	144.7375
76.82654	147.3375
81.21044	157.8375
85.59113	161.7375
89.96862	169.1375
94.34289	170.4375
98.71396	180.3375
103.08183	183.0375
107.4465	192.1375
111.80798	192.8375
116.16626	198.6375
120.52136	207.4375
124.87327	220.0375
129.222	229.1375
133.56755	243.9375
137.90993	271.3375
142.24913	292.9375
146.58517	333.9375
150.91804	392.4375
155.24774	468.4375
159.57429	577.7375
163.89768	753.5375
168.21792	1010.7375
172.53501	1367.9375
176.84895	1916.5375
181.15975	2704.6375
185.46741	3789.3375
189.77193	5232.5375
194.07331	6988.1375
198.37157	8957.9375
202.6667	11009.0375
206.9587	13041.8375
211.24758	15041.1375
215.53334	17053.1375
219.81599	19201.7375
224.09553	21598.5375
228.37195	24294.5375
232.64527	27183.4375
236.91549	30218.1375
241.18261	33188.7375
245.44663	35964.8375
249.70755	38422.5375
253.96539	40562.3375
258.22014	42375.0375
262.4718	43843.3375
266.72039	44934.7375
270.96589	45491.7375
275.20832	45536.3375
279.44768	45304.3375
283.68397	44695.3375
287.91719	44310.3375
292.14735	44083.1375
296.37445	44208.6375
300.59849	44445.7375
304.81948	44797.7375
309.03742	44936.3375
313.25231	44632.9375
317.46415	43815.1375
321.67296	42651.6375
325.87872	41786.0375
330.08145	41422.3375
334.28114	41511.2375
338.47781	41945.8375
342.67145	42552.8375
346.86207	43310.3375
351.04966	44283.2375
355.23424	45282.8375
359.4158	46206.2375
363.59435	46837.3375
367.76989	47233.7375
371.94243	47474.7375
376.11196	47615.9375
380.27849	47835.1375
384.44203	48096.9375
388.60257	48275.9375
392.76012	48600.2375
396.91468	49044.4375
401.06626	49713.1375
405.21485	50121.7375
409.36047	49903.7375
413.50311	49064.7375
417.64277	48506.9375
421.77947	48323.3375
425.9132	48300.7375
430.04396	48548.4375
434.17176	48873.2375
438.2966	49368.4375
442.41849	50261.2375
446.53742	51528.6375
450.6534	52823.2375
454.76644	53677.3375
458.87653	53877.2375
462.98368	53578.4375
467.08789	53032.6375
471.18916	52380.7375
475.2875	51712.9375
479.38291	51260.5375
483.4754	50714.7375
487.56496	50197.4375
491.6516	49729.6375
495.73531	49350.3375
499.81612	49357.2375
503.89401	49585.5375
507.96899	49749.2375
512.04106	49880.0375
516.11023	49864.3375
520.1765	49853.3375
524.23987	49692.1375
528.30034	49520.8375
532.35792	49235.3375
536.41261	48803.1375
540.46441	48458.0375
544.51333	48528.8375
548.55936	49077.8375
552.60252	49898.8375
556.64279	50819.7375
560.6802	51511.4375
564.71473	51825.8375
568.7464	52528.5375
572.7752	53300.9375
576.80114	53660.6375
580.82422	54084.0375
584.84444	54701.2375
588.86181	55418.8375
592.87633	56210.9375
596.888	56716.6375
600.89682	57186.4375
604.9028	59606.7375
608.90594	65622.2375
612.90624	70566.7375
616.90371	65033.3375
620.89834	55192.8375
624.89015	51632.0375
628.87913	51370.3375
632.86528	51451.3375
636.84862	51224.7375
640.82913	50387.9375
644.80683	49210.5375
648.78172	48422.4375
652.75379	48549.3375
656.72306	49329.0375
660.68952	50187.3375
664.65319	49845.8375
668.61405	49091.9375
672.57211	48990.2375
676.52738	49045.9375
680.47986	48913.9375
684.42955	48715.2375
688.37646	48765.0375
692.32058	48975.3375
696.26192	49443.4375
700.20048	49904.2375
704.13626	50156.7375
708.06928	49981.4375
711.99952	49636.7375
715.927	49592.9375
719.85171	49683.9375
723.77365	49527.4375
727.69284	49173.6375
731.60928	48838.0375
735.52295	48820.4375
739.43388	48966.7375
743.34206	49098.3375
747.24749	49217.5375
751.15017	49473.3375
755.05012	50056.1375
758.94733	51547.3375
762.8418	54396.6375
766.73354	58695.9375
770.62254	62256.8375
774.50882	62776.8375
778.39237	59999.9375
782.27321	55925.6375
786.15132	52468.3375
790.02671	50510.0375
793.89938	49436.7375
797.76935	49092.3375
801.6366	48937.6375
805.50115	48734.6375
809.36299	48528.1375
813.22213	48227.0375
817.07857	48114.5375
820.93231	48047.4375
824.78336	48096.3375
828.63172	48048.6375
832.47738	48059.3375
836.32036	48175.6375
840.16066	48338.2375
843.99827	48415.0375
847.8332	48350.8375
851.66546	48265.1375
855.49504	48324.9375
859.32195	48274.3375
863.1462	48155.2375
866.96777	48151.5375
870.78668	48064.7375
874.60293	48059.7375
878.41652	48118.7375
882.22745	48336.0375
886.03573	48388.1375
889.84136	48350.8375
893.64433	48190.0375
897.44466	48053.2375
901.24235	47867.3375
905.0374	47706.0375
908.8298	47705.3375
912.61957	47738.3375
916.40671	47974.3375
920.19121	48462.7375
923.97308	48867.6375
927.75233	49197.3375
931.52895	49198.8375
935.30295	48671.0375
939.07433	47895.9375
942.84309	47314.5375
946.60924	47086.8375
950.37278	47023.5375
954.13371	46854.5375
957.89203	46785.6375
961.64774	46707.4375
965.40086	46595.3375
969.15137	46451.4375
972.89929	46394.2375
976.64461	46444.2375
980.38733	46463.5375
984.12747	46721.1375
987.86502	47106.0375
991.59999	47614.1375
995.33237	48354.6375
999.06217	49509.2375
1002.78939	50711.7375
1006.51404	51220.8375
1010.23611	51462.0375
1013.95561	51791.6375
1017.67255	51813.5375
1021.38692	51489.9375
1025.09872	51150.7375
1028.80796	51492.1375
1032.51465	52486.7375
1036.21877	53335.3375
1039.92035	53268.8375
1043.61937	52654.1375
1047.31584	51705.9375
1051.00976	50844.6375
1054.70114	50512.4375
1058.38998	50568.2375
1062.07627	50870.6375
1065.76003	51091.7375
1069.44126	51430.2375
1073.11995	51923.7375
1076.79611	52546.2375
1080.46974	52881.3375
1084.14085	53451.3375
1087.80943	54065.5375
1091.47549	54335.4375
1095.13903	53961.5375
1098.80005	53063.5375
1102.45857	52336.6375
1106.11456	51959.8375
1109.76805	52018.4375
1113.41903	52358.2375
1117.06751	52973.9375
1120.71348	53625.2375
1124.35696	54221.9375
1127.99793	54722.9375
1131.63641	54693.1375
1135.2724	54113.8375
1138.90589	53514.5375
1142.5369	53184.1375
1146.16542	53068.3375
1149.79145	53176.8375
1153.415	53508.1375
1157.03607	54113.1375
1160.65467	55145.6375
1164.27079	57006.8375
1167.88443	59436.0375
1171.49561	62765.6375
1175.10432	67072.3375
1178.71056	72422.4375
1182.31434	77002.4375
1185.91565	78980.8375
1189.51451	78211.6375
1193.11091	75467.0375
1196.70485	72291.5375
1200.29634	69464.4375
1203.88538	67182.4375
1207.47197	65105.1375
1211.05612	63409.6375
1214.63782	62390.9375
1218.21708	62022.6375
1221.79391	61975.8375
1225.36829	62149.1375
1228.94024	61668.2375
1232.50976	60604.9375
1236.07685	59794.5375
1239.6415	59458.2375
1243.20374	59451.3375
1246.76355	59874.9375
1250.32093	60741.3375
1253.8759	61753.3375
1257.42845	63105.1375
1260.97859	64544.7375
1264.52631	66052.2375
1268.07163	67551.2375
1271.61453	69151.4375
1275.15503	70894.2375
1278.69312	72545.0375
1282.22882	73885.5375
1285.76211	75239.5375
1289.29301	76728.8375
1292.82151	78593.9375
1296.34761	81224.7375
1299.87133	84860.4375
1303.39266	89749.3375
1306.9116	95669.1375
1310.42815	101430.1375
1313.94233	104823.6375
1317.45412	104315.3375
1320.96354	101453.8375
1324.47058	98192.1375
1327.97525	95123.0375
1331.47754	93059.6375
1334.97747	92136.7375
1338.47502	92000.2375
1341.97022	92468.4375
1345.46305	92962.8375
1348.95352	93309.9375
1352.44163	94119.9375
1355.92738	96536.4375
1359.41078	101290.8375
1362.89183	105151.7375
1366.37053	102235.4375
1369.84688	93039.5375
1373.32088	83697.8375
1376.79254	77574.8375
1380.26186	74749.6375
1383.72883	73801.4375
1387.19347	73078.2375
1390.65578	72114.9375
1394.11575	71628.9375
1397.57339	71709.6375
1401.0287	72410.8375
1404.48168	73058.1375
1407.93234	73104.5375
1411.38068	72402.1375
1414.82669	71128.2375
1418.27039	69274.3375
1421.71177	67538.3375
1425.15083	66117.5375
1428.58758	65338.5375
1432.02203	65724.4375
1435.45416	66937.9375
1438.88399	68089.0375
1442.31151	69021.0375
1445.73673	69719.6375
1449.15965	70180.1375
1452.58027	70563.6375
1455.9986	70564.9375
1459.41463	70946.9375
1462.82837	71860.7375
1466.23982	72958.3375
1469.64898	74042.7375
1473.05586	74747.8375
1476.46045	74897.2375
1479.86276	74683.9375
1483.26279	74400.5375
1486.66054	74438.1375
1490.05602	74950.9375
1493.44922	75921.5375
1496.84016	77606.1375
1500.22882	80332.4375
1503.61521	84276.0375
1506.99934	88689.5375
1510.38121	91874.4375
1513.76081	92105.9375
1517.13816	88881.9375
1520.51324	83937.1375
1523.88607	79596.7375
1527.25665	77151.6375
1530.62498	75989.0375
1533.99105	75248.9375
1537.35488	74684.0375
1540.71647	73838.6375
1544.07581	73004.5375
1547.4329	71918.6375
1550.78776	70946.4375
1554.14038	70343.7375
1557.49077	70041.8375
1560.83892	70062.8375
1564.18484	70412.4375
1567.52853	71033.3375
1570.86999	71607.0375
1574.20922	72337.4375
1577.54624	72584.1375
1580.88103	71810.8375
1584.2136	71159.3375
1587.54395	71752.4375
1590.87208	74103.4375
1594.19801	77943.2375
1597.52172	82047.4375
1600.84321	83245.1375
1604.16251	80647.0375
1607.47959	75895.4375
1610.79447	70720.7375
1614.10715	65998.6375
1617.41763	62157.6375
1620.7259	59412.8375
1624.03199	58013.6375
1627.33587	58058.6375
1630.63757	59505.0375
1633.93707	62459.5375
1637.23439	67344.3375
1640.52951	73949.8375
1643.82246	81193.9375
1647.11321	86580.6375
1650.40179	87185.4375
1653.68819	81720.8375
1656.97241	72578.9375
1660.25446	63771.5375
1663.53433	57477.6375
1666.81203	53495.5375
1670.08756	50956.9375
1673.36092	49323.9375
1676.63211	48268.2375
1679.90115	47409.1375
1683.16801	46816.7375
1686.43272	46307.0375
1689.69527	45943.6375
1692.95567	45610.5375
1696.2139	45427.9375
1699.46999	45286.9375
1702.72392	45166.3375
1705.97571	45145.0375
1709.22535	45064.7375
1712.47284	45104.0375
1715.71819	44957.7375
1718.96139	44925.3375
1722.20246	44727.5375
1725.44139	44588.4375
1728.67818	44338.2375
1731.91284	44226.0375
1735.14537	44068.3375
1738.37576	43843.1375
1741.60403	43737.6375
1744.83017	43575.8375
1748.05418	43491.7375
1751.27607	43408.1375
1754.49584	43359.2375
1757.71349	43355.1375
1760.92903	43274.0375
1764.14244	43206.3375
1767.35375	43204.7375
1770.56294	43119.8375
1773.77002	43104.0375
1776.97499	43093.0375
1780.17785	42920.8375
1783.37861	42880.9375
1786.57727	42807.9375
1789.77382	42787.4375
1792.96828	42711.3375
1796.16064	42623.9375
1799.3509	42567.5375
1802.53907	42438.8375
1805.72514	42334.3375
1808.90913	42336.6375
1812.09102	42292.7375
1815.27083	42211.0375
1818.44856	42157.7375
1821.6242	42092.1375
1824.79776	42028.3375
1827.96924	41959.3375
1831.13864	41907.3375
1834.30597	42010.1375
1837.47122	41871.2375
1840.6344	41853.3375
1843.7955	41821.9375
1846.95454	41816.6375
1850.11151	41899.4375
1853.26642	41867.6375
1856.41926	41832.2375
1859.57004	41814.6375
1862.71876	41774.7375
1865.86542	41832.7375
1869.01003	41796.8375
1872.15258	41735.2375
1875.29308	41701.7375
1878.43152	41658.2375
1881.56792	41641.8375
1884.70227	41616.7375
1887.83457	41574.9375
1890.96482	41554.1375
1894.09304	41497.0375
1897.21921	41526.2375
1900.34335	41502.0375
1903.46544	41349.7375
1906.58551	41228.7375
1909.70353	41262.9375
1912.81953	41279.3375
1915.93349	41255.8375
1919.04543	41134.5375
1922.15534	41129.4375
1925.26322	41040.3375
1928.36908	41041.4375
1931.47292	40928.4375
1934.57473	40877.3375
1937.67453	40761.8375
1940.77232	40659.3375
1943.86808	40496.8375
1946.96184	40390.7375
1950.05358	40230.7375
1953.14331	40105.6375
1956.23103	39999.4375
1959.31675	39903.4375
1962.40046	39823.0375
1965.48217	39691.5375
1968.56188	39634.2375
1971.63959	39529.9375
1974.7153	39392.7375
1977.78901	39321.8375
1980.86073	39223.6375
1983.93046	39112.2375
1986.99819	38946.6375
1990.06394	38932.1375
1993.1277	38757.4375
1996.18947	38686.8375
1999.24925	38627.2375
2002.30706	38458.9375
2005.36288	38470.2375
2008.41672	38407.4375
2011.46859	38289.2375
2014.51848	38193.1375
2017.56639	38109.8375
2020.61233	38036.5375
2023.6563	38009.6375
2026.6983	37838.9375
2029.73833	37786.0375
2032.7764	37689.4375
2035.8125	37638.6375
2038.84664	37612.4375
2041.87881	37584.1375
2044.90903	37484.7375
2047.93729	37395.3375
2050.96359	37385.8375
2053.98794	37353.4375
2057.01034	37279.7375
2060.03078	37382.6375
2063.04927	37298.2375
2066.06582	37274.2375
2069.08042	37282.2375
2072.09307	37268.6375
2075.10378	37293.3375
2078.11255	37267.7375
2081.11938	37251.9375
2084.12426	37146.2375
2087.12722	37211.8375
2090.12824	37210.9375
2093.12732	37183.2375
2096.12447	37158.5375
2099.11969	37218.8375
2102.11299	37177.6375
2105.10435	37260.1375
2108.09379	37222.1375
2111.08131	37317.8375
2114.0669	37298.2375
2117.05057	37281.3375
2120.03233	37280.7375
2123.01216	37325.0375
2125.99008	37375.6375
2128.96609	37513.9375
2131.94018	37631.1375
2134.91236	37677.7375
2137.88263	37641.4375
2140.851	37678.5375
2143.81746	37791.0375
2146.78201	37780.6375
2149.74466	37807.1375
2152.7054	37819.6375
2155.66425	37743.1375
2158.6212	37715.3375
2161.57625	37670.9375
2164.52941	37730.7375
2167.48067	37764.6375
2170.43004	37782.3375
2173.37752	37704.2375
2176.32311	37697.7375
2179.26681	37723.0375
2182.20863	37747.4375
2185.14856	37776.6375
2188.08661	37769.8375
2191.02278	37800.2375
2193.95707	37802.6375
2196.88948	37739.6375
2199.82001	37766.6375
2202.74867	37751.1375
2205.67545	37727.5375
2208.60037	37699.6375
2211.52341	37628.3375
2214.44458	37678.6375
2217.36388	37579.8375
2220.28132	37516.8375
2223.1969	37452.1375
2226.11061	37394.3375
2229.02246	37287.8375
2231.93245	37262.0375
2234.84058	37242.9375
2237.74686	37166.0375
2240.65128	37103.2375
2243.55385	37065.6375
2246.45456	37044.4375
2249.35343	36946.9375
2252.25044	36926.3375
2255.14561	36856.2375
2258.03893	36851.0375
2260.93041	36769.3375
2263.82004	36750.1375
2266.70783	36721.6375
2269.59378	36614.0375
2272.4779	36638.5375
2275.36017	36570.1375
2278.24061	36498.0375
2281.11922	36442.1375
2283.996	36391.2375
2286.87094	36386.5375
2289.74405	36348.1375
2292.61534	36325.0375
2295.4848	36327.0375
2298.35243	36406.9375
2301.21824	36409.4375
2304.08223	36401.2375
2306.94439	36326.8375
2309.80474	36274.1375
2312.66327	36309.7375
2315.51999	36317.9375
2318.37489	36371.0375
2321.22797	36378.6375
2324.07925	36326.7375
2326.92871	36274.2375
2329.77637	36295.7375
2332.62222	36186.2375
2335.46626	36198.8375
2338.3085	36145.8375
2341.14893	36106.3375
2343.98756	36167.2375
2346.8244	36253.2375
2349.65943	36340.1375
2352.49267	36287.9375
2355.32411	36311.3375
2358.15376	36199.5375
2360.98161	36192.4375
2363.80768	36149.6375
2366.63195	36183.7375
2369.45444	36157.7375
2372.27514	36081.2375
2375.09405	36008.2375
2377.91118	35905.0375
2380.72652	35802.7375
2383.54009	35710.6375
2386.35187	35755.6375
2389.16188	35641.2375
2391.97011	35618.4375
2394.77657	35556.9375
2397.58125	35535.2375
2400.38416	35510.7375
2403.18529	35477.4375
2405.98466	35477.0375
2408.78226	35384.5375
2411.57809	35330.4375
2414.37216	35259.1375
2417.16446	35185.8375
2419.955	35122.7375
2422.74378	35141.5375
2425.5308	35107.3375
2428.31606	35113.0375
2431.09956	35151.9375
2433.88131	35049.0375
2436.6613	35050.1375
2439.43954	35119.7375
2442.21603	35082.8375
2444.99077	35038.3375
2447.76377	35044.4375
2450.53501	35028.6375
2453.30451	35048.9375
2456.07226	35009.1375
2458.83827	35022.2375
2461.60254	35060.1375
2464.36507	35008.4375
2467.12586	34984.5375
2469.88492	34958.3375
2472.64224	35008.6375
2475.39782	34995.0375
2478.15167	35052.5375
2480.90379	35051.6375
2483.65417	35152.8375
2486.40283	35157.9375
2489.14976	35182.1375
2491.89497	35227.0375
2494.63845	35215.4375
2497.3802	35206.3375
2500.12024	35200.3375
2502.85855	35181.4375
2505.59514	35120.1375
2508.33002	34979.4375
2511.06318	35000.0375
2513.79462	34956.7375
2516.52435	34872.9375
2519.25237	34894.3375
2521.97867	34883.9375
2524.70327	34877.2375
2527.42616	34875.4375
2530.14734	34853.6375
2532.86681	34793.8375
2535.58458	34774.2375
2538.30065	34846.7375
2541.01501	34912.3375
2543.72768	34849.3375
2546.43864	34834.2375
2549.14791	34756.5375
2551.85548	34728.1375
2554.56136	34692.7375
2557.26554	34630.0375
2559.96803	34618.7375
2562.66883	34507.1375
2565.36794	34468.7375
2568.06536	34521.4375
2570.7611	34466.7375
2573.45514	34377.0375
2576.14751	34384.1375
2578.83819	34318.8375
2581.52719	34378.5375
2584.21451	34360.0375
2586.90015	34259.0375
2589.58411	34262.3375
2592.2664	34311.2375
2594.94701	34261.8375
2597.62594	34308.6375
2600.30321	34253.7375
2602.9788	34236.6375
2605.65273	34197.9375
2608.32498	34132.4375
2610.99557	34143.5375
2613.66449	34184.8375
2616.33175	34171.3375
2618.99734	34168.0375
2621.66128	34215.0375
2624.32355	34165.0375
2626.98416	34119.7375
2629.64311	34066.4375
2632.30041	34102.1375
2634.95605	34046.8375
2637.61004	34070.7375
2640.26238	34063.3375
2642.91306	34009.3375
2645.56209	33973.5375
2648.20948	33947.3375
2650.85521	33897.6375
2653.4993	33922.8375
2656.14175	33897.9375
2658.78255	33978.0375
2661.42171	34022.4375
2664.05923	34083.6375
2666.6951	34068.8375
2669.32934	34127.6375
2671.96194	34084.6375
2674.59291	34079.7375
2677.22224	33989.7375
2679.84993	34058.1375
2682.476	34027.6375
2685.10043	34073.3375
2687.72324	33960.5375
2690.34441	33958.1375
2692.96396	33943.5375
2695.58188	34021.3375
2698.19818	33972.0375
2700.81285	33977.7375
2703.4259	33897.4375
2706.03733	33925.4375
2708.64714	33984.8375
2711.25533	34010.3375
2713.86191	34001.6375
2716.46687	34112.2375
2719.07021	34059.2375
2721.67194	34178.8375
2724.27206	34179.7375
2726.87057	34214.9375
2729.46747	34155.4375
2732.06276	34234.2375
2734.65644	34230.7375
2737.24852	34243.7375
2739.83899	34167.6375
2742.42786	34143.7375
2745.01513	34037.6375
2747.60079	34084.1375
2750.18486	34075.5375
2752.76733	34116.8375
2755.3482	34049.9375
2757.92747	34077.3375
2760.50515	34024.8375
2763.08123	34038.8375
2765.65573	33954.6375
2768.22863	33974.0375
2770.79994	33975.8375
2773.36967	34012.6375
2775.9378	33923.2375
2778.50435	33853.0375
2781.06932	33863.0375
2783.6327	33854.8375
2786.1945	33813.7375
2788.75471	33810.2375
2791.31335	33746.1375
2793.87041	33716.9375
2796.42589	33660.5375
2798.97979	33664.3375
2801.53212	33644.3375
2804.08288	33652.4375
2806.63206	33558.7375
2809.17967	33499.5375
2811.72571	33406.1375
2814.27018	33381.3375
2816.81308	33266.1375
2819.35442	33257.3375
2821.89419	33167.7375
2824.43239	33194.3375
2826.96904	33209.5375
2829.50412	33188.8375
2832.03763	33120.9375
2834.56959	33163.7375
2837.1	33072.6375
2839.62884	33028.8375
2842.15613	32971.4375
2844.68186	32979.7375
2847.20604	32925.8375
2849.72867	32940.3375
2852.24974	32965.2375
2854.76927	32960.1375
2857.28724	32929.2375
2859.80367	32912.9375
2862.31855	32818.2375
2864.83189	32806.2375
2867.34368	32792.3375
2869.85393	32775.9375
2872.36264	32704.4375
2874.8698	32664.9375
2877.37543	32706.7375
2879.87952	32666.0375
2882.38207	32678.7375
2884.88308	32669.5375
2887.38256	32753.1375
2889.88051	32734.8375
2892.37692	32787.4375
2894.8718	32736.1375
2897.36515	32824.2375
2899.85698	32794.4375
2902.34727	32903.2375
2904.83604	32943.7375
2907.32328	33014.4375
2909.809	33107.3375
2912.29319	33102.6375
2914.77587	33094.8375
2917.25702	33160.2375
2919.73665	33114.9375
2922.21476	33128.5375
2924.69136	33048.7375
2927.16644	33030.8375
2929.64	32926.6375
2932.11205	32867.1375
2934.58258	32786.5375
2937.05161	32814.6375
2939.51912	32784.5375
2941.98513	32781.5375
2944.44962	32707.2375
2946.91261	32731.6375
2949.37409	32824.8375
2951.83407	32847.3375
2954.29254	32833.9375
2956.74951	32824.7375
2959.20498	32834.6375
2961.65895	32803.0375
2964.11142	32854.4375
2966.56239	32800.0375
2969.01186	32781.6375
2971.45984	32704.5375
2973.90632	32770.2375
2976.35131	32704.7375
2978.7948	32712.8375
2981.23681	32627.0375
2983.67732	32600.6375
2986.11635	32504.8375
2988.55388	32463.3375
2990.98993	32429.9375
2993.4245	32338.5375
2995.85758	32295.6375
2998.28917	32182.4375
3000.71928	32109.4375
3003.14791	32025.2375
3005.57506	31966.9375
3008.00073	31864.9375
3010.42493	31849.5375
3012.84764	31847.0375
3015.26888	31789.3375
3017.68865	31759.9375
3020.10694	31693.4375
3022.52376	31672.9375
3024.9391	31664.3375
3027.35298	31719.1375
3029.76539	31674.3375
3032.17632	31634.3375
3034.5858	31630.6375
3036.9938	31615.6375
3039.40034	31533.7375
3041.80542	31580.7375
3044.20903	31521.3375
3046.61118	31483.3375
3049.01187	31367.9375
3051.4111	31429.5375
3053.80888	31373.4375
3056.20519	31357.7375
3058.60005	31340.4375
3060.99345	31247.5375
3063.3854	31142.5375
3065.7759	31075.1375
3068.16494	31012.6375
3070.55254	30948.9375
3072.93868	30894.2375
3075.32338	30765.4375
3077.70662	30715.7375
3080.08842	30657.5375
3082.46878	30673.5375
3084.84769	30678.8375
3087.22515	30695.8375
3089.60118	30692.2375
3091.97576	30623.6375
3094.3489	30604.9375
3096.72061	30588.6375
3099.09087	30612.7375
3101.4597	30604.5375
3103.82709	30586.6375
3106.19305	30602.5375
3108.55757	30646.0375
3110.92066	30603.7375
3113.28232	30593.5375
3115.64255	30531.6375
3118.00134	30457.3375
3120.35871	30410.8375
3122.71466	30329.9375
3125.06917	30263.5375
3127.42226	30237.0375
3129.77393	30244.1375
3132.12417	30182.6375
3134.47299	30179.5375
3136.82039	30083.6375
3139.16636	30090.1375
3141.51092	30092.9375
3143.85406	30111.9375
3146.19579	30115.3375
3148.53609	30164.3375
3150.87499	30138.7375
3153.21246	30127.5375
3155.54853	30217.4375
3157.88318	30158.0375
3160.21642	30198.7375
3162.54826	30202.0375
3164.87868	30259.9375
3167.2077	30277.3375
3169.5353	30312.4375
3171.86151	30261.7375
3174.18631	30183.9375
3176.5097	30156.0375
3178.83169	30126.8375
3181.15228	30164.2375
3183.47147	30064.3375
3185.78926	30022.2375
3188.10565	29968.6375
3190.42065	29972.9375
3192.73424	29908.4375
3195.04645	29983.2375
3197.35725	29965.0375
3199.66667	29922.5375
3201.97469	29952.6375
3204.28132	29921.2375
3206.58656	30007.7375
3208.8904	30014.0375
3211.19287	29969.6375
3213.49394	29977.7375
3215.79363	29994.0375
3218.09193	30042.2375
3220.38884	30052.5375
3222.68438	30097.3375
3224.97853	30018.6375
3227.2713	30039.1375
3229.56269	30048.5375
3231.8527	30016.2375
3234.14133	29992.5375
3236.42858	29924.3375
3238.71446	29943.7375
3240.99896	29877.0375
3243.28209	29838.7375
3245.56384	29718.5375
3247.84423	29683.6375
3250.12324	29679.8375
3252.40088	29685.3375
3254.67715	29716.5375
3256.95205	29668.8375
3259.22558	29665.0375
3261.49775	29697.8375
3263.76855	29646.6375
3266.03799	29612.2375
3268.30606	29615.9375
3270.57277	29568.1375
3272.83812	29481.7375
3275.10211	29505.2375
3277.36474	29430.5375
3279.62601	29413.1375
3281.88593	29357.7375
3284.14448	29449.0375
3286.40168	29434.7375
3288.65753	29364.0375
3290.91202	29417.0375
3293.16516	29405.7375
3295.41695	29360.7375
3297.66738	29208.2375
3299.91647	29082.3375
3302.16421	28923.3375
3304.4106	28842.7375
3306.65564	28646.9375
3308.89933	28459.5375
3311.14169	28275.2375
3313.38269	28091.3375
3315.62236	27984.1375
3317.86068	27804.1375
3320.09766	27628.8375
3322.3333	27479.6375
3324.5676	27311.6375
3326.80056	26945.3375
3329.03219	26804.2375
3331.26248	5.2375
3333.49143	-0.4625
3335.71905	1.0375
