Data from AgNPs_UA_100uM_CRN_0uM_R6G_10uM_Q_RamanShift__19__13-34-35-332.txt Node

Date: Tue Jul 26 13:34:35 BST 2022
User: TCL
Spectrometer: QEP01345
Trigger mode: 4
Integration Time (sec): 7.000000E0
Scans to average: 10
Electric dark correction enabled: true
Nonlinearity correction enabled: false
Boxcar width: 0
XAxis mode: Raman Shifts
Number of Pixels in Spectrum: 1044
>>>>>Begin Spectral Data<<<<<
46.04893	-0.7375
50.45542	1.6625
54.85868	-0.8375
59.25871	0.1625
63.6555	55.4625
68.04907	61.6625
72.43941	65.7625
76.82654	71.6625
81.21044	76.7625
85.59113	74.2625
89.96862	78.7625
94.34289	84.8625
98.71396	87.2625
103.08183	89.1625
107.4465	84.7625
111.80798	86.0625
116.16626	92.6625
120.52136	93.2625
124.87327	94.1625
129.222	98.7625
133.56755	102.7625
137.90993	102.4625
142.24913	107.0625
146.58517	114.7625
150.91804	125.9625
155.24774	146.8625
159.57429	169.3625
163.89768	205.0625
168.21792	267.9625
172.53501	353.9625
176.84895	471.4625
181.15975	659.9625
185.46741	913.8625
189.77193	1252.8625
194.07331	1672.0625
198.37157	2134.5625
202.6667	2615.8625
206.9587	3096.0625
211.24758	3583.3625
215.53334	4071.7625
219.81599	4578.6625
224.09553	5169.1625
228.37195	5777.2625
232.64527	6489.4625
236.91549	7172.7625
241.18261	7929.5625
245.44663	8593.9625
249.70755	9169.0625
253.96539	9665.5625
258.22014	10068.1625
262.4718	10406.9625
266.72039	10634.5625
270.96589	10722.7625
275.20832	10699.0625
279.44768	10573.9625
283.68397	10413.5625
287.91719	10278.8625
292.14735	10195.8625
296.37445	10192.5625
300.59849	10271.8625
304.81948	10388.7625
309.03742	10439.1625
313.25231	10396.3625
317.46415	10241.3625
321.67296	9991.2625
325.87872	9808.4625
330.08145	9762.7625
334.28114	9835.6625
338.47781	9933.1625
342.67145	10087.0625
346.86207	10306.9625
351.04966	10578.2625
355.23424	10858.7625
359.4158	11115.0625
363.59435	11327.1625
367.76989	11468.3625
371.94243	11572.1625
376.11196	11683.6625
380.27849	11763.7625
384.44203	11825.9625
388.60257	11855.1625
392.76012	11900.4625
396.91468	12011.6625
401.06626	12152.2625
405.21485	12269.8625
409.36047	12233.4625
413.50311	12044.8625
417.64277	11867.9625
421.77947	11763.1625
425.9132	11725.3625
430.04396	11761.1625
434.17176	11856.6625
438.2966	11978.7625
442.41849	12192.2625
446.53742	12398.1625
450.6534	12635.4625
454.76644	12821.6625
458.87653	12900.5625
462.98368	12872.0625
467.08789	12816.1625
471.18916	12732.9625
475.2875	12572.1625
479.38291	12451.8625
483.4754	12373.4625
487.56496	12308.9625
491.6516	12276.7625
495.73531	12251.4625
499.81612	12275.0625
503.89401	12366.7625
507.96899	12441.5625
512.04106	12458.5625
516.11023	12531.1625
520.1765	12552.4625
524.23987	12636.9625
528.30034	12586.5625
532.35792	12564.3625
536.41261	12520.5625
540.46441	12443.5625
544.51333	12439.4625
548.55936	12431.9625
552.60252	12548.5625
556.64279	12663.2625
560.6802	12764.4625
564.71473	12833.5625
568.7464	12954.2625
572.7752	13002.8625
576.80114	12999.9625
580.82422	12935.7625
584.84444	13009.1625
588.86181	13153.3625
592.87633	13285.5625
596.888	13467.8625
600.89682	13682.1625
604.9028	14421.0625
608.90594	16064.6625
612.90624	17677.3625
616.90371	16747.5625
620.89834	14382.9625
624.89015	13428.5625
628.87913	13344.5625
632.86528	13444.9625
636.84862	13503.7625
640.82913	13364.7625
644.80683	13060.2625
648.78172	12880.4625
652.75379	12878.7625
656.72306	13088.1625
660.68952	13283.5625
664.65319	13267.0625
668.61405	13117.8625
672.57211	13143.8625
676.52738	13175.2625
680.47986	13142.3625
684.42955	13079.0625
688.37646	13078.7625
692.32058	13125.0625
696.26192	13221.7625
700.20048	13306.5625
704.13626	13358.0625
708.06928	13280.6625
711.99952	13194.3625
715.927	13160.1625
719.85171	13220.2625
723.77365	13213.3625
727.69284	13202.9625
731.60928	13163.0625
735.52295	13112.6625
739.43388	13164.8625
743.34206	13200.0625
747.24749	13211.7625
751.15017	13221.6625
755.05012	13341.5625
758.94733	13557.3625
762.8418	14078.6625
766.73354	14945.9625
770.62254	15888.6625
774.50882	16398.0625
778.39237	16070.5625
782.27321	15130.8625
786.15132	14277.8625
790.02671	13725.8625
793.89938	13443.6625
797.76935	13319.8625
801.6366	13270.3625
805.50115	13250.1625
809.36299	13206.9625
813.22213	13143.0625
817.07857	13154.2625
820.93231	13160.5625
824.78336	13150.4625
828.63172	13132.1625
832.47738	13166.9625
836.32036	13164.1625
840.16066	13182.4625
843.99827	13208.9625
847.8332	13179.2625
851.66546	13184.9625
855.49504	13175.8625
859.32195	13225.9625
863.1462	13222.8625
866.96777	13200.3625
870.78668	13225.0625
874.60293	13240.4625
878.41652	13297.8625
882.22745	13350.1625
886.03573	13377.5625
889.84136	13389.0625
893.64433	13356.1625
897.44466	13295.6625
901.24235	13248.8625
905.0374	13201.5625
908.8298	13198.1625
912.61957	13147.0625
916.40671	13184.3625
920.19121	13253.4625
923.97308	13315.5625
927.75233	13385.9625
931.52895	13421.8625
935.30295	13388.4625
939.07433	13259.8625
942.84309	13173.7625
946.60924	13148.3625
950.37278	13090.1625
954.13371	13074.7625
957.89203	13031.0625
961.64774	13020.6625
965.40086	12957.1625
969.15137	12972.9625
972.89929	12954.1625
976.64461	12955.5625
980.38733	12968.2625
984.12747	13018.0625
987.86502	13133.0625
991.59999	13211.1625
995.33237	13380.6625
999.06217	13604.4625
1002.78939	13859.0625
1006.51404	13995.6625
1010.23611	14100.1625
1013.95561	14202.8625
1017.67255	14249.6625
1021.38692	14174.8625
1025.09872	14134.1625
1028.80796	14174.7625
1032.51465	14395.1625
1036.21877	14498.8625
1039.92035	14519.7625
1043.61937	14387.9625
1047.31584	14216.5625
1051.00976	14040.3625
1054.70114	13958.7625
1058.38998	13939.2625
1062.07627	13988.7625
1065.76003	14055.9625
1069.44126	14102.4625
1073.11995	14254.7625
1076.79611	14396.6625
1080.46974	14501.2625
1084.14085	14617.6625
1087.80943	14725.1625
1091.47549	14776.4625
1095.13903	14713.3625
1098.80005	14601.1625
1102.45857	14463.6625
1106.11456	14450.3625
1109.76805	14470.8625
1113.41903	14557.2625
1117.06751	14707.3625
1120.71348	14889.2625
1124.35696	15050.1625
1127.99793	15205.6625
1131.63641	15242.8625
1135.2724	15014.4625
1138.90589	14858.0625
1142.5369	14692.8625
1146.16542	14538.3625
1149.79145	14455.3625
1153.415	14397.6625
1157.03607	14350.6625
1160.65467	14479.5625
1164.27079	14727.2625
1167.88443	15094.7625
1171.49561	15650.5625
1175.10432	16425.2625
1178.71056	17477.5625
1182.31434	18469.4625
1185.91565	19003.2625
1189.51451	18930.6625
1193.11091	18465.5625
1196.70485	17865.2625
1200.29634	17326.9625
1203.88538	16859.5625
1207.47197	16402.9625
1211.05612	16024.7625
1214.63782	15710.3625
1218.21708	15610.3625
1221.79391	15625.2625
1225.36829	15655.7625
1228.94024	15620.2625
1232.50976	15500.7625
1236.07685	15348.8625
1239.6415	15337.8625
1243.20374	15370.3625
1246.76355	15488.9625
1250.32093	15581.8625
1253.8759	15790.2625
1257.42845	16055.0625
1260.97859	16391.0625
1264.52631	16685.3625
1268.07163	17002.3625
1271.61453	17333.5625
1275.15503	17575.7625
1278.69312	17804.4625
1282.22882	17939.3625
1285.76211	18072.3625
1289.29301	18171.8625
1292.82151	18447.6625
1296.34761	18795.4625
1299.87133	19427.6625
1303.39266	20343.6625
1306.9116	21603.4625
1310.42815	22833.6625
1313.94233	23431.1625
1317.45412	23156.4625
1320.96354	22342.0625
1324.47058	21404.9625
1327.97525	20543.6625
1331.47754	19959.7625
1334.97747	19727.3625
1338.47502	19779.3625
1341.97022	20062.6625
1345.46305	20507.7625
1348.95352	21057.1625
1352.44163	21667.9625
1355.92738	22636.3625
1359.41078	24006.8625
1362.89183	25122.9625
1366.37053	24399.9625
1369.84688	22146.4625
1373.32088	19987.6625
1376.79254	18651.4625
1380.26186	17931.9625
1383.72883	17548.1625
1387.19347	17213.4625
1390.65578	16850.2625
1394.11575	16567.7625
1397.57339	16376.4625
1401.0287	16368.1625
1404.48168	16381.5625
1407.93234	16431.7625
1411.38068	16514.0625
1414.82669	16507.1625
1418.27039	16384.8625
1421.71177	16273.8625
1425.15083	16120.9625
1428.58758	16092.1625
1432.02203	16211.4625
1435.45416	16352.6625
1438.88399	16454.6625
1442.31151	16456.6625
1445.73673	16480.2625
1449.15965	16518.9625
1452.58027	16497.2625
1455.9986	16434.4625
1459.41463	16508.9625
1462.82837	16743.0625
1466.23982	16958.7625
1469.64898	17202.9625
1473.05586	17364.8625
1476.46045	17444.8625
1479.86276	17525.8625
1483.26279	17566.6625
1486.66054	17661.2625
1490.05602	17844.8625
1493.44922	18096.5625
1496.84016	18581.0625
1500.22882	19427.2625
1503.61521	20473.7625
1506.99934	21598.7625
1510.38121	22324.8625
1513.76081	22233.9625
1517.13816	21299.0625
1520.51324	19975.5625
1523.88607	18773.8625
1527.25665	18059.5625
1530.62498	17687.7625
1533.99105	17457.7625
1537.35488	17341.4625
1540.71647	17283.8625
1544.07581	17194.2625
1547.4329	17144.6625
1550.78776	17093.5625
1554.14038	17026.0625
1557.49077	17036.7625
1560.83892	17081.7625
1564.18484	17192.5625
1567.52853	17389.0625
1570.86999	17589.5625
1574.20922	17736.6625
1577.54624	17657.2625
1580.88103	17329.3625
1584.2136	16970.4625
1587.54395	16871.6625
1590.87208	17189.6625
1594.19801	17847.1625
1597.52172	18668.1625
1600.84321	19084.2625
1604.16251	18781.8625
1607.47959	18069.7625
1610.79447	17225.3625
1614.10715	16381.8625
1617.41763	15729.0625
1620.7259	15267.8625
1624.03199	15002.3625
1627.33587	14992.2625
1630.63757	15146.2625
1633.93707	15567.0625
1637.23439	16247.6625
1640.52951	17224.4625
1643.82246	18396.2625
1647.11321	19413.0625
1650.40179	19759.6625
1653.68819	18977.6625
1656.97241	17442.2625
1660.25446	15981.3625
1663.53433	14953.5625
1666.81203	14280.7625
1670.08756	13885.7625
1673.36092	13586.0625
1676.63211	13402.7625
1679.90115	13251.1625
1683.16801	13143.4625
1686.43272	13035.8625
1689.69527	12931.8625
1692.95567	12909.9625
1696.2139	12882.9625
1699.46999	12817.7625
1702.72392	12793.3625
1705.97571	12790.1625
1709.22535	12770.4625
1712.47284	12747.3625
1715.71819	12726.8625
1718.96139	12693.5625
1722.20246	12681.8625
1725.44139	12614.9625
1728.67818	12595.2625
1731.91284	12564.4625
1735.14537	12513.3625
1738.37576	12457.1625
1741.60403	12395.3625
1744.83017	12385.8625
1748.05418	12372.0625
1751.27607	12348.4625
1754.49584	12296.2625
1757.71349	12283.5625
1760.92903	12264.2625
1764.14244	12291.9625
1767.35375	12281.7625
1770.56294	12240.3625
1773.77002	12256.9625
1776.97499	12224.2625
1780.17785	12226.1625
1783.37861	12214.8625
1786.57727	12207.6625
1789.77382	12210.7625
1792.96828	12179.1625
1796.16064	12174.4625
1799.3509	12166.2625
1802.53907	12140.6625
1805.72514	12095.5625
1808.90913	12058.2625
1812.09102	12056.7625
1815.27083	12033.5625
1818.44856	12025.5625
1821.6242	12023.5625
1824.79776	11991.3625
1827.96924	11982.4625
1831.13864	11960.5625
1834.30597	11962.4625
1837.47122	11930.3625
1840.6344	11922.4625
1843.7955	11923.2625
1846.95454	11903.2625
1850.11151	11907.9625
1853.26642	11874.2625
1856.41926	11909.2625
1859.57004	11899.4625
1862.71876	11883.3625
1865.86542	11898.5625
1869.01003	11867.4625
1872.15258	11883.9625
1875.29308	11872.3625
1878.43152	11843.5625
1881.56792	11867.7625
1884.70227	11856.8625
1887.83457	11790.1625
1890.96482	11825.4625
1894.09304	11806.7625
1897.21921	11797.3625
1900.34335	11757.0625
1903.46544	11782.6625
1906.58551	11774.2625
1909.70353	11752.4625
1912.81953	11756.8625
1915.93349	11739.2625
1919.04543	11722.1625
1922.15534	11715.1625
1925.26322	11710.0625
1928.36908	11697.5625
1931.47292	11673.0625
1934.57473	11662.6625
1937.67453	11612.7625
1940.77232	11621.1625
1943.86808	11562.7625
1946.96184	11535.2625
1950.05358	11509.1625
1953.14331	11501.7625
1956.23103	11459.8625
1959.31675	11405.8625
1962.40046	11412.9625
1965.48217	11366.8625
1968.56188	11348.5625
1971.63959	11309.0625
1974.7153	11298.1625
1977.78901	11268.3625
1980.86073	11212.4625
1983.93046	11221.7625
1986.99819	11168.2625
1990.06394	11170.2625
1993.1277	11123.5625
1996.18947	11092.3625
1999.24925	11030.3625
2002.30706	11022.4625
2005.36288	10995.3625
2008.41672	10971.4625
2011.46859	10926.4625
2014.51848	10885.7625
2017.56639	10873.1625
2020.61233	10866.1625
2023.6563	10849.7625
2026.6983	10817.1625
2029.73833	10781.9625
2032.7764	10768.4625
2035.8125	10767.6625
2038.84664	10757.4625
2041.87881	10768.3625
2044.90903	10738.6625
2047.93729	10681.5625
2050.96359	10707.3625
2053.98794	10692.5625
2057.01034	10687.6625
2060.03078	10668.8625
2063.04927	10663.2625
2066.06582	10652.5625
2069.08042	10665.0625
2072.09307	10635.9625
2075.10378	10662.0625
2078.11255	10634.9625
2081.11938	10638.2625
2084.12426	10632.9625
2087.12722	10628.4625
2090.12824	10615.7625
2093.12732	10644.3625
2096.12447	10643.4625
2099.11969	10650.7625
2102.11299	10646.6625
2105.10435	10662.4625
2108.09379	10666.0625
2111.08131	10663.8625
2114.0669	10645.1625
2117.05057	10677.6625
2120.03233	10685.2625
2123.01216	10683.4625
2125.99008	10712.7625
2128.96609	10715.2625
2131.94018	10746.0625
2134.91236	10745.9625
2137.88263	10766.6625
2140.851	10751.2625
2143.81746	10790.0625
2146.78201	10797.7625
2149.74466	10772.0625
2152.7054	10783.9625
2155.66425	10797.7625
2158.6212	10787.9625
2161.57625	10804.9625
2164.52941	10814.9625
2167.48067	10765.4625
2170.43004	10772.6625
2173.37752	10750.2625
2176.32311	10794.6625
2179.26681	10780.6625
2182.20863	10798.1625
2185.14856	10790.0625
2188.08661	10784.5625
2191.02278	10772.0625
2193.95707	10781.5625
2196.88948	10758.8625
2199.82001	10785.6625
2202.74867	10779.6625
2205.67545	10775.2625
2208.60037	10783.2625
2211.52341	10762.6625
2214.44458	10772.9625
2217.36388	10745.9625
2220.28132	10699.1625
2223.1969	10677.7625
2226.11061	10673.9625
2229.02246	10649.1625
2231.93245	10639.4625
2234.84058	10622.7625
2237.74686	10591.2625
2240.65128	10577.5625
2243.55385	10591.5625
2246.45456	10581.0625
2249.35343	10575.0625
2252.25044	10539.5625
2255.14561	10550.7625
2258.03893	10539.3625
2260.93041	10511.1625
2263.82004	10503.0625
2266.70783	10486.3625
2269.59378	10474.1625
2272.4779	10450.5625
2275.36017	10435.4625
2278.24061	10418.8625
2281.11922	10390.3625
2283.996	10390.7625
2286.87094	10385.2625
2289.74405	10353.9625
2292.61534	10341.0625
2295.4848	10333.9625
2298.35243	10346.1625
2301.21824	10352.1625
2304.08223	10364.5625
2306.94439	10328.0625
2309.80474	10350.8625
2312.66327	10351.5625
2315.51999	10334.6625
2318.37489	10350.9625
2321.22797	10358.1625
2324.07925	10321.3625
2326.92871	10317.0625
2329.77637	10301.3625
2332.62222	10292.7625
2335.46626	10260.6625
2338.3085	10245.6625
2341.14893	10243.6625
2343.98756	10276.8625
2346.8244	10265.3625
2349.65943	10256.9625
2352.49267	10236.9625
2355.32411	10223.9625
2358.15376	10230.6625
2360.98161	10238.2625
2363.80768	10220.3625
2366.63195	10210.1625
2369.45444	10210.8625
2372.27514	10208.2625
2375.09405	10206.4625
2377.91118	10177.0625
2380.72652	10150.4625
2383.54009	10129.4625
2386.35187	10128.0625
2389.16188	10081.9625
2391.97011	10086.2625
2394.77657	10056.2625
2397.58125	10043.8625
2400.38416	10047.8625
2403.18529	10007.0625
2405.98466	10013.6625
2408.78226	9985.4625
2411.57809	9982.3625
2414.37216	9968.2625
2417.16446	9979.0625
2419.955	9952.3625
2422.74378	9956.6625
2425.5308	9954.7625
2428.31606	9966.3625
2431.09956	9958.5625
2433.88131	9935.7625
2436.6613	9919.4625
2439.43954	9935.0625
2442.21603	9913.1625
2444.99077	9929.5625
2447.76377	9936.9625
2450.53501	9906.3625
2453.30451	9900.9625
2456.07226	9870.0625
2458.83827	9851.3625
2461.60254	9874.1625
2464.36507	9868.9625
2467.12586	9867.5625
2469.88492	9857.3625
2472.64224	9861.4625
2475.39782	9862.3625
2478.15167	9860.7625
2480.90379	9863.4625
2483.65417	9856.5625
2486.40283	9882.5625
2489.14976	9886.1625
2491.89497	9863.2625
2494.63845	9869.3625
2497.3802	9836.5625
2500.12024	9850.2625
2502.85855	9875.4625
2505.59514	9834.6625
2508.33002	9822.6625
2511.06318	9809.3625
2513.79462	9791.8625
2516.52435	9786.6625
2519.25237	9780.8625
2521.97867	9771.1625
2524.70327	9762.6625
2527.42616	9767.3625
2530.14734	9761.3625
2532.86681	9735.7625
2535.58458	9735.8625
2538.30065	9722.0625
2541.01501	9707.4625
2543.72768	9708.6625
2546.43864	9708.3625
2549.14791	9690.2625
2551.85548	9688.0625
2554.56136	9689.5625
2557.26554	9660.2625
2559.96803	9645.1625
2562.66883	9652.3625
2565.36794	9624.5625
2568.06536	9615.3625
2570.7611	9603.6625
2573.45514	9583.9625
2576.14751	9557.1625
2578.83819	9580.9625
2581.52719	9575.6625
2584.21451	9591.4625
2586.90015	9566.9625
2589.58411	9543.1625
2592.2664	9545.2625
2594.94701	9523.8625
2597.62594	9553.7625
2600.30321	9501.9625
2602.9788	9505.3625
2605.65273	9508.8625
2608.32498	9490.2625
2610.99557	9478.9625
2613.66449	9491.3625
2616.33175	9469.8625
2618.99734	9468.2625
2621.66128	9455.9625
2624.32355	9445.6625
2626.98416	9434.7625
2629.64311	9445.8625
2632.30041	9424.0625
2634.95605	9422.3625
2637.61004	9404.5625
2640.26238	9413.3625
2642.91306	9383.3625
2645.56209	9402.6625
2648.20948	9385.8625
2650.85521	9367.6625
2653.4993	9374.6625
2656.14175	9356.8625
2658.78255	9371.3625
2661.42171	9356.2625
2664.05923	9377.0625
2666.6951	9388.2625
2669.32934	9392.9625
2671.96194	9387.8625
2674.59291	9378.9625
2677.22224	9389.4625
2679.84993	9401.7625
2682.476	9388.2625
2685.10043	9370.4625
2687.72324	9367.7625
2690.34441	9385.6625
2692.96396	9370.3625
2695.58188	9372.6625
2698.19818	9363.0625
2700.81285	9351.3625
2703.4259	9332.7625
2706.03733	9358.8625
2708.64714	9354.5625
2711.25533	9360.3625
2713.86191	9398.6625
2716.46687	9373.1625
2719.07021	9384.4625
2721.67194	9382.9625
2724.27206	9390.0625
2726.87057	9411.4625
2729.46747	9404.8625
2732.06276	9386.0625
2734.65644	9383.8625
2737.24852	9393.0625
2739.83899	9366.5625
2742.42786	9396.2625
2745.01513	9361.3625
2747.60079	9349.2625
2750.18486	9341.2625
2752.76733	9328.7625
2755.3482	9320.2625
2757.92747	9320.7625
2760.50515	9303.6625
2763.08123	9316.6625
2765.65573	9292.0625
2768.22863	9273.8625
2770.79994	9283.0625
2773.36967	9269.9625
2775.9378	9276.2625
2778.50435	9260.2625
2781.06932	9270.9625
2783.6327	9269.6625
2786.1945	9247.5625
2788.75471	9242.3625
2791.31335	9221.5625
2793.87041	9231.4625
2796.42589	9186.2625
2798.97979	9200.1625
2801.53212	9160.6625
2804.08288	9174.8625
2806.63206	9126.8625
2809.17967	9132.6625
2811.72571	9085.3625
2814.27018	9080.4625
2816.81308	9078.8625
2819.35442	9057.8625
2821.89419	9031.4625
2824.43239	9039.2625
2826.96904	9031.7625
2829.50412	9000.0625
2832.03763	8985.3625
2834.56959	8987.5625
2837.1	8977.9625
2839.62884	8979.3625
2842.15613	8995.6625
2844.68186	8964.8625
2847.20604	8966.1625
2849.72867	8975.5625
2852.24974	8927.1625
2854.76927	8910.3625
2857.28724	8926.9625
2859.80367	8933.6625
2862.31855	8930.1625
2864.83189	8911.7625
2867.34368	8893.4625
2869.85393	8901.3625
2872.36264	8888.5625
2874.8698	8875.3625
2877.37543	8858.8625
2879.87952	8882.2625
2882.38207	8901.3625
2884.88308	8920.6625
2887.38256	8917.5625
2889.88051	8903.7625
2892.37692	8914.0625
2894.8718	8888.3625
2897.36515	8910.8625
2899.85698	8895.6625
2902.34727	8923.6625
2904.83604	8950.0625
2907.32328	8955.1625
2909.809	8975.2625
2912.29319	8958.2625
2914.77587	8972.7625
2917.25702	8947.2625
2919.73665	8958.0625
2922.21476	8949.9625
2924.69136	8943.5625
2927.16644	8949.1625
2929.64	8925.3625
2932.11205	8918.6625
2934.58258	8892.2625
2937.05161	8906.8625
2939.51912	8901.0625
2941.98513	8905.6625
2944.44962	8908.9625
2946.91261	8883.7625
2949.37409	8910.6625
2951.83407	8890.3625
2954.29254	8863.6625
2956.74951	8885.7625
2959.20498	8873.4625
2961.65895	8889.4625
2964.11142	8893.2625
2966.56239	8873.5625
2969.01186	8882.0625
2971.45984	8883.3625
2973.90632	8875.8625
2976.35131	8861.3625
2978.7948	8850.5625
2981.23681	8831.9625
2983.67732	8832.1625
2986.11635	8840.8625
2988.55388	8814.1625
2990.98993	8778.6625
2993.4245	8780.3625
2995.85758	8725.9625
2998.28917	8755.8625
3000.71928	8739.5625
3003.14791	8694.4625
3005.57506	8717.4625
3008.00073	8674.0625
3010.42493	8700.2625
3012.84764	8655.6625
3015.26888	8666.1625
3017.68865	8671.9625
3020.10694	8660.2625
3022.52376	8626.9625
3024.9391	8631.2625
3027.35298	8636.3625
3029.76539	8626.5625
3032.17632	8620.9625
3034.5858	8600.7625
3036.9938	8611.6625
3039.40034	8590.1625
3041.80542	8595.9625
3044.20903	8589.5625
3046.61118	8616.3625
3049.01187	8577.6625
3051.4111	8569.8625
3053.80888	8550.4625
3056.20519	8555.1625
3058.60005	8519.4625
3060.99345	8496.3625
3063.3854	8502.6625
3065.7759	8484.3625
3068.16494	8482.9625
3070.55254	8446.6625
3072.93868	8448.3625
3075.32338	8426.2625
3077.70662	8424.7625
3080.08842	8391.9625
3082.46878	8390.9625
3084.84769	8386.6625
3087.22515	8414.3625
3089.60118	8413.3625
3091.97576	8410.0625
3094.3489	8406.8625
3096.72061	8418.0625
3099.09087	8424.0625
3101.4597	8416.6625
3103.82709	8442.3625
3106.19305	8433.0625
3108.55757	8457.3625
3110.92066	8431.8625
3113.28232	8424.1625
3115.64255	8408.6625
3118.00134	8385.3625
3120.35871	8385.2625
3122.71466	8392.0625
3125.06917	8367.9625
3127.42226	8372.0625
3129.77393	8370.2625
3132.12417	8332.0625
3134.47299	8368.2625
3136.82039	8353.2625
3139.16636	8353.6625
3141.51092	8353.5625
3143.85406	8386.6625
3146.19579	8377.0625
3148.53609	8367.4625
3150.87499	8400.6625
3153.21246	8403.8625
3155.54853	8412.8625
3157.88318	8408.6625
3160.21642	8438.8625
3162.54826	8441.9625
3164.87868	8440.8625
3167.2077	8449.5625
3169.5353	8447.7625
3171.86151	8451.8625
3174.18631	8455.0625
3176.5097	8458.2625
3178.83169	8438.3625
3181.15228	8432.9625
3183.47147	8426.6625
3185.78926	8424.0625
3188.10565	8401.1625
3190.42065	8387.2625
3192.73424	8410.2625
3195.04645	8412.3625
3197.35725	8399.2625
3199.66667	8422.3625
3201.97469	8427.8625
3204.28132	8432.5625
3206.58656	8426.1625
3208.8904	8417.0625
3211.19287	8417.1625
3213.49394	8443.3625
3215.79363	8452.9625
3218.09193	8469.7625
3220.38884	8461.8625
3222.68438	8456.7625
3224.97853	8481.1625
3227.2713	8465.1625
3229.56269	8453.0625
3231.8527	8462.7625
3234.14133	8435.8625
3236.42858	8429.5625
3238.71446	8407.4625
3240.99896	8394.0625
3243.28209	8405.5625
3245.56384	8374.7625
3247.84423	8390.9625
3250.12324	8389.6625
3252.40088	8368.4625
3254.67715	8360.2625
3256.95205	8364.1625
3259.22558	8376.3625
3261.49775	8402.9625
3263.76855	8401.2625
3266.03799	8386.1625
3268.30606	8378.4625
3270.57277	8380.9625
3272.83812	8336.0625
3275.10211	8347.1625
3277.36474	8330.3625
3279.62601	8298.6625
3281.88593	8298.1625
3284.14448	8305.6625
3286.40168	8318.4625
3288.65753	8328.8625
3290.91202	8315.2625
3293.16516	8298.5625
3295.41695	8284.3625
3297.66738	8233.1625
3299.91647	8188.6625
3302.16421	8136.0625
3304.4106	8127.9625
3306.65564	8067.9625
3308.89933	7998.6625
3311.14169	7958.2625
3313.38269	7905.6625
3315.62236	7868.5625
3317.86068	7830.6625
3320.09766	7763.0625
3322.3333	7713.2625
3324.5676	7650.6625
3326.80056	7568.8625
3329.03219	7525.9625
3331.26248	2.1625
3333.49143	-0.6375
3335.71905	-1.1375
