Data from AgNPs_UA_10uM_CRN_0uM_R6G_10uM_Q_RamanShift__14__12-05-02-640.txt Node

Date: Mon Jul 18 12:05:02 BST 2022
User: TCL
Spectrometer: QEP01345
Trigger mode: 4
Integration Time (sec): 7.000000E0
Scans to average: 10
Electric dark correction enabled: true
Nonlinearity correction enabled: false
Boxcar width: 0
XAxis mode: Raman Shifts
Number of Pixels in Spectrum: 1044
>>>>>Begin Spectral Data<<<<<
46.04893	-1.3625
50.45542	-2.5625
54.85868	-2.6625
59.25871	-1.3625
63.6555	156.0375
68.04907	164.8375
72.43941	170.1375
76.82654	173.5375
81.21044	178.3375
85.59113	180.7375
89.96862	192.2375
94.34289	201.0375
98.71396	204.5375
103.08183	210.2375
107.4465	215.1375
111.80798	221.5375
116.16626	225.9375
120.52136	243.4375
124.87327	254.6375
129.222	264.4375
133.56755	284.1375
137.90993	307.1375
142.24913	336.4375
146.58517	379.1375
150.91804	444.3375
155.24774	531.1375
159.57429	659.4375
163.89768	855.3375
168.21792	1135.8375
172.53501	1550.9375
176.84895	2161.8375
181.15975	3039.9375
185.46741	4325.6375
189.77193	5968.5375
194.07331	7975.8375
198.37157	10306.6375
202.6667	12746.0375
206.9587	15165.1375
211.24758	17517.1375
215.53334	19860.3375
219.81599	22300.6375
224.09553	24966.5375
228.37195	27976.6375
232.64527	31214.8375
236.91549	34699.2375
241.18261	38234.1375
245.44663	41645.3375
249.70755	44843.4375
253.96539	47714.9375
258.22014	50057.8375
262.4718	51875.3375
266.72039	53082.1375
270.96589	53722.4375
275.20832	53915.9375
279.44768	53621.1375
283.68397	53029.0375
287.91719	52474.3375
292.14735	52192.6375
296.37445	51960.5375
300.59849	51941.9375
304.81948	51861.1375
309.03742	51825.2375
313.25231	51651.8375
317.46415	51124.0375
321.67296	50545.5375
325.87872	49946.7375
330.08145	49838.8375
334.28114	50136.7375
338.47781	50515.2375
342.67145	51094.9375
346.86207	51814.6375
351.04966	52613.7375
355.23424	53438.0375
359.4158	54138.9375
363.59435	54852.0375
367.76989	55298.1375
371.94243	55688.9375
376.11196	56011.6375
380.27849	56352.8375
384.44203	56747.8375
388.60257	57107.0375
392.76012	57568.8375
396.91468	58237.1375
401.06626	58968.4375
405.21485	59444.9375
409.36047	59400.5375
413.50311	59100.1375
417.64277	58871.5375
421.77947	58881.6375
425.9132	59092.4375
430.04396	59510.5375
434.17176	59799.6375
438.2966	60204.8375
442.41849	60745.7375
446.53742	61482.5375
450.6534	62146.5375
454.76644	62910.3375
458.87653	63236.2375
462.98368	63501.6375
467.08789	63581.7375
471.18916	63498.9375
475.2875	63338.5375
479.38291	63202.8375
483.4754	63106.2375
487.56496	63038.4375
491.6516	62924.7375
495.73531	62846.6375
499.81612	62891.7375
503.89401	63104.8375
507.96899	63359.4375
512.04106	63478.7375
516.11023	63653.6375
520.1765	63603.2375
524.23987	63428.2375
528.30034	63282.3375
532.35792	63206.0375
536.41261	63140.6375
540.46441	63061.6375
544.51333	63119.4375
548.55936	63537.4375
552.60252	64175.8375
556.64279	64892.6375
560.6802	65357.9375
564.71473	65709.1375
568.7464	66218.5375
572.7752	66881.3375
576.80114	67450.3375
580.82422	68071.0375
584.84444	68646.3375
588.86181	68842.4375
592.87633	68884.2375
596.888	69020.9375
600.89682	69593.8375
604.9028	71247.0375
608.90594	74831.0375
612.90624	77770.3375
616.90371	74492.6375
620.89834	68597.2375
624.89015	66341.4375
628.87913	66270.2375
632.86528	66793.0375
636.84862	67159.2375
640.82913	66869.8375
644.80683	66263.9375
648.78172	65771.0375
652.75379	65836.2375
656.72306	66452.1375
660.68952	67006.4375
664.65319	67029.5375
668.61405	66788.3375
672.57211	66930.9375
676.52738	67152.0375
680.47986	67104.3375
684.42955	66891.2375
688.37646	66883.8375
692.32058	67124.9375
696.26192	67554.1375
700.20048	68042.1375
704.13626	68313.9375
708.06928	68462.7375
711.99952	68357.9375
715.927	68263.9375
719.85171	68192.0375
723.77365	68139.2375
727.69284	67902.4375
731.60928	67679.1375
735.52295	67669.4375
739.43388	67654.5375
743.34206	67901.9375
747.24749	68095.9375
751.15017	68339.8375
755.05012	68803.6375
758.94733	69708.8375
762.8418	71646.9375
766.73354	74304.7375
770.62254	76449.4375
774.50882	76817.1375
778.39237	75380.1375
782.27321	73254.8375
786.15132	71247.4375
790.02671	69737.5375
793.89938	68942.4375
797.76935	68484.3375
801.6366	68352.0375
805.50115	68333.6375
809.36299	68188.0375
813.22213	68109.8375
817.07857	68134.6375
820.93231	68350.3375
824.78336	68434.5375
828.63172	68595.4375
832.47738	68462.8375
836.32036	68542.1375
840.16066	68662.1375
843.99827	68772.9375
847.8332	68788.8375
851.66546	68713.4375
855.49504	68854.5375
859.32195	68900.1375
863.1462	68983.3375
866.96777	69201.1375
870.78668	69240.3375
874.60293	69269.6375
878.41652	69432.2375
882.22745	69647.8375
886.03573	69767.9375
889.84136	69774.0375
893.64433	69745.4375
897.44466	69594.1375
901.24235	69623.0375
905.0374	69589.5375
908.8298	69507.7375
912.61957	69508.8375
916.40671	69650.6375
920.19121	69929.9375
923.97308	70180.4375
927.75233	70217.0375
931.52895	70149.7375
935.30295	69840.5375
939.07433	69365.5375
942.84309	68985.0375
946.60924	68726.2375
950.37278	68608.9375
954.13371	68529.6375
957.89203	68498.7375
961.64774	68485.9375
965.40086	68538.7375
969.15137	68485.4375
972.89929	68343.8375
976.64461	68335.2375
980.38733	68321.8375
984.12747	68400.4375
987.86502	68666.2375
991.59999	68719.5375
995.33237	68896.0375
999.06217	69196.7375
1002.78939	69580.7375
1006.51404	70066.7375
1010.23611	70378.2375
1013.95561	70690.1375
1017.67255	70728.1375
1021.38692	70579.7375
1025.09872	70326.2375
1028.80796	70081.2375
1032.51465	70034.9375
1036.21877	70094.0375
1039.92035	70275.5375
1043.61937	70424.9375
1047.31584	70522.9375
1051.00976	70693.7375
1054.70114	70973.7375
1058.38998	71114.8375
1062.07627	71458.9375
1065.76003	71798.0375
1069.44126	72432.6375
1073.11995	73106.9375
1076.79611	73672.7375
1080.46974	73926.6375
1084.14085	73940.4375
1087.80943	74148.3375
1091.47549	74408.6375
1095.13903	74492.3375
1098.80005	74268.4375
1102.45857	73887.7375
1106.11456	73362.2375
1109.76805	72807.7375
1113.41903	72649.9375
1117.06751	72694.2375
1120.71348	73085.4375
1124.35696	73540.0375
1127.99793	73826.9375
1131.63641	73767.2375
1135.2724	73365.3375
1138.90589	73053.7375
1142.5369	72968.7375
1146.16542	72831.2375
1149.79145	72831.5375
1153.415	72903.2375
1157.03607	73088.9375
1160.65467	73644.2375
1164.27079	74495.9375
1167.88443	75743.5375
1171.49561	77346.2375
1175.10432	79463.1375
1178.71056	82134.5375
1182.31434	84447.0375
1185.91565	85775.4375
1189.51451	86250.0375
1193.11091	85867.0375
1196.70485	84720.7375
1200.29634	83425.8375
1203.88538	81919.1375
1207.47197	80471.3375
1211.05612	79277.9375
1214.63782	78485.8375
1218.21708	77615.2375
1221.79391	76855.5375
1225.36829	76369.3375
1228.94024	76099.9375
1232.50976	76176.3375
1236.07685	76237.3375
1239.6415	76273.9375
1243.20374	76342.9375
1246.76355	76580.1375
1250.32093	76988.9375
1253.8759	77466.5375
1257.42845	78370.9375
1260.97859	79195.7375
1264.52631	80074.9375
1268.07163	80942.4375
1271.61453	81516.4375
1275.15503	82232.5375
1278.69312	82934.8375
1282.22882	83432.4375
1285.76211	84167.7375
1289.29301	85077.0375
1292.82151	86071.6375
1296.34761	87108.0375
1299.87133	88578.2375
1303.39266	90390.1375
1306.9116	92615.1375
1310.42815	95011.8375
1313.94233	96044.4375
1317.45412	95858.9375
1320.96354	95100.0375
1324.47058	94441.4375
1327.97525	93794.3375
1331.47754	93227.2375
1334.97747	93096.7375
1338.47502	93345.3375
1341.97022	94248.4375
1345.46305	95487.7375
1348.95352	96585.4375
1352.44163	97329.0375
1355.92738	97552.8375
1359.41078	98405.7375
1362.89183	99172.1375
1366.37053	97415.6375
1369.84688	92789.0375
1373.32088	88105.8375
1376.79254	84772.8375
1380.26186	82874.3375
1383.72883	81668.7375
1387.19347	80795.5375
1390.65578	79858.7375
1394.11575	79177.8375
1397.57339	78689.5375
1401.0287	78341.2375
1404.48168	77913.7375
1407.93234	77576.4375
1411.38068	77197.4375
1414.82669	76726.3375
1418.27039	75929.1375
1421.71177	75141.7375
1425.15083	74519.6375
1428.58758	74143.8375
1432.02203	74253.3375
1435.45416	74577.1375
1438.88399	74875.9375
1442.31151	75168.1375
1445.73673	75395.4375
1449.15965	75773.0375
1452.58027	76026.5375
1455.9986	76340.6375
1459.41463	76619.3375
1462.82837	77014.6375
1466.23982	77773.4375
1469.64898	78452.2375
1473.05586	79028.9375
1476.46045	79396.1375
1479.86276	79676.1375
1483.26279	79973.6375
1486.66054	80380.0375
1490.05602	81188.2375
1493.44922	82486.2375
1496.84016	84432.3375
1500.22882	87015.5375
1503.61521	90122.0375
1506.99934	93334.8375
1510.38121	95152.3375
1513.76081	95018.4375
1517.13816	92867.3375
1520.51324	89880.4375
1523.88607	87277.1375
1527.25665	85638.6375
1530.62498	84631.1375
1533.99105	83909.3375
1537.35488	83100.2375
1540.71647	82366.9375
1544.07581	81645.2375
1547.4329	80927.2375
1550.78776	80402.1375
1554.14038	79957.0375
1557.49077	79814.2375
1560.83892	79925.6375
1564.18484	80418.3375
1567.52853	80954.2375
1570.86999	81297.2375
1574.20922	81722.7375
1577.54624	81797.4375
1580.88103	81021.9375
1584.2136	80198.8375
1587.54395	79794.3375
1590.87208	80354.9375
1594.19801	81445.3375
1597.52172	82533.8375
1600.84321	82621.9375
1604.16251	81703.7375
1607.47959	80422.2375
1610.79447	78685.2375
1614.10715	76550.2375
1617.41763	74515.1375
1620.7259	73080.1375
1624.03199	72194.4375
1627.33587	71941.1375
1630.63757	72335.6375
1633.93707	73517.2375
1637.23439	75598.0375
1640.52951	78615.2375
1643.82246	82369.2375
1647.11321	85914.3375
1650.40179	87491.7375
1653.68819	85800.1375
1656.97241	81326.5375
1660.25446	76571.5375
1663.53433	72749.4375
1666.81203	70169.5375
1670.08756	68388.8375
1673.36092	67350.8375
1676.63211	66647.8375
1679.90115	66028.2375
1683.16801	65550.2375
1686.43272	65167.7375
1689.69527	64883.6375
1692.95567	64723.9375
1696.2139	64499.7375
1699.46999	64443.1375
1702.72392	64386.2375
1705.97571	64311.8375
1709.22535	64263.6375
1712.47284	64318.7375
1715.71819	64280.3375
1718.96139	64243.2375
1722.20246	64075.1375
1725.44139	64000.1375
1728.67818	63830.2375
1731.91284	63504.9375
1735.14537	63323.8375
1738.37576	63246.9375
1741.60403	63227.6375
1744.83017	63090.7375
1748.05418	63011.3375
1751.27607	62884.7375
1754.49584	62878.6375
1757.71349	62799.4375
1760.92903	62660.2375
1764.14244	62680.2375
1767.35375	62675.2375
1770.56294	62562.2375
1773.77002	62448.8375
1776.97499	62485.3375
1780.17785	62485.6375
1783.37861	62302.3375
1786.57727	62257.3375
1789.77382	62160.7375
1792.96828	62104.5375
1796.16064	62000.3375
1799.3509	61992.0375
1802.53907	61722.0375
1805.72514	61517.3375
1808.90913	61438.9375
1812.09102	61338.2375
1815.27083	61272.1375
1818.44856	61236.9375
1821.6242	61184.9375
1824.79776	61071.1375
1827.96924	61023.6375
1831.13864	60946.6375
1834.30597	60813.1375
1837.47122	60815.3375
1840.6344	60790.8375
1843.7955	60799.8375
1846.95454	60705.8375
1850.11151	60707.7375
1853.26642	60686.9375
1856.41926	60647.4375
1859.57004	60621.8375
1862.71876	60582.0375
1865.86542	60474.7375
1869.01003	60458.9375
1872.15258	60424.5375
1875.29308	60341.3375
1878.43152	60129.2375
1881.56792	60057.5375
1884.70227	59919.2375
1887.83457	59971.1375
1890.96482	59880.0375
1894.09304	59778.3375
1897.21921	59686.1375
1900.34335	59723.0375
1903.46544	59521.0375
1906.58551	59440.2375
1909.70353	59329.2375
1912.81953	59282.1375
1915.93349	59309.0375
1919.04543	59183.8375
1922.15534	59127.1375
1925.26322	58918.7375
1928.36908	58830.6375
1931.47292	58709.2375
1934.57473	58479.3375
1937.67453	58383.8375
1940.77232	58280.9375
1943.86808	58094.2375
1946.96184	58043.4375
1950.05358	57955.9375
1953.14331	57620.8375
1956.23103	57444.8375
1959.31675	57360.7375
1962.40046	57245.4375
1965.48217	57112.6375
1968.56188	56925.7375
1971.63959	56757.7375
1974.7153	56639.2375
1977.78901	56472.4375
1980.86073	56242.8375
1983.93046	56045.6375
1986.99819	55903.6375
1990.06394	55778.0375
1993.1277	55593.2375
1996.18947	55410.9375
1999.24925	55350.1375
2002.30706	55236.1375
2005.36288	55197.1375
2008.41672	55034.1375
2011.46859	54785.1375
2014.51848	54680.1375
2017.56639	54605.2375
2020.61233	54380.9375
2023.6563	54248.1375
2026.6983	54022.2375
2029.73833	53727.7375
2032.7764	53572.4375
2035.8125	53567.4375
2038.84664	53421.6375
2041.87881	53290.2375
2044.90903	53200.7375
2047.93729	53038.5375
2050.96359	52915.7375
2053.98794	52827.2375
2057.01034	52852.5375
2060.03078	52883.8375
2063.04927	52789.3375
2066.06582	52800.2375
2069.08042	52730.4375
2072.09307	52703.4375
2075.10378	52622.0375
2078.11255	52597.5375
2081.11938	52594.6375
2084.12426	52602.1375
2087.12722	52574.1375
2090.12824	52551.2375
2093.12732	52510.2375
2096.12447	52548.6375
2099.11969	52538.4375
2102.11299	52647.0375
2105.10435	52531.9375
2108.09379	52581.1375
2111.08131	52556.7375
2114.0669	52575.7375
2117.05057	52565.8375
2120.03233	52621.2375
2123.01216	52755.9375
2125.99008	52766.6375
2128.96609	52783.0375
2131.94018	52937.9375
2134.91236	53008.1375
2137.88263	52984.4375
2140.851	52952.0375
2143.81746	53001.0375
2146.78201	53025.9375
2149.74466	53053.2375
2152.7054	52999.3375
2155.66425	52997.1375
2158.6212	53020.4375
2161.57625	52906.9375
2164.52941	52901.7375
2167.48067	52841.4375
2170.43004	52878.6375
2173.37752	52764.0375
2176.32311	52730.4375
2179.26681	52703.4375
2182.20863	52767.6375
2185.14856	52765.4375
2188.08661	52743.7375
2191.02278	52751.5375
2193.95707	52692.1375
2196.88948	52623.4375
2199.82001	52619.8375
2202.74867	52493.8375
2205.67545	52345.0375
2208.60037	52276.0375
2211.52341	52148.6375
2214.44458	52110.3375
2217.36388	52076.7375
2220.28132	52001.2375
2223.1969	51831.7375
2226.11061	51617.5375
2229.02246	51561.7375
2231.93245	51523.5375
2234.84058	51370.3375
2237.74686	51328.5375
2240.65128	51226.9375
2243.55385	51207.0375
2246.45456	51142.5375
2249.35343	51075.3375
2252.25044	50999.5375
2255.14561	50896.8375
2258.03893	50845.4375
2260.93041	50722.7375
2263.82004	50633.6375
2266.70783	50591.0375
2269.59378	50430.1375
2272.4779	50365.3375
2275.36017	50172.5375
2278.24061	50119.6375
2281.11922	50047.5375
2283.996	49894.3375
2286.87094	49793.1375
2289.74405	49636.6375
2292.61534	49563.1375
2295.4848	49510.6375
2298.35243	49598.2375
2301.21824	49540.3375
2304.08223	49460.1375
2306.94439	49419.3375
2309.80474	49368.8375
2312.66327	49272.2375
2315.51999	49205.8375
2318.37489	49200.8375
2321.22797	49097.7375
2324.07925	48981.0375
2326.92871	48790.7375
2329.77637	48770.7375
2332.62222	48739.0375
2335.46626	48705.1375
2338.3085	48702.4375
2341.14893	48600.6375
2343.98756	48439.7375
2346.8244	48518.8375
2349.65943	48558.3375
2352.49267	48404.8375
2355.32411	48366.7375
2358.15376	48333.8375
2360.98161	48225.9375
2363.80768	48308.3375
2366.63195	48251.4375
2369.45444	48195.9375
2372.27514	48121.4375
2375.09405	48049.0375
2377.91118	47957.4375
2380.72652	47839.3375
2383.54009	47640.8375
2386.35187	47656.0375
2389.16188	47566.2375
2391.97011	47489.0375
2394.77657	47359.2375
2397.58125	47211.0375
2400.38416	47234.5375
2403.18529	47158.9375
2405.98466	47158.5375
2408.78226	47047.6375
2411.57809	46994.5375
2414.37216	47000.9375
2417.16446	46943.6375
2419.955	46880.1375
2422.74378	46806.2375
2425.5308	46686.5375
2428.31606	46576.7375
2431.09956	46584.7375
2433.88131	46462.4375
2436.6613	46419.3375
2439.43954	46455.1375
2442.21603	46371.4375
2444.99077	46286.3375
2447.76377	46239.8375
2450.53501	46105.4375
2453.30451	46052.2375
2456.07226	46010.0375
2458.83827	45863.0375
2461.60254	45884.4375
2464.36507	45804.2375
2467.12586	45726.0375
2469.88492	45716.0375
2472.64224	45630.7375
2475.39782	45590.1375
2478.15167	45618.4375
2480.90379	45581.9375
2483.65417	45595.7375
2486.40283	45624.6375
2489.14976	45673.2375
2491.89497	45536.3375
2494.63845	45552.8375
2497.3802	45494.0375
2500.12024	45407.6375
2502.85855	45276.6375
2505.59514	45176.1375
2508.33002	45181.7375
2511.06318	45033.3375
2513.79462	44967.2375
2516.52435	44903.8375
2519.25237	44857.3375
2521.97867	44797.4375
2524.70327	44815.2375
2527.42616	44710.3375
2530.14734	44647.5375
2532.86681	44604.9375
2535.58458	44589.1375
2538.30065	44475.1375
2541.01501	44477.6375
2543.72768	44378.6375
2546.43864	44210.6375
2549.14791	44086.9375
2551.85548	44029.9375
2554.56136	43892.2375
2557.26554	43862.2375
2559.96803	43837.7375
2562.66883	43741.7375
2565.36794	43613.3375
2568.06536	43635.4375
2570.7611	43577.8375
2573.45514	43513.2375
2576.14751	43400.6375
2578.83819	43295.2375
2581.52719	43184.6375
2584.21451	43088.6375
2586.90015	42995.0375
2589.58411	43014.4375
2592.2664	42976.7375
2594.94701	42884.4375
2597.62594	42904.5375
2600.30321	42774.8375
2602.9788	42607.2375
2605.65273	42487.5375
2608.32498	42426.6375
2610.99557	42368.7375
2613.66449	42367.7375
2616.33175	42261.4375
2618.99734	42165.9375
2621.66128	42050.3375
2624.32355	42082.5375
2626.98416	41996.6375
2629.64311	41905.8375
2632.30041	41776.9375
2634.95605	41760.0375
2637.61004	41704.9375
2640.26238	41668.3375
2642.91306	41750.0375
2645.56209	41648.3375
2648.20948	41620.4375
2650.85521	41457.8375
2653.4993	41411.2375
2656.14175	41396.3375
2658.78255	41489.7375
2661.42171	41523.2375
2664.05923	41533.3375
2666.6951	41394.4375
2669.32934	41415.9375
2671.96194	41401.9375
2674.59291	41340.9375
2677.22224	41321.5375
2679.84993	41370.9375
2682.476	41267.5375
2685.10043	41325.2375
2687.72324	41161.2375
2690.34441	41215.2375
2692.96396	41179.9375
2695.58188	41179.0375
2698.19818	41054.6375
2700.81285	41065.8375
2703.4259	41080.7375
2706.03733	41162.8375
2708.64714	41194.3375
2711.25533	41185.5375
2713.86191	41110.6375
2716.46687	41156.3375
2719.07021	41072.0375
2721.67194	41087.8375
2724.27206	41032.7375
2726.87057	41058.8375
2729.46747	41053.9375
2732.06276	41083.7375
2734.65644	41010.6375
2737.24852	40984.2375
2739.83899	40864.2375
2742.42786	40850.6375
2745.01513	40687.8375
2747.60079	40687.5375
2750.18486	40683.1375
2752.76733	40648.0375
2755.3482	40549.4375
2757.92747	40587.3375
2760.50515	40410.3375
2763.08123	40385.1375
2765.65573	40295.6375
2768.22863	40278.0375
2770.79994	40199.6375
2773.36967	40117.0375
2775.9378	40085.3375
2778.50435	39993.6375
2781.06932	39935.5375
2783.6327	39852.8375
2786.1945	39912.3375
2788.75471	39825.9375
2791.31335	39597.5375
2793.87041	39488.4375
2796.42589	39450.2375
2798.97979	39422.8375
2801.53212	39327.0375
2804.08288	39312.7375
2806.63206	39151.8375
2809.17967	39083.4375
2811.72571	38952.7375
2814.27018	38903.0375
2816.81308	38695.5375
2819.35442	38717.8375
2821.89419	38550.7375
2824.43239	38505.0375
2826.96904	38417.1375
2829.50412	38416.1375
2832.03763	38369.5375
2834.56959	38313.3375
2837.1	38279.8375
2839.62884	38246.9375
2842.15613	38113.6375
2844.68186	38121.6375
2847.20604	37954.5375
2849.72867	37920.4375
2852.24974	37901.7375
2854.76927	37852.5375
2857.28724	37779.1375
2859.80367	37749.7375
2862.31855	37733.7375
2864.83189	37642.7375
2867.34368	37652.2375
2869.85393	37565.8375
2872.36264	37455.8375
2874.8698	37397.7375
2877.37543	37328.5375
2879.87952	37384.2375
2882.38207	37357.2375
2884.88308	37336.6375
2887.38256	37345.5375
2889.88051	37275.0375
2892.37692	37242.8375
2894.8718	37260.4375
2897.36515	37316.5375
2899.85698	37205.3375
2902.34727	37190.2375
2904.83604	37196.1375
2907.32328	37269.2375
2909.809	37269.1375
2912.29319	37242.4375
2914.77587	37110.3375
2917.25702	37171.1375
2919.73665	37135.5375
2922.21476	37122.4375
2924.69136	37097.7375
2927.16644	37149.8375
2929.64	37067.5375
2932.11205	36963.8375
2934.58258	36822.5375
2937.05161	36855.4375
2939.51912	36818.5375
2941.98513	36862.3375
2944.44962	36739.5375
2946.91261	36668.2375
2949.37409	36772.5375
2951.83407	36718.7375
2954.29254	36746.6375
2956.74951	36724.8375
2959.20498	36710.9375
2961.65895	36716.7375
2964.11142	36752.4375
2966.56239	36700.7375
2969.01186	36626.5375
2971.45984	36543.0375
2973.90632	36540.1375
2976.35131	36447.0375
2978.7948	36417.1375
2981.23681	36350.0375
2983.67732	36330.8375
2986.11635	36350.2375
2988.55388	36270.3375
2990.98993	36129.2375
2993.4245	36043.3375
2995.85758	35969.0375
2998.28917	35851.0375
3000.71928	35806.1375
3003.14791	35693.8375
3005.57506	35635.6375
3008.00073	35537.2375
3010.42493	35519.6375
3012.84764	35476.8375
3015.26888	35403.8375
3017.68865	35370.1375
3020.10694	35313.7375
3022.52376	35200.8375
3024.9391	35225.6375
3027.35298	35103.3375
3029.76539	35142.9375
3032.17632	35132.5375
3034.5858	35073.8375
3036.9938	35089.9375
3039.40034	35030.7375
3041.80542	34897.0375
3044.20903	34775.4375
3046.61118	34799.6375
3049.01187	34691.0375
3051.4111	34651.2375
3053.80888	34541.8375
3056.20519	34510.2375
3058.60005	34431.2375
3060.99345	34394.5375
3063.3854	34247.0375
3065.7759	34102.8375
3068.16494	34087.8375
3070.55254	33988.1375
3072.93868	33952.3375
3075.32338	33876.7375
3077.70662	33745.3375
3080.08842	33656.2375
3082.46878	33630.0375
3084.84769	33557.4375
3087.22515	33587.8375
3089.60118	33588.6375
3091.97576	33551.8375
3094.3489	33564.2375
3096.72061	33524.5375
3099.09087	33533.3375
3101.4597	33497.1375
3103.82709	33574.0375
3106.19305	33509.0375
3108.55757	33454.6375
3110.92066	33320.1375
3113.28232	33328.1375
3115.64255	33198.5375
3118.00134	33171.6375
3120.35871	33091.5375
3122.71466	32969.1375
3125.06917	32904.2375
3127.42226	32774.8375
3129.77393	32822.3375
3132.12417	32748.5375
3134.47299	32783.0375
3136.82039	32780.4375
3139.16636	32655.4375
3141.51092	32558.6375
3143.85406	32616.2375
3146.19579	32593.8375
3148.53609	32624.2375
3150.87499	32665.0375
3153.21246	32601.2375
3155.54853	32601.5375
3157.88318	32552.8375
3160.21642	32601.6375
3162.54826	32607.9375
3164.87868	32647.4375
3167.2077	32675.6375
3169.5353	32598.7375
3171.86151	32490.6375
3174.18631	32388.8375
3176.5097	32381.8375
3178.83169	32411.2375
3181.15228	32392.8375
3183.47147	32299.0375
3185.78926	32215.2375
3188.10565	32162.2375
3190.42065	32106.9375
3192.73424	32073.1375
3195.04645	31977.2375
3197.35725	31939.7375
3199.66667	31898.5375
3201.97469	31886.8375
3204.28132	31885.4375
3206.58656	31884.8375
3208.8904	31881.4375
3211.19287	31850.2375
3213.49394	31820.6375
3215.79363	31857.7375
3218.09193	31860.1375
3220.38884	31847.5375
3222.68438	31863.8375
3224.97853	31815.9375
3227.2713	31868.6375
3229.56269	31782.2375
3231.8527	31786.0375
3234.14133	31783.3375
3236.42858	31727.4375
3238.71446	31630.5375
3240.99896	31566.0375
3243.28209	31511.2375
3245.56384	31380.8375
3247.84423	31365.8375
3250.12324	31317.7375
3252.40088	31340.5375
3254.67715	31229.4375
3256.95205	31177.9375
3259.22558	31175.7375
3261.49775	31176.9375
3263.76855	31183.3375
3266.03799	31126.3375
3268.30606	31113.4375
3270.57277	31062.0375
3272.83812	30949.6375
3275.10211	30884.6375
3277.36474	30763.8375
3279.62601	30767.8375
3281.88593	30703.4375
3284.14448	30756.6375
3286.40168	30725.8375
3288.65753	30709.7375
3290.91202	30648.4375
3293.16516	30559.5375
3295.41695	30522.5375
3297.66738	30361.5375
3299.91647	30229.5375
3302.16421	30006.7375
3304.4106	29974.1375
3306.65564	29809.5375
3308.89933	29553.0375
3311.14169	29362.7375
3313.38269	29060.0375
3315.62236	28963.1375
3317.86068	28726.0375
3320.09766	28566.3375
3322.3333	28371.0375
3324.5676	28280.8375
3326.80056	27916.3375
3329.03219	27755.9375
3331.26248	6.4375
3333.49143	1.6375
3335.71905	1.3375
