Data from AgNPs_UA_20uM_CRN_0uM_R6G_10uM_Q_RamanShift__21__13-00-52-028.txt Node

Date: Mon Jul 18 13:00:52 BST 2022
User: TCL
Spectrometer: QEP01345
Trigger mode: 4
Integration Time (sec): 7.000000E0
Scans to average: 10
Electric dark correction enabled: true
Nonlinearity correction enabled: false
Boxcar width: 0
XAxis mode: Raman Shifts
Number of Pixels in Spectrum: 1044
>>>>>Begin Spectral Data<<<<<
46.04893	-1.6875
50.45542	-1.4875
54.85868	-0.4875
59.25871	-0.5875
63.6555	128.4125
68.04907	137.4125
72.43941	143.6125
76.82654	146.7125
81.21044	149.5125
85.59113	156.8125
89.96862	161.5125
94.34289	167.2125
98.71396	173.7125
103.08183	176.7125
107.4465	183.3125
111.80798	186.3125
116.16626	195.5125
120.52136	201.5125
124.87327	213.7125
129.222	227.4125
133.56755	236.1125
137.90993	260.3125
142.24913	278.0125
146.58517	322.3125
150.91804	374.5125
155.24774	446.2125
159.57429	552.6125
163.89768	717.3125
168.21792	957.8125
172.53501	1296.8125
176.84895	1821.8125
181.15975	2547.3125
185.46741	3575.8125
189.77193	4919.4125
194.07331	6552.6125
198.37157	8394.8125
202.6667	10316.1125
206.9587	12244.1125
211.24758	14091.3125
215.53334	16006.2125
219.81599	18039.3125
224.09553	20312.3125
228.37195	22862.4125
232.64527	25634.8125
236.91549	28547.6125
241.18261	31407.6125
245.44663	33990.1125
249.70755	36373.4125
253.96539	38377.6125
258.22014	40103.3125
262.4718	41539.6125
266.72039	42547.6125
270.96589	43050.3125
275.20832	43150.5125
279.44768	42826.0125
283.68397	42401.4125
287.91719	42046.9125
292.14735	41934.2125
296.37445	42024.5125
300.59849	42272.6125
304.81948	42512.8125
309.03742	42571.2125
313.25231	42211.1125
317.46415	41345.7125
321.67296	40236.9125
325.87872	39392.2125
330.08145	39072.0125
334.28114	39186.6125
338.47781	39605.0125
342.67145	40222.6125
346.86207	40936.6125
351.04966	41856.7125
355.23424	42917.1125
359.4158	43806.7125
363.59435	44411.3125
367.76989	44908.1125
371.94243	45092.2125
376.11196	45279.6125
380.27849	45507.7125
384.44203	45677.0125
388.60257	45794.4125
392.76012	46162.8125
396.91468	46625.8125
401.06626	47308.8125
405.21485	47739.8125
409.36047	47483.5125
413.50311	46711.8125
417.64277	46202.3125
421.77947	46005.9125
425.9132	46087.8125
430.04396	46348.1125
434.17176	46808.1125
438.2966	47435.9125
442.41849	48466.1125
446.53742	49850.3125
450.6534	51388.6125
454.76644	52330.0125
458.87653	52470.7125
462.98368	52070.4125
467.08789	51334.2125
471.18916	50402.6125
475.2875	49651.4125
479.38291	49023.8125
483.4754	48489.7125
487.56496	47880.5125
491.6516	47359.0125
495.73531	46939.5125
499.81612	46864.9125
503.89401	47137.7125
507.96899	47253.3125
512.04106	47309.5125
516.11023	47309.8125
520.1765	47242.6125
524.23987	47176.0125
528.30034	46933.2125
532.35792	46716.9125
536.41261	46239.2125
540.46441	45850.5125
544.51333	45981.2125
548.55936	46514.9125
552.60252	47426.2125
556.64279	48356.5125
560.6802	48933.5125
564.71473	49192.0125
568.7464	49915.5125
572.7752	50630.1125
576.80114	50978.4125
580.82422	51338.0125
584.84444	51932.7125
588.86181	52865.1125
592.87633	53938.1125
596.888	54599.5125
600.89682	55057.9125
604.9028	57499.5125
608.90594	63583.5125
612.90624	68503.6125
616.90371	62824.0125
620.89834	53011.6125
624.89015	49482.2125
628.87913	49241.4125
632.86528	49094.5125
636.84862	48618.7125
640.82913	47736.2125
644.80683	46511.5125
648.78172	45715.2125
652.75379	45740.0125
656.72306	46589.7125
660.68952	47485.5125
664.65319	47154.3125
668.61405	46319.9125
672.57211	46202.8125
676.52738	46252.2125
680.47986	46084.3125
684.42955	45919.3125
688.37646	45995.8125
692.32058	46267.4125
696.26192	46679.9125
700.20048	47179.2125
704.13626	47386.0125
708.06928	47151.7125
711.99952	46837.8125
715.927	46695.1125
719.85171	46773.1125
723.77365	46619.5125
727.69284	46288.6125
731.60928	46028.1125
735.52295	46101.4125
739.43388	46206.1125
743.34206	46435.3125
747.24749	46521.7125
751.15017	46802.5125
755.05012	47546.5125
758.94733	49070.5125
762.8418	52058.5125
766.73354	56309.7125
770.62254	59954.6125
774.50882	60493.6125
778.39237	57525.6125
782.27321	53146.4125
786.15132	49658.2125
790.02671	47622.2125
793.89938	46676.7125
797.76935	46268.6125
801.6366	46159.4125
805.50115	46023.0125
809.36299	45756.7125
813.22213	45500.2125
817.07857	45347.7125
820.93231	45325.8125
824.78336	45255.1125
828.63172	45390.5125
832.47738	45425.2125
836.32036	45584.7125
840.16066	45757.2125
843.99827	45951.3125
847.8332	45775.9125
851.66546	45655.9125
855.49504	45575.2125
859.32195	45502.3125
863.1462	45374.2125
866.96777	45305.1125
870.78668	45226.4125
874.60293	45261.5125
878.41652	45305.1125
882.22745	45466.2125
886.03573	45541.3125
889.84136	45468.2125
893.64433	45271.1125
897.44466	45087.8125
901.24235	44952.6125
905.0374	44836.5125
908.8298	44838.2125
912.61957	44894.1125
916.40671	45260.8125
920.19121	45766.0125
923.97308	46409.4125
927.75233	46649.1125
931.52895	46642.5125
935.30295	46109.3125
939.07433	45221.3125
942.84309	44693.4125
946.60924	44481.4125
950.37278	44313.6125
954.13371	44123.0125
957.89203	43936.3125
961.64774	43837.9125
965.40086	43723.5125
969.15137	43589.5125
972.89929	43467.6125
976.64461	43492.7125
980.38733	43667.4125
984.12747	43887.3125
987.86502	44285.2125
991.59999	44902.0125
995.33237	45807.6125
999.06217	47383.9125
1002.78939	48944.7125
1006.51404	49648.8125
1010.23611	49906.8125
1013.95561	50181.0125
1017.67255	50304.1125
1021.38692	49938.1125
1025.09872	49792.8125
1028.80796	50518.5125
1032.51465	52129.6125
1036.21877	53344.4125
1039.92035	53212.4125
1043.61937	52208.1125
1047.31584	50606.2125
1051.00976	49166.5125
1054.70114	48463.4125
1058.38998	48379.7125
1062.07627	48461.2125
1065.76003	48540.7125
1069.44126	48781.9125
1073.11995	49152.4125
1076.79611	49694.3125
1080.46974	50041.5125
1084.14085	50638.7125
1087.80943	51204.0125
1091.47549	51362.0125
1095.13903	50828.6125
1098.80005	49949.9125
1102.45857	49275.9125
1106.11456	48973.4125
1109.76805	49186.6125
1113.41903	49723.4125
1117.06751	50377.7125
1120.71348	51064.1125
1124.35696	51740.6125
1127.99793	52162.2125
1131.63641	52146.3125
1135.2724	51533.3125
1138.90589	50967.1125
1142.5369	50572.2125
1146.16542	50494.2125
1149.79145	50577.2125
1153.415	50974.8125
1157.03607	51596.4125
1160.65467	52703.7125
1164.27079	54644.4125
1167.88443	57206.6125
1171.49561	60823.0125
1175.10432	65699.3125
1178.71056	71524.4125
1182.31434	76688.0125
1185.91565	78833.0125
1189.51451	77941.1125
1193.11091	74806.8125
1196.70485	71138.9125
1200.29634	68045.3125
1203.88538	65471.0125
1207.47197	63301.9125
1211.05612	61493.2125
1214.63782	60564.0125
1218.21708	60564.7125
1221.79391	60900.4125
1225.36829	61101.5125
1228.94024	60412.0125
1232.50976	59176.0125
1236.07685	58229.5125
1239.6415	57841.8125
1243.20374	57915.2125
1246.76355	58319.3125
1250.32093	59233.8125
1253.8759	60431.2125
1257.42845	61970.5125
1260.97859	63503.7125
1264.52631	64940.5125
1268.07163	66528.9125
1271.61453	68313.1125
1275.15503	70387.8125
1278.69312	72415.6125
1282.22882	73983.0125
1285.76211	75386.1125
1289.29301	76991.6125
1292.82151	78869.2125
1296.34761	81557.7125
1299.87133	85593.9125
1303.39266	91064.1125
1306.9116	97857.6125
1310.42815	104368.3125
1313.94233	108153.0125
1317.45412	107582.9125
1320.96354	104236.7125
1324.47058	100350.3125
1327.97525	96786.0125
1331.47754	94348.5125
1334.97747	93453.7125
1338.47502	93683.7125
1341.97022	94374.2125
1345.46305	94732.4125
1348.95352	94790.6125
1352.44163	95415.4125
1355.92738	98117.3125
1359.41078	103385.5125
1362.89183	107497.6125
1366.37053	104106.2125
1369.84688	94345.9125
1373.32088	84369.9125
1376.79254	77794.8125
1380.26186	74714.8125
1383.72883	73684.5125
1387.19347	72907.8125
1390.65578	72037.9125
1394.11575	71708.0125
1397.57339	72329.7125
1401.0287	73576.4125
1404.48168	74732.8125
1407.93234	75328.7125
1411.38068	75044.0125
1414.82669	73923.9125
1418.27039	71835.1125
1421.71177	69411.9125
1425.15083	67452.8125
1428.58758	66462.9125
1432.02203	66681.0125
1435.45416	67786.2125
1438.88399	69008.0125
1442.31151	69932.2125
1445.73673	70739.5125
1449.15965	71335.2125
1452.58027	71632.2125
1455.9986	71580.4125
1459.41463	71817.9125
1462.82837	72824.2125
1466.23982	74101.4125
1469.64898	75353.7125
1473.05586	76242.2125
1476.46045	76547.3125
1479.86276	76415.7125
1483.26279	76182.7125
1486.66054	76288.4125
1490.05602	76815.9125
1493.44922	77586.7125
1496.84016	78800.2125
1500.22882	80853.3125
1503.61521	84156.4125
1506.99934	87900.5125
1510.38121	90870.7125
1513.76081	91157.2125
1517.13816	88249.5125
1520.51324	83671.7125
1523.88607	79633.6125
1527.25665	77381.0125
1530.62498	76322.1125
1533.99105	75712.4125
1537.35488	75177.7125
1540.71647	74666.0125
1544.07581	73926.8125
1547.4329	72774.8125
1550.78776	71649.4125
1554.14038	70861.9125
1557.49077	70464.1125
1560.83892	70241.3125
1564.18484	70384.6125
1567.52853	70647.8125
1570.86999	70983.2125
1574.20922	71627.8125
1577.54624	71909.0125
1580.88103	71348.9125
1584.2136	71016.8125
1587.54395	72152.3125
1590.87208	75261.4125
1594.19801	80224.7125
1597.52172	85197.5125
1600.84321	86985.5125
1604.16251	84085.3125
1607.47959	78381.3125
1610.79447	71978.0125
1614.10715	66313.6125
1617.41763	61884.2125
1620.7259	58905.6125
1624.03199	57534.1125
1627.33587	57634.0125
1630.63757	59301.7125
1633.93707	62680.1125
1637.23439	67648.7125
1640.52951	74256.6125
1643.82246	81170.4125
1647.11321	86140.9125
1650.40179	86202.4125
1653.68819	80221.3125
1656.97241	70831.5125
1660.25446	61979.6125
1663.53433	55663.3125
1666.81203	51665.3125
1670.08756	49131.5125
1673.36092	47462.1125
1676.63211	46342.0125
1679.90115	45572.9125
1683.16801	44894.0125
1686.43272	44358.8125
1689.69527	44046.8125
1692.95567	43774.6125
1696.2139	43565.5125
1699.46999	43375.3125
1702.72392	43290.5125
1705.97571	43278.1125
1709.22535	43209.7125
1712.47284	43138.7125
1715.71819	43074.9125
1718.96139	42971.0125
1722.20246	42887.8125
1725.44139	42687.2125
1728.67818	42431.1125
1731.91284	42285.0125
1735.14537	42111.6125
1738.37576	42004.2125
1741.60403	41855.9125
1744.83017	41703.4125
1748.05418	41627.2125
1751.27607	41527.9125
1754.49584	41461.8125
1757.71349	41494.3125
1760.92903	41446.2125
1764.14244	41367.9125
1767.35375	41352.4125
1770.56294	41288.5125
1773.77002	41279.3125
1776.97499	41262.3125
1780.17785	41161.7125
1783.37861	41077.4125
1786.57727	41039.7125
1789.77382	40949.2125
1792.96828	40942.3125
1796.16064	40880.1125
1799.3509	40835.0125
1802.53907	40704.4125
1805.72514	40639.1125
1808.90913	40618.9125
1812.09102	40530.8125
1815.27083	40435.4125
1818.44856	40420.4125
1821.6242	40400.4125
1824.79776	40333.9125
1827.96924	40295.3125
1831.13864	40232.6125
1834.30597	40238.5125
1837.47122	40193.0125
1840.6344	40212.3125
1843.7955	40152.7125
1846.95454	40158.5125
1850.11151	40155.1125
1853.26642	40142.2125
1856.41926	40149.2125
1859.57004	40138.5125
1862.71876	40194.8125
1865.86542	40237.9125
1869.01003	40186.6125
1872.15258	40121.4125
1875.29308	40150.0125
1878.43152	40115.1125
1881.56792	40105.8125
1884.70227	40097.5125
1887.83457	40098.1125
1890.96482	40002.8125
1894.09304	40018.1125
1897.21921	40087.7125
1900.34335	39977.2125
1903.46544	39911.8125
1906.58551	39885.7125
1909.70353	39872.8125
1912.81953	39877.1125
1915.93349	39824.9125
1919.04543	39768.5125
1922.15534	39663.2125
1925.26322	39659.0125
1928.36908	39571.4125
1931.47292	39535.6125
1934.57473	39468.4125
1937.67453	39350.5125
1940.77232	39241.8125
1943.86808	39117.2125
1946.96184	38963.9125
1950.05358	38825.9125
1953.14331	38740.7125
1956.23103	38595.4125
1959.31675	38521.1125
1962.40046	38436.7125
1965.48217	38312.0125
1968.56188	38223.7125
1971.63959	38162.4125
1974.7153	38018.8125
1977.78901	37956.4125
1980.86073	37779.2125
1983.93046	37714.7125
1986.99819	37606.3125
1990.06394	37542.8125
1993.1277	37394.2125
1996.18947	37318.2125
1999.24925	37281.7125
2002.30706	37159.8125
2005.36288	37118.3125
2008.41672	37061.3125
2011.46859	36955.1125
2014.51848	36860.2125
2017.56639	36779.9125
2020.61233	36755.2125
2023.6563	36693.9125
2026.6983	36588.4125
2029.73833	36503.9125
2032.7764	36450.3125
2035.8125	36404.2125
2038.84664	36306.9125
2041.87881	36336.4125
2044.90903	36234.4125
2047.93729	36124.3125
2050.96359	36203.1125
2053.98794	36128.2125
2057.01034	36130.6125
2060.03078	36105.8125
2063.04927	36116.4125
2066.06582	36117.6125
2069.08042	36061.7125
2072.09307	36077.6125
2075.10378	36045.1125
2078.11255	36001.5125
2081.11938	36015.6125
2084.12426	35922.2125
2087.12722	35918.2125
2090.12824	35947.2125
2093.12732	35926.9125
2096.12447	35953.0125
2099.11969	35918.4125
2102.11299	35931.8125
2105.10435	35964.5125
2108.09379	35958.7125
2111.08131	36019.2125
2114.0669	36046.5125
2117.05057	35946.6125
2120.03233	36055.2125
2123.01216	36051.0125
2125.99008	36140.1125
2128.96609	36238.3125
2131.94018	36305.8125
2134.91236	36390.0125
2137.88263	36375.8125
2140.851	36424.3125
2143.81746	36458.5125
2146.78201	36452.2125
2149.74466	36500.5125
2152.7054	36477.5125
2155.66425	36464.5125
2158.6212	36428.1125
2161.57625	36403.6125
2164.52941	36443.3125
2167.48067	36485.5125
2170.43004	36479.6125
2173.37752	36381.9125
2176.32311	36435.0125
2179.26681	36454.5125
2182.20863	36400.6125
2185.14856	36495.7125
2188.08661	36497.7125
2191.02278	36507.8125
2193.95707	36502.9125
2196.88948	36544.0125
2199.82001	36527.8125
2202.74867	36501.4125
2205.67545	36482.8125
2208.60037	36452.1125
2211.52341	36458.2125
2214.44458	36441.1125
2217.36388	36439.0125
2220.28132	36378.0125
2223.1969	36272.5125
2226.11061	36278.7125
2229.02246	36153.8125
2231.93245	36149.1125
2234.84058	36069.2125
2237.74686	35995.1125
2240.65128	35980.5125
2243.55385	35891.4125
2246.45456	35899.2125
2249.35343	35818.2125
2252.25044	35782.8125
2255.14561	35705.7125
2258.03893	35706.3125
2260.93041	35631.9125
2263.82004	35552.4125
2266.70783	35563.2125
2269.59378	35470.2125
2272.4779	35449.6125
2275.36017	35386.2125
2278.24061	35376.6125
2281.11922	35312.2125
2283.996	35247.4125
2286.87094	35252.8125
2289.74405	35137.3125
2292.61534	35203.3125
2295.4848	35234.0125
2298.35243	35241.2125
2301.21824	35308.6125
2304.08223	35309.8125
2306.94439	35278.7125
2309.80474	35239.6125
2312.66327	35284.3125
2315.51999	35295.6125
2318.37489	35345.0125
2321.22797	35391.0125
2324.07925	35302.6125
2326.92871	35274.2125
2329.77637	35272.0125
2332.62222	35241.1125
2335.46626	35225.0125
2338.3085	35218.5125
2341.14893	35221.0125
2343.98756	35265.0125
2346.8244	35349.8125
2349.65943	35488.7125
2352.49267	35420.1125
2355.32411	35429.2125
2358.15376	35362.4125
2360.98161	35323.1125
2363.80768	35282.0125
2366.63195	35284.8125
2369.45444	35242.7125
2372.27514	35160.3125
2375.09405	35021.3125
2377.91118	34941.3125
2380.72652	34783.4125
2383.54009	34771.7125
2386.35187	34704.5125
2389.16188	34703.3125
2391.97011	34693.3125
2394.77657	34675.0125
2397.58125	34643.4125
2400.38416	34574.1125
2403.18529	34525.4125
2405.98466	34550.1125
2408.78226	34461.3125
2411.57809	34331.6125
2414.37216	34258.4125
2417.16446	34211.3125
2419.955	34150.5125
2422.74378	34165.6125
2425.5308	34112.3125
2428.31606	34145.1125
2431.09956	34111.1125
2433.88131	34079.1125
2436.6613	34074.6125
2439.43954	34091.4125
2442.21603	34059.2125
2444.99077	34069.8125
2447.76377	34091.5125
2450.53501	34010.8125
2453.30451	34077.4125
2456.07226	34052.0125
2458.83827	34045.3125
2461.60254	34089.2125
2464.36507	34104.1125
2467.12586	34018.7125
2469.88492	34047.4125
2472.64224	34058.7125
2475.39782	34059.5125
2478.15167	34123.6125
2480.90379	34153.7125
2483.65417	34217.2125
2486.40283	34210.8125
2489.14976	34345.6125
2491.89497	34253.9125
2494.63845	34352.5125
2497.3802	34324.5125
2500.12024	34368.0125
2502.85855	34314.5125
2505.59514	34306.0125
2508.33002	34174.2125
2511.06318	34132.6125
2513.79462	34100.5125
2516.52435	34038.2125
2519.25237	34043.9125
2521.97867	34032.3125
2524.70327	34031.5125
2527.42616	34003.0125
2530.14734	34046.7125
2532.86681	33969.2125
2535.58458	34016.7125
2538.30065	34036.4125
2541.01501	34128.4125
2543.72768	34102.4125
2546.43864	33990.9125
2549.14791	33951.1125
2551.85548	34007.4125
2554.56136	33903.9125
2557.26554	33899.2125
2559.96803	33846.1125
2562.66883	33762.9125
2565.36794	33731.1125
2568.06536	33766.3125
2570.7611	33719.4125
2573.45514	33644.3125
2576.14751	33639.0125
2578.83819	33646.5125
2581.52719	33694.8125
2584.21451	33665.3125
2586.90015	33650.0125
2589.58411	33653.2125
2592.2664	33651.5125
2594.94701	33712.6125
2597.62594	33710.3125
2600.30321	33615.0125
2602.9788	33617.6125
2605.65273	33588.3125
2608.32498	33610.4125
2610.99557	33587.2125
2613.66449	33611.0125
2616.33175	33638.7125
2618.99734	33687.4125
2621.66128	33670.9125
2624.32355	33646.2125
2626.98416	33667.3125
2629.64311	33686.0125
2632.30041	33702.4125
2634.95605	33641.3125
2637.61004	33605.4125
2640.26238	33578.9125
2642.91306	33483.4125
2645.56209	33481.9125
2648.20948	33440.5125
2650.85521	33427.7125
2653.4993	33433.4125
2656.14175	33435.7125
2658.78255	33484.2125
2661.42171	33529.9125
2664.05923	33602.4125
2666.6951	33570.8125
2669.32934	33655.8125
2671.96194	33545.5125
2674.59291	33589.2125
2677.22224	33578.4125
2679.84993	33599.4125
2682.476	33548.2125
2685.10043	33612.0125
2687.72324	33465.7125
2690.34441	33468.5125
2692.96396	33475.2125
2695.58188	33482.7125
2698.19818	33467.3125
2700.81285	33430.4125
2703.4259	33382.2125
2706.03733	33418.5125
2708.64714	33460.7125
2711.25533	33459.8125
2713.86191	33456.9125
2716.46687	33547.3125
2719.07021	33546.6125
2721.67194	33624.9125
2724.27206	33595.6125
2726.87057	33641.1125
2729.46747	33632.7125
2732.06276	33732.7125
2734.65644	33755.8125
2737.24852	33702.7125
2739.83899	33683.3125
2742.42786	33651.2125
2745.01513	33579.6125
2747.60079	33576.1125
2750.18486	33631.8125
2752.76733	33636.5125
2755.3482	33582.3125
2757.92747	33572.1125
2760.50515	33542.4125
2763.08123	33556.7125
2765.65573	33525.6125
2768.22863	33562.6125
2770.79994	33530.1125
2773.36967	33498.4125
2775.9378	33495.3125
2778.50435	33500.9125
2781.06932	33442.8125
2783.6327	33444.0125
2786.1945	33389.2125
2788.75471	33446.7125
2791.31335	33375.7125
2793.87041	33330.2125
2796.42589	33256.0125
2798.97979	33263.6125
2801.53212	33214.1125
2804.08288	33242.9125
2806.63206	33196.7125
2809.17967	33107.8125
2811.72571	33015.0125
2814.27018	32943.7125
2816.81308	32926.0125
2819.35442	32916.8125
2821.89419	32825.9125
2824.43239	32866.6125
2826.96904	32831.1125
2829.50412	32875.7125
2832.03763	32798.7125
2834.56959	32838.3125
2837.1	32753.5125
2839.62884	32727.1125
2842.15613	32713.2125
2844.68186	32648.9125
2847.20604	32628.7125
2849.72867	32636.4125
2852.24974	32643.8125
2854.76927	32635.8125
2857.28724	32605.9125
2859.80367	32601.3125
2862.31855	32543.9125
2864.83189	32504.0125
2867.34368	32434.3125
2869.85393	32413.5125
2872.36264	32384.7125
2874.8698	32348.2125
2877.37543	32399.2125
2879.87952	32408.2125
2882.38207	32387.1125
2884.88308	32387.0125
2887.38256	32496.0125
2889.88051	32468.0125
2892.37692	32454.3125
2894.8718	32473.9125
2897.36515	32545.5125
2899.85698	32537.4125
2902.34727	32606.7125
2904.83604	32649.9125
2907.32328	32771.4125
2909.809	32754.1125
2912.29319	32841.8125
2914.77587	32811.2125
2917.25702	32854.2125
2919.73665	32849.0125
2922.21476	32872.1125
2924.69136	32757.4125
2927.16644	32747.3125
2929.64	32652.1125
2932.11205	32581.3125
2934.58258	32430.1125
2937.05161	32458.5125
2939.51912	32486.8125
2941.98513	32491.1125
2944.44962	32415.1125
2946.91261	32384.2125
2949.37409	32548.1125
2951.83407	32522.3125
2954.29254	32539.4125
2956.74951	32484.5125
2959.20498	32531.0125
2961.65895	32463.1125
2964.11142	32523.8125
2966.56239	32452.5125
2969.01186	32391.4125
2971.45984	32334.6125
2973.90632	32344.4125
2976.35131	32344.0125
2978.7948	32282.5125
2981.23681	32235.5125
2983.67732	32158.0125
2986.11635	32107.2125
2988.55388	32061.2125
2990.98993	31981.1125
2993.4245	31946.1125
2995.85758	31919.3125
2998.28917	31776.2125
3000.71928	31730.3125
3003.14791	31627.7125
3005.57506	31572.9125
3008.00073	31444.1125
3010.42493	31428.4125
3012.84764	31396.4125
3015.26888	31405.9125
3017.68865	31342.5125
3020.10694	31259.7125
3022.52376	31198.2125
3024.9391	31235.5125
3027.35298	31237.8125
3029.76539	31233.8125
3032.17632	31174.1125
3034.5858	31157.3125
3036.9938	31183.5125
3039.40034	31106.2125
3041.80542	31085.5125
3044.20903	31027.7125
3046.61118	31040.3125
3049.01187	30956.0125
3051.4111	31016.9125
3053.80888	30928.2125
3056.20519	30934.0125
3058.60005	30847.1125
3060.99345	30821.8125
3063.3854	30684.9125
3065.7759	30591.3125
3068.16494	30538.3125
3070.55254	30423.1125
3072.93868	30347.2125
3075.32338	30287.0125
3077.70662	30212.7125
3080.08842	30134.1125
3082.46878	30134.1125
3084.84769	30168.5125
3087.22515	30211.1125
3089.60118	30167.3125
3091.97576	30085.4125
3094.3489	30074.1125
3096.72061	30057.7125
3099.09087	30078.7125
3101.4597	30074.3125
3103.82709	30111.8125
3106.19305	30122.7125
3108.55757	30099.3125
3110.92066	30079.9125
3113.28232	30058.3125
3115.64255	29981.9125
3118.00134	29907.8125
3120.35871	29859.4125
3122.71466	29773.8125
3125.06917	29702.0125
3127.42226	29678.8125
3129.77393	29672.1125
3132.12417	29623.8125
3134.47299	29599.6125
3136.82039	29533.5125
3139.16636	29535.6125
3141.51092	29489.7125
3143.85406	29553.4125
3146.19579	29543.2125
3148.53609	29557.8125
3150.87499	29588.0125
3153.21246	29573.2125
3155.54853	29646.9125
3157.88318	29583.9125
3160.21642	29611.4125
3162.54826	29619.8125
3164.87868	29698.7125
3167.2077	29703.1125
3169.5353	29742.8125
3171.86151	29681.7125
3174.18631	29633.4125
3176.5097	29599.2125
3178.83169	29534.8125
3181.15228	29573.1125
3183.47147	29531.4125
3185.78926	29477.5125
3188.10565	29393.0125
3190.42065	29427.1125
3192.73424	29400.6125
3195.04645	29420.4125
3197.35725	29410.5125
3199.66667	29389.2125
3201.97469	29386.3125
3204.28132	29344.6125
3206.58656	29422.1125
3208.8904	29423.5125
3211.19287	29384.8125
3213.49394	29384.5125
3215.79363	29370.8125
3218.09193	29491.7125
3220.38884	29464.9125
3222.68438	29529.0125
3224.97853	29459.5125
3227.2713	29472.2125
3229.56269	29483.3125
3231.8527	29444.1125
3234.14133	29412.8125
3236.42858	29404.2125
3238.71446	29397.4125
3240.99896	29347.0125
3243.28209	29273.4125
3245.56384	29150.7125
3247.84423	29147.1125
3250.12324	29145.6125
3252.40088	29144.6125
3254.67715	29153.9125
3256.95205	29091.0125
3259.22558	29132.3125
3261.49775	29056.9125
3263.76855	29114.9125
3266.03799	29056.2125
3268.30606	29047.0125
3270.57277	29006.9125
3272.83812	28920.6125
3275.10211	28885.0125
3277.36474	28817.0125
3279.62601	28867.4125
3281.88593	28856.2125
3284.14448	28842.3125
3286.40168	28862.8125
3288.65753	28805.7125
3290.91202	28834.8125
3293.16516	28830.6125
3295.41695	28784.2125
3297.66738	28662.8125
3299.91647	28531.3125
3302.16421	28350.3125
3304.4106	28286.5125
3306.65564	28131.9125
3308.89933	27860.5125
3311.14169	27725.0125
3313.38269	27536.9125
3315.62236	27415.4125
3317.86068	27271.2125
3320.09766	27089.7125
3322.3333	26944.1125
3324.5676	26830.5125
3326.80056	26415.1125
3329.03219	26298.6125
3331.26248	5.3125
3333.49143	0.3125
3335.71905	0.8125
