Data from AgNPs_UA_2uM_CRN_0uM_R6G_10uM_Q_RamanShift__27__13-32-31-928.txt Node

Date: Wed Jul 13 13:32:31 BST 2022
User: TCL
Spectrometer: QEP01345
Trigger mode: 4
Integration Time (sec): 7.000000E0
Scans to average: 10
Electric dark correction enabled: true
Nonlinearity correction enabled: false
Boxcar width: 0
XAxis mode: Raman Shifts
Number of Pixels in Spectrum: 1044
>>>>>Begin Spectral Data<<<<<
46.04893	-2.0625
50.45542	-2.4625
54.85868	0.2375
59.25871	-0.1625
63.6555	86.9375
68.04907	90.5375
72.43941	95.7375
76.82654	98.2375
81.21044	104.2375
85.59113	109.5375
89.96862	115.1375
94.34289	114.6375
98.71396	121.3375
103.08183	122.3375
107.4465	130.3375
111.80798	131.1375
116.16626	135.0375
120.52136	136.4375
124.87327	138.5375
129.222	144.9375
133.56755	151.7375
137.90993	161.5375
142.24913	174.7375
146.58517	191.3375
150.91804	217.7375
155.24774	256.7375
159.57429	312.1375
163.89768	386.2375
168.21792	508.3375
172.53501	679.3375
176.84895	941.1375
181.15975	1313.6375
185.46741	1832.9375
189.77193	2496.8375
194.07331	3320.4375
198.37157	4254.2375
202.6667	5252.3375
206.9587	6178.7375
211.24758	7151.6375
215.53334	8158.6375
219.81599	9195.5375
224.09553	10376.3375
228.37195	11705.1375
232.64527	13120.3375
236.91549	14600.2375
241.18261	16047.1375
245.44663	17318.0375
249.70755	18448.8375
253.96539	19513.0375
258.22014	20409.0375
262.4718	21156.3375
266.72039	21664.3375
270.96589	21944.4375
275.20832	21988.0375
279.44768	21894.7375
283.68397	21736.9375
287.91719	21651.8375
292.14735	21577.6375
296.37445	21609.3375
300.59849	21807.8375
304.81948	22039.6375
309.03742	22109.2375
313.25231	21906.6375
317.46415	21348.2375
321.67296	20650.5375
325.87872	20191.2375
330.08145	20021.0375
334.28114	20147.1375
338.47781	20415.7375
342.67145	20818.3375
346.86207	21318.8375
351.04966	21976.1375
355.23424	22600.3375
359.4158	23142.8375
363.59435	23498.8375
367.76989	23697.8375
371.94243	23798.8375
376.11196	23863.0375
380.27849	23994.3375
384.44203	24029.3375
388.60257	24104.7375
392.76012	24282.7375
396.91468	24627.0375
401.06626	25153.6375
405.21485	25474.4375
409.36047	25410.2375
413.50311	24993.7375
417.64277	24745.7375
421.77947	24732.2375
425.9132	24839.9375
430.04396	25107.9375
434.17176	25361.1375
438.2966	25821.3375
442.41849	26559.8375
446.53742	27570.4375
450.6534	28577.1375
454.76644	29189.1375
458.87653	29311.3375
462.98368	28923.1375
467.08789	28262.4375
471.18916	27588.4375
475.2875	27065.3375
479.38291	26690.4375
483.4754	26448.9375
487.56496	26068.5375
491.6516	25700.0375
495.73531	25403.9375
499.81612	25233.6375
503.89401	25341.2375
507.96899	25401.9375
512.04106	25416.3375
516.11023	25407.2375
520.1765	25392.2375
524.23987	25362.8375
528.30034	25185.6375
532.35792	24965.6375
536.41261	24664.6375
540.46441	24428.4375
544.51333	24433.2375
548.55936	24691.3375
552.60252	25270.0375
556.64279	25796.2375
560.6802	26150.9375
564.71473	26499.3375
568.7464	27194.8375
572.7752	27743.4375
576.80114	27868.5375
580.82422	28048.2375
584.84444	28445.3375
588.86181	29191.2375
592.87633	30098.7375
596.888	30614.0375
600.89682	30905.5375
604.9028	32360.4375
608.90594	35789.5375
612.90624	38556.4375
616.90371	35041.7375
620.89834	29446.4375
624.89015	27748.1375
628.87913	27717.9375
632.86528	27348.5375
636.84862	26663.0375
640.82913	25916.5375
644.80683	25180.7375
648.78172	24772.3375
652.75379	24902.6375
656.72306	25417.3375
660.68952	25969.7375
664.65319	25799.7375
668.61405	25360.2375
672.57211	25158.5375
676.52738	25101.2375
680.47986	24993.7375
684.42955	24983.2375
688.37646	25080.8375
692.32058	25248.0375
696.26192	25466.4375
700.20048	25748.2375
704.13626	25895.6375
708.06928	25762.5375
711.99952	25621.2375
715.927	25584.0375
719.85171	25555.3375
723.77365	25439.8375
727.69284	25182.8375
731.60928	25065.9375
735.52295	25161.1375
739.43388	25351.3375
743.34206	25531.0375
747.24749	25757.6375
751.15017	26058.6375
755.05012	26610.1375
758.94733	27534.9375
762.8418	29239.4375
766.73354	31642.1375
770.62254	33667.3375
774.50882	33792.3375
778.39237	32041.5375
782.27321	29491.3375
786.15132	27508.4375
790.02671	26419.6375
793.89938	25953.8375
797.76935	25795.8375
801.6366	25731.4375
805.50115	25637.1375
809.36299	25482.8375
813.22213	25383.9375
817.07857	25373.0375
820.93231	25382.0375
824.78336	25412.0375
828.63172	25549.3375
832.47738	25621.0375
836.32036	25741.2375
840.16066	25917.3375
843.99827	26034.2375
847.8332	25872.2375
851.66546	25713.3375
855.49504	25656.6375
859.32195	25617.8375
863.1462	25422.1375
866.96777	25281.7375
870.78668	25219.2375
874.60293	25262.8375
878.41652	25364.1375
882.22745	25525.8375
886.03573	25552.8375
889.84136	25520.3375
893.64433	25393.9375
897.44466	25302.3375
901.24235	25289.1375
905.0374	25243.5375
908.8298	25226.0375
912.61957	25314.3375
916.40671	25646.5375
920.19121	26100.7375
923.97308	26532.0375
927.75233	26737.5375
931.52895	26725.4375
935.30295	26347.9375
939.07433	25720.5375
942.84309	25391.2375
946.60924	25238.4375
950.37278	25154.3375
954.13371	24925.0375
957.89203	24724.1375
961.64774	24699.5375
965.40086	24656.0375
969.15137	24548.5375
972.89929	24474.9375
976.64461	24458.5375
980.38733	24560.4375
984.12747	24717.5375
987.86502	25007.4375
991.59999	25476.0375
995.33237	26252.4375
999.06217	27583.8375
1002.78939	28913.3375
1006.51404	29485.7375
1010.23611	29543.3375
1013.95561	29850.5375
1017.67255	29880.3375
1021.38692	29518.1375
1025.09872	29450.3375
1028.80796	30267.6375
1032.51465	31804.7375
1036.21877	32801.4375
1039.92035	32495.8375
1043.61937	31538.8375
1047.31584	30087.1375
1051.00976	28782.6375
1054.70114	28164.6375
1058.38998	28090.7375
1062.07627	28047.2375
1065.76003	27993.1375
1069.44126	28065.2375
1073.11995	28265.1375
1076.79611	28477.1375
1080.46974	28647.8375
1084.14085	28996.3375
1087.80943	29277.0375
1091.47549	29274.4375
1095.13903	28934.1375
1098.80005	28421.5375
1102.45857	27983.4375
1106.11456	27759.6375
1109.76805	27900.8375
1113.41903	28138.2375
1117.06751	28475.3375
1120.71348	28922.9375
1124.35696	29317.9375
1127.99793	29568.2375
1131.63641	29525.2375
1135.2724	29189.4375
1138.90589	28904.1375
1142.5369	28672.2375
1146.16542	28606.5375
1149.79145	28725.2375
1153.415	28961.8375
1157.03607	29324.6375
1160.65467	29857.8375
1164.27079	30857.6375
1167.88443	32359.7375
1171.49561	34677.0375
1175.10432	37840.9375
1178.71056	41728.5375
1182.31434	45018.7375
1185.91565	46537.5375
1189.51451	45937.9375
1193.11091	43777.9375
1196.70485	41213.4375
1200.29634	39089.5375
1203.88538	37488.1375
1207.47197	36145.9375
1211.05612	35317.0375
1214.63782	35110.9375
1218.21708	35418.9375
1221.79391	35966.5375
1225.36829	36247.9375
1228.94024	35856.2375
1232.50976	34959.6375
1236.07685	34263.5375
1239.6415	33980.2375
1243.20374	33920.2375
1246.76355	34156.8375
1250.32093	34734.9375
1253.8759	35604.1375
1257.42845	36700.8375
1260.97859	37696.7375
1264.52631	38414.0375
1268.07163	39250.0375
1271.61453	40270.4375
1275.15503	41662.3375
1278.69312	43221.3375
1282.22882	44545.7375
1285.76211	45435.5375
1289.29301	46314.4375
1292.82151	47466.6375
1296.34761	49248.0375
1299.87133	51761.8375
1303.39266	55329.7375
1306.9116	60024.6375
1310.42815	64953.6375
1313.94233	67990.1375
1317.45412	67562.3375
1320.96354	64857.2375
1324.47058	61867.4375
1327.97525	59353.7375
1331.47754	57820.4375
1334.97747	57345.9375
1338.47502	57580.2375
1341.97022	58099.9375
1345.46305	58087.6375
1348.95352	57649.1375
1352.44163	57457.3375
1355.92738	58896.0375
1359.41078	62141.1375
1362.89183	64770.4375
1366.37053	62795.9375
1369.84688	56722.2375
1373.32088	50644.8375
1376.79254	46643.1375
1380.26186	44909.4375
1383.72883	44385.6375
1387.19347	44143.6375
1390.65578	43806.3375
1394.11575	44060.9375
1397.57339	45004.5375
1401.0287	46299.9375
1404.48168	47524.5375
1407.93234	48354.6375
1411.38068	48530.6375
1414.82669	47746.7375
1418.27039	45900.2375
1421.71177	43731.9375
1425.15083	42111.7375
1428.58758	41309.7375
1432.02203	41459.6375
1435.45416	42053.6375
1438.88399	42652.7375
1442.31151	43181.5375
1445.73673	43670.3375
1449.15965	44094.4375
1452.58027	44199.5375
1455.9986	44056.7375
1459.41463	44013.6375
1462.82837	44566.0375
1466.23982	45267.5375
1469.64898	45992.3375
1473.05586	46424.6375
1476.46045	46719.0375
1479.86276	46837.5375
1483.26279	46923.8375
1486.66054	47154.2375
1490.05602	47597.8375
1493.44922	48079.9375
1496.84016	48491.4375
1500.22882	49073.3375
1503.61521	50038.5375
1506.99934	51501.6375
1510.38121	53168.3375
1513.76081	53781.5375
1517.13816	52742.1375
1520.51324	50500.8375
1523.88607	48423.4375
1527.25665	47069.8375
1530.62498	46376.8375
1533.99105	45988.0375
1537.35488	45880.6375
1540.71647	45663.8375
1544.07581	45380.6375
1547.4329	44666.3375
1550.78776	43891.1375
1554.14038	43146.5375
1557.49077	42675.3375
1560.83892	42467.8375
1564.18484	42320.4375
1567.52853	42173.5375
1570.86999	42118.0375
1574.20922	42256.0375
1577.54624	42265.2375
1580.88103	41951.5375
1584.2136	42012.0375
1587.54395	43197.5375
1590.87208	46029.9375
1594.19801	50197.3375
1597.52172	54591.0375
1600.84321	56498.7375
1604.16251	54502.6375
1607.47959	49902.7375
1610.79447	44703.4375
1614.10715	40273.2375
1617.41763	37143.1375
1620.7259	35235.0375
1624.03199	34430.4375
1627.33587	34618.5375
1630.63757	35776.3375
1633.93707	37997.1375
1637.23439	41116.8375
1640.52951	44969.8375
1643.82246	48840.8375
1647.11321	51485.6375
1650.40179	51435.3375
1653.68819	47966.4375
1656.97241	42440.8375
1660.25446	37111.9375
1663.53433	33231.3375
1666.81203	30717.0375
1670.08756	29239.2375
1673.36092	28276.5375
1676.63211	27580.3375
1679.90115	27129.3375
1683.16801	26765.3375
1686.43272	26475.3375
1689.69527	26313.7375
1692.95567	26202.6375
1696.2139	26127.6375
1699.46999	26088.1375
1702.72392	26048.9375
1705.97571	26011.2375
1709.22535	25987.7375
1712.47284	25966.9375
1715.71819	26004.3375
1718.96139	25954.7375
1722.20246	25923.9375
1725.44139	25808.4375
1728.67818	25716.7375
1731.91284	25629.7375
1735.14537	25485.9375
1738.37576	25378.8375
1741.60403	25321.7375
1744.83017	25291.7375
1748.05418	25226.6375
1751.27607	25178.1375
1754.49584	25134.8375
1757.71349	25215.8375
1760.92903	25126.4375
1764.14244	25120.8375
1767.35375	25093.5375
1770.56294	25122.1375
1773.77002	25104.2375
1776.97499	25081.9375
1780.17785	25074.6375
1783.37861	25074.3375
1786.57727	25026.1375
1789.77382	25011.2375
1792.96828	25027.8375
1796.16064	25021.8375
1799.3509	24944.2375
1802.53907	24960.0375
1805.72514	24904.5375
1808.90913	24901.1375
1812.09102	24823.5375
1815.27083	24758.5375
1818.44856	24731.8375
1821.6242	24699.6375
1824.79776	24664.2375
1827.96924	24668.3375
1831.13864	24652.9375
1834.30597	24641.1375
1837.47122	24650.2375
1840.6344	24635.3375
1843.7955	24605.7375
1846.95454	24636.7375
1850.11151	24642.1375
1853.26642	24628.9375
1856.41926	24655.7375
1859.57004	24682.0375
1862.71876	24693.9375
1865.86542	24685.8375
1869.01003	24670.8375
1872.15258	24713.4375
1875.29308	24744.2375
1878.43152	24733.7375
1881.56792	24725.0375
1884.70227	24749.1375
1887.83457	24760.3375
1890.96482	24730.4375
1894.09304	24735.4375
1897.21921	24741.7375
1900.34335	24751.3375
1903.46544	24721.9375
1906.58551	24762.0375
1909.70353	24762.7375
1912.81953	24740.2375
1915.93349	24737.2375
1919.04543	24667.7375
1922.15534	24661.5375
1925.26322	24636.8375
1928.36908	24603.1375
1931.47292	24580.7375
1934.57473	24511.7375
1937.67453	24463.1375
1940.77232	24428.3375
1943.86808	24370.6375
1946.96184	24276.6375
1950.05358	24192.3375
1953.14331	24134.8375
1956.23103	24062.7375
1959.31675	23966.3375
1962.40046	23929.1375
1965.48217	23868.6375
1968.56188	23796.8375
1971.63959	23703.3375
1974.7153	23654.9375
1977.78901	23605.7375
1980.86073	23535.0375
1983.93046	23431.9375
1986.99819	23388.5375
1990.06394	23324.5375
1993.1277	23265.5375
1996.18947	23186.7375
1999.24925	23189.3375
2002.30706	23099.5375
2005.36288	23069.5375
2008.41672	23014.8375
2011.46859	22951.9375
2014.51848	22888.4375
2017.56639	22864.4375
2020.61233	22774.0375
2023.6563	22759.9375
2026.6983	22724.4375
2029.73833	22712.2375
2032.7764	22666.5375
2035.8125	22653.4375
2038.84664	22595.7375
2041.87881	22580.2375
2044.90903	22540.2375
2047.93729	22559.6375
2050.96359	22516.7375
2053.98794	22503.6375
2057.01034	22496.6375
2060.03078	22450.4375
2063.04927	22455.7375
2066.06582	22423.9375
2069.08042	22406.3375
2072.09307	22390.1375
2075.10378	22364.9375
2078.11255	22352.3375
2081.11938	22289.8375
2084.12426	22250.4375
2087.12722	22244.8375
2090.12824	22195.2375
2093.12732	22236.1375
2096.12447	22208.1375
2099.11969	22250.5375
2102.11299	22258.6375
2105.10435	22273.1375
2108.09379	22267.2375
2111.08131	22318.7375
2114.0669	22287.1375
2117.05057	22318.6375
2120.03233	22343.2375
2123.01216	22323.3375
2125.99008	22342.4375
2128.96609	22381.3375
2131.94018	22390.2375
2134.91236	22427.7375
2137.88263	22444.1375
2140.851	22474.3375
2143.81746	22486.3375
2146.78201	22512.4375
2149.74466	22528.4375
2152.7054	22541.6375
2155.66425	22496.3375
2158.6212	22509.2375
2161.57625	22506.3375
2164.52941	22509.0375
2167.48067	22509.8375
2170.43004	22489.1375
2173.37752	22495.7375
2176.32311	22476.5375
2179.26681	22498.6375
2182.20863	22512.5375
2185.14856	22562.6375
2188.08661	22563.9375
2191.02278	22589.9375
2193.95707	22582.5375
2196.88948	22564.7375
2199.82001	22601.2375
2202.74867	22584.2375
2205.67545	22598.5375
2208.60037	22578.4375
2211.52341	22550.6375
2214.44458	22598.4375
2217.36388	22529.8375
2220.28132	22543.4375
2223.1969	22464.6375
2226.11061	22472.7375
2229.02246	22446.7375
2231.93245	22380.8375
2234.84058	22341.3375
2237.74686	22280.4375
2240.65128	22284.4375
2243.55385	22244.8375
2246.45456	22211.7375
2249.35343	22226.5375
2252.25044	22175.6375
2255.14561	22168.7375
2258.03893	22183.1375
2260.93041	22109.5375
2263.82004	22056.2375
2266.70783	22025.9375
2269.59378	21967.0375
2272.4779	21872.3375
2275.36017	21849.0375
2278.24061	21813.6375
2281.11922	21782.0375
2283.996	21725.1375
2286.87094	21712.8375
2289.74405	21695.2375
2292.61534	21696.6375
2295.4848	21670.6375
2298.35243	21704.7375
2301.21824	21761.0375
2304.08223	21731.3375
2306.94439	21779.0375
2309.80474	21821.7375
2312.66327	21833.3375
2315.51999	21879.0375
2318.37489	21864.2375
2321.22797	21858.4375
2324.07925	21885.0375
2326.92871	21836.7375
2329.77637	21806.7375
2332.62222	21797.0375
2335.46626	21809.4375
2338.3085	21840.3375
2341.14893	21831.1375
2343.98756	21872.0375
2346.8244	21932.4375
2349.65943	21933.6375
2352.49267	21933.9375
2355.32411	21956.5375
2358.15376	21915.6375
2360.98161	21905.5375
2363.80768	21838.4375
2366.63195	21813.9375
2369.45444	21742.1375
2372.27514	21707.5375
2375.09405	21669.2375
2377.91118	21582.4375
2380.72652	21564.4375
2383.54009	21495.3375
2386.35187	21483.2375
2389.16188	21449.0375
2391.97011	21384.6375
2394.77657	21347.9375
2397.58125	21334.5375
2400.38416	21358.7375
2403.18529	21252.1375
2405.98466	21216.9375
2408.78226	21145.2375
2411.57809	21100.1375
2414.37216	21072.0375
2417.16446	21070.4375
2419.955	21019.4375
2422.74378	20971.7375
2425.5308	21010.1375
2428.31606	20986.5375
2431.09956	20980.7375
2433.88131	20939.6375
2436.6613	20932.1375
2439.43954	20939.0375
2442.21603	20963.8375
2444.99077	20932.0375
2447.76377	20934.9375
2450.53501	20918.5375
2453.30451	20938.5375
2456.07226	20898.5375
2458.83827	20900.3375
2461.60254	20891.8375
2464.36507	20866.1375
2467.12586	20842.8375
2469.88492	20846.0375
2472.64224	20869.9375
2475.39782	20908.7375
2478.15167	20985.0375
2480.90379	20969.3375
2483.65417	20999.4375
2486.40283	21028.0375
2489.14976	21047.4375
2491.89497	21072.3375
2494.63845	21078.7375
2497.3802	21144.7375
2500.12024	21112.6375
2502.85855	21106.2375
2505.59514	21079.8375
2508.33002	21078.3375
2511.06318	21043.7375
2513.79462	20990.9375
2516.52435	20923.0375
2519.25237	20912.9375
2521.97867	20906.4375
2524.70327	20901.5375
2527.42616	20924.1375
2530.14734	20914.6375
2532.86681	20858.4375
2535.58458	20908.4375
2538.30065	20887.1375
2541.01501	20911.8375
2543.72768	20879.0375
2546.43864	20885.7375
2549.14791	20864.8375
2551.85548	20844.6375
2554.56136	20825.8375
2557.26554	20791.2375
2559.96803	20753.0375
2562.66883	20739.2375
2565.36794	20732.6375
2568.06536	20733.3375
2570.7611	20674.7375
2573.45514	20723.3375
2576.14751	20736.7375
2578.83819	20697.6375
2581.52719	20706.5375
2584.21451	20692.3375
2586.90015	20711.5375
2589.58411	20701.8375
2592.2664	20734.3375
2594.94701	20722.9375
2597.62594	20723.0375
2600.30321	20732.1375
2602.9788	20704.9375
2605.65273	20708.8375
2608.32498	20691.4375
2610.99557	20730.6375
2613.66449	20741.0375
2616.33175	20757.2375
2618.99734	20787.9375
2621.66128	20794.1375
2624.32355	20852.8375
2626.98416	20836.9375
2629.64311	20865.0375
2632.30041	20867.0375
2634.95605	20827.5375
2637.61004	20785.5375
2640.26238	20778.7375
2642.91306	20718.8375
2645.56209	20695.7375
2648.20948	20654.6375
2650.85521	20627.5375
2653.4993	20590.9375
2656.14175	20563.2375
2658.78255	20625.8375
2661.42171	20634.5375
2664.05923	20681.0375
2666.6951	20674.7375
2669.32934	20682.9375
2671.96194	20690.3375
2674.59291	20747.8375
2677.22224	20726.3375
2679.84993	20711.0375
2682.476	20674.7375
2685.10043	20679.6375
2687.72324	20661.9375
2690.34441	20667.1375
2692.96396	20629.0375
2695.58188	20618.2375
2698.19818	20606.2375
2700.81285	20632.0375
2703.4259	20563.3375
2706.03733	20590.9375
2708.64714	20612.8375
2711.25533	20607.5375
2713.86191	20619.9375
2716.46687	20651.1375
2719.07021	20650.8375
2721.67194	20682.7375
2724.27206	20638.5375
2726.87057	20700.5375
2729.46747	20728.6375
2732.06276	20720.7375
2734.65644	20712.9375
2737.24852	20697.5375
2739.83899	20700.2375
2742.42786	20734.2375
2745.01513	20668.4375
2747.60079	20611.8375
2750.18486	20601.4375
2752.76733	20663.8375
2755.3482	20660.2375
2757.92747	20622.7375
2760.50515	20612.2375
2763.08123	20607.4375
2765.65573	20599.0375
2768.22863	20612.6375
2770.79994	20619.9375
2773.36967	20626.4375
2775.9378	20606.3375
2778.50435	20646.6375
2781.06932	20627.1375
2783.6327	20612.4375
2786.1945	20561.9375
2788.75471	20583.9375
2791.31335	20567.9375
2793.87041	20495.6375
2796.42589	20490.1375
2798.97979	20484.3375
2801.53212	20497.4375
2804.08288	20439.4375
2806.63206	20389.7375
2809.17967	20326.3375
2811.72571	20299.3375
2814.27018	20303.4375
2816.81308	20298.7375
2819.35442	20271.3375
2821.89419	20239.8375
2824.43239	20238.9375
2826.96904	20234.4375
2829.50412	20226.2375
2832.03763	20155.2375
2834.56959	20189.5375
2837.1	20176.2375
2839.62884	20164.2375
2842.15613	20177.1375
2844.68186	20183.3375
2847.20604	20154.7375
2849.72867	20204.4375
2852.24974	20149.0375
2854.76927	20124.7375
2857.28724	20097.5375
2859.80367	20072.6375
2862.31855	20063.0375
2864.83189	20023.3375
2867.34368	20026.8375
2869.85393	19990.4375
2872.36264	19976.2375
2874.8698	19993.2375
2877.37543	19961.5375
2879.87952	19997.6375
2882.38207	19960.9375
2884.88308	19941.0375
2887.38256	19985.0375
2889.88051	19993.6375
2892.37692	19999.6375
2894.8718	20031.9375
2897.36515	20092.5375
2899.85698	20110.6375
2902.34727	20108.7375
2904.83604	20134.8375
2907.32328	20190.3375
2909.809	20197.0375
2912.29319	20199.6375
2914.77587	20222.1375
2917.25702	20184.8375
2919.73665	20170.6375
2922.21476	20167.2375
2924.69136	20114.3375
2927.16644	20085.3375
2929.64	20080.6375
2932.11205	20059.9375
2934.58258	20006.6375
2937.05161	20034.4375
2939.51912	20031.3375
2941.98513	20012.2375
2944.44962	19995.9375
2946.91261	19978.2375
2949.37409	19984.0375
2951.83407	19952.2375
2954.29254	19989.0375
2956.74951	19928.8375
2959.20498	19967.0375
2961.65895	19922.5375
2964.11142	19934.4375
2966.56239	19882.6375
2969.01186	19931.4375
2971.45984	19824.6375
2973.90632	19828.5375
2976.35131	19755.4375
2978.7948	19737.7375
2981.23681	19710.5375
2983.67732	19683.9375
2986.11635	19593.5375
2988.55388	19554.3375
2990.98993	19550.9375
2993.4245	19521.5375
2995.85758	19477.4375
2998.28917	19409.8375
3000.71928	19389.7375
3003.14791	19386.3375
3005.57506	19344.8375
3008.00073	19279.0375
3010.42493	19277.8375
3012.84764	19217.9375
3015.26888	19212.9375
3017.68865	19167.7375
3020.10694	19123.7375
3022.52376	19097.0375
3024.9391	19044.6375
3027.35298	19047.5375
3029.76539	19026.1375
3032.17632	19052.7375
3034.5858	19005.3375
3036.9938	19036.1375
3039.40034	18991.4375
3041.80542	18974.1375
3044.20903	18957.9375
3046.61118	18995.7375
3049.01187	18911.0375
3051.4111	18909.8375
3053.80888	18882.7375
3056.20519	18816.2375
3058.60005	18808.8375
3060.99345	18766.2375
3063.3854	18700.0375
3065.7759	18645.1375
3068.16494	18591.0375
3070.55254	18510.7375
3072.93868	18468.0375
3075.32338	18389.8375
3077.70662	18352.4375
3080.08842	18370.0375
3082.46878	18340.0375
3084.84769	18318.1375
3087.22515	18287.8375
3089.60118	18294.9375
3091.97576	18293.5375
3094.3489	18269.9375
3096.72061	18272.3375
3099.09087	18273.7375
3101.4597	18249.6375
3103.82709	18251.9375
3106.19305	18206.7375
3108.55757	18253.8375
3110.92066	18205.1375
3113.28232	18208.8375
3115.64255	18139.2375
3118.00134	18129.6375
3120.35871	18118.3375
3122.71466	18073.7375
3125.06917	18050.2375
3127.42226	17992.7375
3129.77393	18028.9375
3132.12417	17977.6375
3134.47299	17946.2375
3136.82039	17947.3375
3139.16636	17924.1375
3141.51092	17924.7375
3143.85406	17960.1375
3146.19579	17930.4375
3148.53609	17902.8375
3150.87499	17952.8375
3153.21246	17952.2375
3155.54853	17960.2375
3157.88318	17936.6375
3160.21642	18008.0375
3162.54826	17957.1375
3164.87868	17949.5375
3167.2077	17913.6375
3169.5353	17927.6375
3171.86151	17933.0375
3174.18631	17931.9375
3176.5097	17897.0375
3178.83169	17886.6375
3181.15228	17879.1375
3183.47147	17828.5375
3185.78926	17837.9375
3188.10565	17844.6375
3190.42065	17849.5375
3192.73424	17842.5375
3195.04645	17813.4375
3197.35725	17807.0375
3199.66667	17800.6375
3201.97469	17799.3375
3204.28132	17793.9375
3206.58656	17832.6375
3208.8904	17800.2375
3211.19287	17820.3375
3213.49394	17791.9375
3215.79363	17789.5375
3218.09193	17800.4375
3220.38884	17812.7375
3222.68438	17848.6375
3224.97853	17831.5375
3227.2713	17870.6375
3229.56269	17874.6375
3231.8527	17878.5375
3234.14133	17840.7375
3236.42858	17811.2375
3238.71446	17766.5375
3240.99896	17701.5375
3243.28209	17753.0375
3245.56384	17690.8375
3247.84423	17712.6375
3250.12324	17683.2375
3252.40088	17655.7375
3254.67715	17643.5375
3256.95205	17634.5375
3259.22558	17660.9375
3261.49775	17616.3375
3263.76855	17658.8375
3266.03799	17644.7375
3268.30606	17622.3375
3270.57277	17597.4375
3272.83812	17570.2375
3275.10211	17526.7375
3277.36474	17480.2375
3279.62601	17465.6375
3281.88593	17448.7375
3284.14448	17472.7375
3286.40168	17475.7375
3288.65753	17491.1375
3290.91202	17484.9375
3293.16516	17470.8375
3295.41695	17435.3375
3297.66738	17360.3375
3299.91647	17237.8375
3302.16421	17164.1375
3304.4106	17069.9375
3306.65564	17005.4375
3308.89933	16898.2375
3311.14169	16757.1375
3313.38269	16666.8375
3315.62236	16550.3375
3317.86068	16457.9375
3320.09766	16351.9375
3322.3333	16276.7375
3324.5676	16177.7375
3326.80056	15974.3375
3329.03219	15918.0375
3331.26248	2.5375
3333.49143	1.9375
3335.71905	-0.1625
