Data from AgNPs_UA_200uM_CRN_0uM_R6G_10uM_Q_RamanShift__26__14-30-14-169.txt Node

Date: Tue Jul 26 14:30:14 BST 2022
User: TCL
Spectrometer: QEP01345
Trigger mode: 4
Integration Time (sec): 7.000000E0
Scans to average: 10
Electric dark correction enabled: true
Nonlinearity correction enabled: false
Boxcar width: 0
XAxis mode: Raman Shifts
Number of Pixels in Spectrum: 1044
>>>>>Begin Spectral Data<<<<<
46.04893	-1.1125
50.45542	-0.0125
54.85868	-1.0125
59.25871	0.5875
63.6555	47.0875
68.04907	51.2875
72.43941	52.7875
76.82654	55.8875
81.21044	59.6875
85.59113	60.2875
89.96862	61.4875
94.34289	66.8875
98.71396	69.1875
103.08183	68.4875
107.4465	74.3875
111.80798	70.2875
116.16626	73.2875
120.52136	72.7875
124.87327	73.9875
129.222	72.4875
133.56755	76.5875
137.90993	80.9875
142.24913	82.9875
146.58517	88.2875
150.91804	91.8875
155.24774	105.4875
159.57429	120.2875
163.89768	144.5875
168.21792	180.6875
172.53501	231.4875
176.84895	310.5875
181.15975	428.0875
185.46741	583.8875
189.77193	806.4875
194.07331	1072.0875
198.37157	1377.6875
202.6667	1707.6875
206.9587	2029.6875
211.24758	2383.8875
215.53334	2747.3875
219.81599	3161.7875
224.09553	3625.7875
228.37195	4151.0875
232.64527	4677.3875
236.91549	5187.7875
241.18261	5605.0875
245.44663	5890.6875
249.70755	6123.5875
253.96539	6283.8875
258.22014	6496.9875
262.4718	6612.3875
266.72039	6697.2875
270.96589	6695.3875
275.20832	6577.2875
279.44768	6390.1875
283.68397	6225.0875
287.91719	6150.4875
292.14735	6168.2875
296.37445	6400.4875
300.59849	6761.8875
304.81948	7222.8875
309.03742	7529.6875
313.25231	7569.4875
317.46415	7182.0875
321.67296	6551.5875
325.87872	6030.1875
330.08145	5802.2875
334.28114	5827.5875
338.47781	5933.6875
342.67145	6122.9875
346.86207	6472.5875
351.04966	6955.2875
355.23424	7486.9875
359.4158	7891.7875
363.59435	8055.9875
367.76989	8087.4875
371.94243	8011.9875
376.11196	7932.8875
380.27849	7839.4875
384.44203	7718.2875
388.60257	7588.7875
392.76012	7524.9875
396.91468	7566.8875
401.06626	7719.5875
405.21485	7816.9875
409.36047	7591.5875
413.50311	7103.0875
417.64277	6647.2875
421.77947	6380.1875
425.9132	6244.3875
430.04396	6194.9875
434.17176	6234.2875
438.2966	6336.7875
442.41849	6479.3875
446.53742	6642.4875
450.6534	6778.2875
454.76644	6836.7875
458.87653	6881.2875
462.98368	6799.1875
467.08789	6744.6875
471.18916	6621.3875
475.2875	6461.9875
479.38291	6336.2875
483.4754	6258.5875
487.56496	6234.0875
491.6516	6231.7875
495.73531	6235.7875
499.81612	6260.7875
503.89401	6319.5875
507.96899	6421.9875
512.04106	6547.1875
516.11023	6717.6875
520.1765	6844.0875
524.23987	6888.1875
528.30034	6851.8875
532.35792	6774.3875
536.41261	6661.6875
540.46441	6532.8875
544.51333	6433.9875
548.55936	6442.6875
552.60252	6567.8875
556.64279	6713.0875
560.6802	6798.2875
564.71473	7005.3875
568.7464	7345.5875
572.7752	7364.3875
576.80114	6928.8875
580.82422	6535.5875
584.84444	6384.7875
588.86181	6429.7875
592.87633	6516.7875
596.888	6662.7875
600.89682	7068.0875
604.9028	8341.7875
608.90594	11415.4875
612.90624	14782.1875
616.90371	13611.0875
620.89834	9389.7875
624.89015	7651.2875
628.87913	7502.4875
632.86528	7732.7875
636.84862	7877.2875
640.82913	7643.5875
644.80683	7118.6875
648.78172	6716.1875
652.75379	6663.1875
656.72306	6926.7875
660.68952	7228.9875
664.65319	7046.9875
668.61405	6614.0875
672.57211	6416.5875
676.52738	6384.0875
680.47986	6351.7875
684.42955	6302.1875
688.37646	6283.0875
692.32058	6307.9875
696.26192	6334.8875
700.20048	6420.1875
704.13626	6441.5875
708.06928	6381.4875
711.99952	6334.1875
715.927	6370.3875
719.85171	6457.0875
723.77365	6536.4875
727.69284	6519.9875
731.60928	6497.2875
735.52295	6455.8875
739.43388	6458.4875
743.34206	6464.2875
747.24749	6470.8875
751.15017	6490.8875
755.05012	6611.5875
758.94733	7043.9875
762.8418	8119.0875
766.73354	9750.1875
770.62254	11181.8875
774.50882	11766.4875
778.39237	11067.3875
782.27321	9451.3875
786.15132	7947.4875
790.02671	7061.6875
793.89938	6732.6875
797.76935	6566.3875
801.6366	6531.2875
805.50115	6571.0875
809.36299	6646.2875
813.22213	6647.2875
817.07857	6633.9875
820.93231	6558.4875
824.78336	6509.0875
828.63172	6461.6875
832.47738	6465.8875
836.32036	6430.4875
840.16066	6410.2875
843.99827	6372.9875
847.8332	6362.4875
851.66546	6355.8875
855.49504	6344.2875
859.32195	6321.8875
863.1462	6295.2875
866.96777	6306.7875
870.78668	6321.2875
874.60293	6380.1875
878.41652	6452.5875
882.22745	6580.1875
886.03573	6678.7875
889.84136	6682.3875
893.64433	6628.4875
897.44466	6576.8875
901.24235	6503.5875
905.0374	6418.3875
908.8298	6316.7875
912.61957	6245.7875
916.40671	6248.5875
920.19121	6249.6875
923.97308	6341.1875
927.75233	6480.5875
931.52895	6626.7875
935.30295	6546.4875
939.07433	6328.4875
942.84309	6192.8875
946.60924	6091.5875
950.37278	6061.3875
954.13371	6015.4875
957.89203	5971.7875
961.64774	5959.6875
965.40086	5922.0875
969.15137	5901.6875
972.89929	5924.4875
976.64461	5885.0875
980.38733	5913.0875
984.12747	5927.3875
987.86502	5969.4875
991.59999	6060.1875
995.33237	6185.5875
999.06217	6377.5875
1002.78939	6598.6875
1006.51404	6741.6875
1010.23611	6851.2875
1013.95561	6921.1875
1017.67255	6914.7875
1021.38692	6886.9875
1025.09872	6868.5875
1028.80796	6937.8875
1032.51465	7102.9875
1036.21877	7242.8875
1039.92035	7211.1875
1043.61937	7091.3875
1047.31584	6911.3875
1051.00976	6721.5875
1054.70114	6601.3875
1058.38998	6564.5875
1062.07627	6558.8875
1065.76003	6558.7875
1069.44126	6567.7875
1073.11995	6644.1875
1076.79611	6721.8875
1080.46974	6919.6875
1084.14085	7134.4875
1087.80943	7347.4875
1091.47549	7355.8875
1095.13903	7153.1875
1098.80005	6904.9875
1102.45857	6770.0875
1106.11456	6789.9875
1109.76805	6953.4875
1113.41903	7224.4875
1117.06751	7638.2875
1120.71348	8156.2875
1124.35696	8726.0875
1127.99793	9109.1875
1131.63641	8928.2875
1135.2724	8397.3875
1138.90589	7961.8875
1142.5369	7645.3875
1146.16542	7325.5875
1149.79145	7102.1875
1153.415	6967.8875
1157.03607	6927.1875
1160.65467	6992.3875
1164.27079	7212.1875
1167.88443	7614.6875
1171.49561	8228.3875
1175.10432	9277.7875
1178.71056	10700.3875
1182.31434	11858.4875
1185.91565	12081.7875
1189.51451	11569.6875
1193.11091	10615.4875
1196.70485	9745.0875
1200.29634	9248.2875
1203.88538	8889.2875
1207.47197	8387.9875
1211.05612	7894.5875
1214.63782	7559.3875
1218.21708	7385.2875
1221.79391	7336.5875
1225.36829	7334.7875
1228.94024	7291.2875
1232.50976	7206.6875
1236.07685	7148.5875
1239.6415	7152.8875
1243.20374	7190.7875
1246.76355	7293.6875
1250.32093	7412.3875
1253.8759	7583.3875
1257.42845	7802.2875
1260.97859	8099.4875
1264.52631	8370.2875
1268.07163	8626.1875
1271.61453	8834.1875
1275.15503	9001.9875
1278.69312	9128.1875
1282.22882	9257.3875
1285.76211	9517.8875
1289.29301	9845.8875
1292.82151	10178.9875
1296.34761	10597.1875
1299.87133	11334.1875
1303.39266	12686.7875
1306.9116	14729.1875
1310.42815	16641.0875
1313.94233	17054.0875
1317.45412	15741.7875
1320.96354	13878.5875
1324.47058	12220.2875
1327.97525	10922.4875
1331.47754	10191.7875
1334.97747	9955.3875
1338.47502	10074.6875
1341.97022	10608.8875
1345.46305	11468.6875
1348.95352	12679.8875
1352.44163	14111.0875
1355.92738	16208.3875
1359.41078	19383.8875
1362.89183	21938.5875
1366.37053	20367.5875
1369.84688	16165.8875
1373.32088	12834.7875
1376.79254	11003.7875
1380.26186	10002.9875
1383.72883	9333.6875
1387.19347	8809.4875
1390.65578	8363.9875
1394.11575	8073.8875
1397.57339	7890.4875
1401.0287	7860.2875
1404.48168	7829.6875
1407.93234	7839.6875
1411.38068	7889.7875
1414.82669	7960.4875
1418.27039	8040.2875
1421.71177	7982.8875
1425.15083	7864.3875
1428.58758	7854.6875
1432.02203	7999.2875
1435.45416	8077.8875
1438.88399	8011.9875
1442.31151	7928.9875
1445.73673	7913.0875
1449.15965	7915.1875
1452.58027	7878.5875
1455.9986	7784.3875
1459.41463	7731.1875
1462.82837	7817.8875
1466.23982	7976.2875
1469.64898	8168.4875
1473.05586	8291.4875
1476.46045	8372.6875
1479.86276	8547.7875
1483.26279	8784.6875
1486.66054	9084.7875
1490.05602	9565.8875
1493.44922	10288.0875
1496.84016	11459.8875
1500.22882	13268.1875
1503.61521	15814.9875
1506.99934	18688.4875
1510.38121	20559.4875
1513.76081	20344.9875
1517.13816	17991.0875
1520.51324	14861.3875
1523.88607	12303.5875
1527.25665	10802.2875
1530.62498	9949.5875
1533.99105	9480.2875
1537.35488	9192.1875
1540.71647	9037.5875
1544.07581	9009.1875
1547.4329	9033.5875
1550.78776	9116.3875
1554.14038	9229.6875
1557.49077	9362.5875
1560.83892	9603.5875
1564.18484	9960.4875
1567.52853	10384.4875
1570.86999	10691.6875
1574.20922	10818.4875
1577.54624	10629.3875
1580.88103	9883.4875
1584.2136	9036.8875
1587.54395	8602.3875
1590.87208	8682.4875
1594.19801	9234.9875
1597.52172	9896.2875
1600.84321	10189.7875
1604.16251	9860.3875
1607.47959	9292.5875
1610.79447	8719.4875
1614.10715	8164.2875
1617.41763	7722.5875
1620.7259	7473.9875
1624.03199	7346.1875
1627.33587	7404.8875
1630.63757	7613.0875
1633.93707	8035.6875
1637.23439	8691.9875
1640.52951	9644.2875
1643.82246	11095.4875
1647.11321	12797.9875
1650.40179	13841.8875
1653.68819	13154.7875
1656.97241	11166.8875
1660.25446	9213.6875
1663.53433	7960.8875
1666.81203	7195.9875
1670.08756	6781.7875
1673.36092	6527.0875
1676.63211	6352.2875
1679.90115	6238.8875
1683.16801	6148.5875
1686.43272	6093.2875
1689.69527	6008.0875
1692.95567	5979.2875
1696.2139	5949.6875
1699.46999	5884.2875
1702.72392	5832.9875
1705.97571	5806.5875
1709.22535	5791.7875
1712.47284	5751.2875
1715.71819	5747.2875
1718.96139	5729.2875
1722.20246	5688.6875
1725.44139	5630.2875
1728.67818	5596.1875
1731.91284	5547.0875
1735.14537	5506.9875
1738.37576	5481.5875
1741.60403	5468.2875
1744.83017	5444.4875
1748.05418	5429.0875
1751.27607	5395.8875
1754.49584	5384.0875
1757.71349	5387.7875
1760.92903	5366.9875
1764.14244	5348.3875
1767.35375	5350.5875
1770.56294	5305.4875
1773.77002	5302.7875
1776.97499	5288.1875
1780.17785	5281.7875
1783.37861	5263.1875
1786.57727	5244.7875
1789.77382	5237.4875
1792.96828	5238.9875
1796.16064	5230.9875
1799.3509	5208.7875
1802.53907	5218.9875
1805.72514	5197.5875
1808.90913	5175.1875
1812.09102	5160.9875
1815.27083	5148.0875
1818.44856	5131.6875
1821.6242	5113.7875
1824.79776	5118.7875
1827.96924	5114.5875
1831.13864	5115.4875
1834.30597	5097.4875
1837.47122	5085.2875
1840.6344	5066.0875
1843.7955	5070.8875
1846.95454	5069.8875
1850.11151	5069.1875
1853.26642	5054.5875
1856.41926	5046.0875
1859.57004	5053.6875
1862.71876	5048.6875
1865.86542	5065.4875
1869.01003	5045.6875
1872.15258	5060.1875
1875.29308	5043.2875
1878.43152	5041.2875
1881.56792	5036.7875
1884.70227	5035.2875
1887.83457	5020.5875
1890.96482	5024.7875
1894.09304	5014.5875
1897.21921	5005.5875
1900.34335	4992.3875
1903.46544	5006.0875
1906.58551	5007.1875
1909.70353	5013.0875
1912.81953	5001.1875
1915.93349	4986.4875
1919.04543	4981.4875
1922.15534	4978.5875
1925.26322	4981.3875
1928.36908	4956.9875
1931.47292	4949.9875
1934.57473	4933.2875
1937.67453	4910.5875
1940.77232	4906.2875
1943.86808	4882.4875
1946.96184	4863.6875
1950.05358	4855.2875
1953.14331	4851.9875
1956.23103	4845.2875
1959.31675	4843.0875
1962.40046	4815.4875
1965.48217	4823.1875
1968.56188	4802.2875
1971.63959	4805.1875
1974.7153	4776.7875
1977.78901	4779.1875
1980.86073	4744.5875
1983.93046	4732.5875
1986.99819	4703.8875
1990.06394	4685.6875
1993.1277	4672.2875
1996.18947	4651.8875
1999.24925	4649.6875
2002.30706	4619.2875
2005.36288	4620.3875
2008.41672	4611.0875
2011.46859	4598.5875
2014.51848	4575.6875
2017.56639	4559.8875
2020.61233	4563.4875
2023.6563	4542.8875
2026.6983	4542.9875
2029.73833	4539.3875
2032.7764	4521.2875
2035.8125	4522.3875
2038.84664	4503.8875
2041.87881	4510.8875
2044.90903	4509.4875
2047.93729	4486.2875
2050.96359	4489.5875
2053.98794	4483.7875
2057.01034	4488.1875
2060.03078	4463.7875
2063.04927	4477.7875
2066.06582	4470.7875
2069.08042	4447.7875
2072.09307	4464.1875
2075.10378	4440.7875
2078.11255	4444.3875
2081.11938	4453.5875
2084.12426	4446.3875
2087.12722	4450.8875
2090.12824	4446.1875
2093.12732	4427.5875
2096.12447	4433.1875
2099.11969	4435.5875
2102.11299	4440.4875
2105.10435	4444.9875
2108.09379	4451.4875
2111.08131	4446.9875
2114.0669	4456.5875
2117.05057	4451.3875
2120.03233	4472.1875
2123.01216	4477.1875
2125.99008	4481.0875
2128.96609	4487.7875
2131.94018	4473.1875
2134.91236	4487.9875
2137.88263	4487.5875
2140.851	4487.4875
2143.81746	4484.3875
2146.78201	4470.0875
2149.74466	4468.1875
2152.7054	4489.5875
2155.66425	4466.7875
2158.6212	4466.0875
2161.57625	4461.8875
2164.52941	4465.5875
2167.48067	4459.3875
2170.43004	4453.6875
2173.37752	4456.2875
2176.32311	4463.5875
2179.26681	4464.6875
2182.20863	4477.6875
2185.14856	4485.0875
2188.08661	4459.3875
2191.02278	4469.9875
2193.95707	4486.3875
2196.88948	4457.2875
2199.82001	4454.5875
2202.74867	4453.7875
2205.67545	4475.2875
2208.60037	4456.7875
2211.52341	4456.1875
2214.44458	4443.1875
2217.36388	4452.0875
2220.28132	4449.1875
2223.1969	4419.4875
2226.11061	4425.0875
2229.02246	4415.1875
2231.93245	4402.3875
2234.84058	4396.9875
2237.74686	4377.3875
2240.65128	4387.5875
2243.55385	4373.4875
2246.45456	4384.4875
2249.35343	4368.8875
2252.25044	4367.5875
2255.14561	4381.0875
2258.03893	4380.6875
2260.93041	4383.7875
2263.82004	4372.8875
2266.70783	4363.4875
2269.59378	4330.9875
2272.4779	4328.9875
2275.36017	4337.9875
2278.24061	4313.2875
2281.11922	4312.8875
2283.996	4313.7875
2286.87094	4303.7875
2289.74405	4279.8875
2292.61534	4271.6875
2295.4848	4268.2875
2298.35243	4273.8875
2301.21824	4267.4875
2304.08223	4277.9875
2306.94439	4277.8875
2309.80474	4288.1875
2312.66327	4269.9875
2315.51999	4265.9875
2318.37489	4272.4875
2321.22797	4272.9875
2324.07925	4272.5875
2326.92871	4273.2875
2329.77637	4269.9875
2332.62222	4270.3875
2335.46626	4235.8875
2338.3085	4249.5875
2341.14893	4254.1875
2343.98756	4257.0875
2346.8244	4270.7875
2349.65943	4289.2875
2352.49267	4280.4875
2355.32411	4280.9875
2358.15376	4284.1875
2360.98161	4296.6875
2363.80768	4285.8875
2366.63195	4288.4875
2369.45444	4280.9875
2372.27514	4275.0875
2375.09405	4259.2875
2377.91118	4265.5875
2380.72652	4254.0875
2383.54009	4217.7875
2386.35187	4215.0875
2389.16188	4196.2875
2391.97011	4182.0875
2394.77657	4174.2875
2397.58125	4166.2875
2400.38416	4170.2875
2403.18529	4151.5875
2405.98466	4132.3875
2408.78226	4135.0875
2411.57809	4124.9875
2414.37216	4131.0875
2417.16446	4104.0875
2419.955	4086.5875
2422.74378	4106.4875
2425.5308	4097.8875
2428.31606	4096.1875
2431.09956	4091.3875
2433.88131	4090.7875
2436.6613	4093.1875
2439.43954	4101.9875
2442.21603	4091.3875
2444.99077	4099.3875
2447.76377	4128.8875
2450.53501	4101.1875
2453.30451	4094.0875
2456.07226	4088.9875
2458.83827	4084.1875
2461.60254	4085.5875
2464.36507	4089.0875
2467.12586	4087.5875
2469.88492	4082.8875
2472.64224	4084.7875
2475.39782	4079.3875
2478.15167	4100.1875
2480.90379	4096.9875
2483.65417	4116.0875
2486.40283	4112.6875
2489.14976	4125.4875
2491.89497	4132.9875
2494.63845	4127.9875
2497.3802	4116.6875
2500.12024	4118.2875
2502.85855	4119.3875
2505.59514	4098.9875
2508.33002	4083.4875
2511.06318	4068.9875
2513.79462	4046.3875
2516.52435	4048.7875
2519.25237	4028.5875
2521.97867	4018.3875
2524.70327	4011.1875
2527.42616	4010.7875
2530.14734	4006.0875
2532.86681	4011.9875
2535.58458	4016.4875
2538.30065	4009.9875
2541.01501	4018.1875
2543.72768	4013.9875
2546.43864	3996.6875
2549.14791	3998.4875
2551.85548	3991.9875
2554.56136	4000.8875
2557.26554	3999.8875
2559.96803	3976.2875
2562.66883	3977.3875
2565.36794	3979.3875
2568.06536	3973.8875
2570.7611	3974.2875
2573.45514	3963.2875
2576.14751	3957.5875
2578.83819	3949.2875
2581.52719	3939.7875
2584.21451	3943.0875
2586.90015	3952.9875
2589.58411	3935.1875
2592.2664	3934.6875
2594.94701	3930.3875
2597.62594	3926.9875
2600.30321	3924.6875
2602.9788	3909.6875
2605.65273	3905.5875
2608.32498	3934.8875
2610.99557	3912.4875
2613.66449	3925.6875
2616.33175	3912.7875
2618.99734	3921.2875
2621.66128	3931.1875
2624.32355	3930.9875
2626.98416	3930.2875
2629.64311	3923.2875
2632.30041	3912.9875
2634.95605	3908.8875
2637.61004	3906.9875
2640.26238	3894.9875
2642.91306	3900.3875
2645.56209	3888.2875
2648.20948	3878.2875
2650.85521	3870.9875
2653.4993	3864.3875
2656.14175	3869.7875
2658.78255	3882.4875
2661.42171	3887.2875
2664.05923	3880.9875
2666.6951	3898.9875
2669.32934	3901.6875
2671.96194	3901.9875
2674.59291	3905.9875
2677.22224	3899.1875
2679.84993	3916.0875
2682.476	3892.2875
2685.10043	3906.2875
2687.72324	3881.0875
2690.34441	3888.8875
2692.96396	3871.7875
2695.58188	3875.8875
2698.19818	3880.5875
2700.81285	3858.5875
2703.4259	3869.3875
2706.03733	3858.8875
2708.64714	3856.1875
2711.25533	3872.4875
2713.86191	3873.5875
2716.46687	3884.0875
2719.07021	3862.4875
2721.67194	3865.6875
2724.27206	3884.4875
2726.87057	3877.4875
2729.46747	3883.6875
2732.06276	3882.8875
2734.65644	3875.6875
2737.24852	3861.7875
2739.83899	3867.5875
2742.42786	3855.6875
2745.01513	3856.5875
2747.60079	3842.5875
2750.18486	3823.1875
2752.76733	3839.7875
2755.3482	3827.6875
2757.92747	3816.0875
2760.50515	3815.3875
2763.08123	3813.3875
2765.65573	3803.1875
2768.22863	3810.5875
2770.79994	3803.2875
2773.36967	3816.7875
2775.9378	3807.3875
2778.50435	3799.8875
2781.06932	3795.6875
2783.6327	3801.3875
2786.1945	3807.2875
2788.75471	3798.2875
2791.31335	3780.0875
2793.87041	3786.0875
2796.42589	3792.7875
2798.97979	3784.7875
2801.53212	3780.3875
2804.08288	3779.8875
2806.63206	3785.5875
2809.17967	3766.7875
2811.72571	3775.5875
2814.27018	3764.8875
2816.81308	3766.3875
2819.35442	3757.0875
2821.89419	3762.2875
2824.43239	3758.0875
2826.96904	3772.1875
2829.50412	3773.2875
2832.03763	3758.0875
2834.56959	3755.7875
2837.1	3754.9875
2839.62884	3752.0875
2842.15613	3733.6875
2844.68186	3738.7875
2847.20604	3739.1875
2849.72867	3758.0875
2852.24974	3754.9875
2854.76927	3754.1875
2857.28724	3745.5875
2859.80367	3745.0875
2862.31855	3748.6875
2864.83189	3753.3875
2867.34368	3740.7875
2869.85393	3750.9875
2872.36264	3741.1875
2874.8698	3742.5875
2877.37543	3728.9875
2879.87952	3746.5875
2882.38207	3760.6875
2884.88308	3735.9875
2887.38256	3753.1875
2889.88051	3751.3875
2892.37692	3751.2875
2894.8718	3754.1875
2897.36515	3762.3875
2899.85698	3740.9875
2902.34727	3755.4875
2904.83604	3756.6875
2907.32328	3762.3875
2909.809	3770.9875
2912.29319	3766.0875
2914.77587	3752.1875
2917.25702	3761.2875
2919.73665	3762.0875
2922.21476	3744.4875
2924.69136	3733.5875
2927.16644	3748.8875
2929.64	3738.8875
2932.11205	3722.9875
2934.58258	3720.3875
2937.05161	3733.7875
2939.51912	3724.4875
2941.98513	3728.3875
2944.44962	3732.4875
2946.91261	3700.8875
2949.37409	3715.8875
2951.83407	3710.3875
2954.29254	3736.4875
2956.74951	3713.2875
2959.20498	3724.9875
2961.65895	3717.2875
2964.11142	3724.9875
2966.56239	3727.9875
2969.01186	3718.1875
2971.45984	3706.5875
2973.90632	3707.1875
2976.35131	3701.7875
2978.7948	3695.0875
2981.23681	3673.5875
2983.67732	3678.4875
2986.11635	3679.0875
2988.55388	3668.8875
2990.98993	3668.0875
2993.4245	3661.3875
2995.85758	3645.9875
2998.28917	3633.0875
3000.71928	3633.7875
3003.14791	3622.6875
3005.57506	3631.5875
3008.00073	3635.1875
3010.42493	3647.3875
3012.84764	3632.6875
3015.26888	3626.4875
3017.68865	3617.2875
3020.10694	3625.9875
3022.52376	3621.6875
3024.9391	3607.3875
3027.35298	3604.9875
3029.76539	3597.8875
3032.17632	3594.1875
3034.5858	3597.2875
3036.9938	3583.1875
3039.40034	3579.2875
3041.80542	3577.4875
3044.20903	3573.4875
3046.61118	3580.5875
3049.01187	3565.3875
3051.4111	3577.1875
3053.80888	3560.7875
3056.20519	3573.4875
3058.60005	3560.9875
3060.99345	3561.9875
3063.3854	3545.0875
3065.7759	3535.7875
3068.16494	3538.1875
3070.55254	3524.7875
3072.93868	3540.4875
3075.32338	3506.5875
3077.70662	3514.1875
3080.08842	3517.3875
3082.46878	3517.3875
3084.84769	3502.9875
3087.22515	3508.5875
3089.60118	3507.3875
3091.97576	3502.0875
3094.3489	3520.7875
3096.72061	3536.0875
3099.09087	3538.1875
3101.4597	3539.4875
3103.82709	3536.3875
3106.19305	3544.0875
3108.55757	3549.4875
3110.92066	3540.6875
3113.28232	3538.7875
3115.64255	3543.2875
3118.00134	3550.2875
3120.35871	3553.8875
3122.71466	3547.4875
3125.06917	3534.1875
3127.42226	3539.8875
3129.77393	3552.4875
3132.12417	3548.3875
3134.47299	3549.4875
3136.82039	3551.6875
3139.16636	3554.4875
3141.51092	3556.5875
3143.85406	3562.6875
3146.19579	3568.0875
3148.53609	3558.6875
3150.87499	3589.1875
3153.21246	3593.9875
3155.54853	3608.5875
3157.88318	3610.7875
3160.21642	3614.3875
3162.54826	3606.8875
3164.87868	3619.0875
3167.2077	3631.0875
3169.5353	3628.8875
3171.86151	3627.6875
3174.18631	3644.7875
3176.5097	3650.1875
3178.83169	3648.5875
3181.15228	3642.1875
3183.47147	3632.2875
3185.78926	3641.8875
3188.10565	3627.8875
3190.42065	3644.3875
3192.73424	3641.8875
3195.04645	3654.7875
3197.35725	3666.7875
3199.66667	3655.4875
3201.97469	3678.2875
3204.28132	3673.1875
3206.58656	3688.3875
3208.8904	3684.0875
3211.19287	3689.0875
3213.49394	3691.7875
3215.79363	3706.4875
3218.09193	3709.6875
3220.38884	3717.8875
3222.68438	3722.7875
3224.97853	3737.5875
3227.2713	3733.6875
3229.56269	3732.3875
3231.8527	3740.4875
3234.14133	3738.5875
3236.42858	3710.8875
3238.71446	3731.5875
3240.99896	3710.2875
3243.28209	3710.0875
3245.56384	3700.2875
3247.84423	3707.6875
3250.12324	3719.1875
3252.40088	3713.5875
3254.67715	3714.9875
3256.95205	3715.8875
3259.22558	3716.5875
3261.49775	3714.2875
3263.76855	3717.5875
3266.03799	3726.5875
3268.30606	3728.8875
3270.57277	3717.2875
3272.83812	3720.5875
3275.10211	3700.1875
3277.36474	3687.1875
3279.62601	3690.6875
3281.88593	3700.1875
3284.14448	3685.1875
3286.40168	3699.2875
3288.65753	3686.0875
3290.91202	3692.0875
3293.16516	3696.3875
3295.41695	3686.4875
3297.66738	3671.2875
3299.91647	3645.0875
3302.16421	3644.1875
3304.4106	3634.6875
3306.65564	3598.2875
3308.89933	3574.9875
3311.14169	3542.9875
3313.38269	3509.9875
3315.62236	3507.1875
3317.86068	3491.0875
3320.09766	3465.6875
3322.3333	3423.1875
3324.5676	3417.0875
3326.80056	3371.3875
3329.03219	3357.7875
3331.26248	1.4875
3333.49143	-0.6125
3335.71905	0.3875
