Data from AgNPs_UA_200uM_CRN_0uM_R6G_10uM_Q_RamanShift__9__14-10-24-145.txt Node

Date: Tue Jul 26 14:10:24 BST 2022
User: TCL
Spectrometer: QEP01345
Trigger mode: 4
Integration Time (sec): 7.000000E0
Scans to average: 10
Electric dark correction enabled: true
Nonlinearity correction enabled: false
Boxcar width: 0
XAxis mode: Raman Shifts
Number of Pixels in Spectrum: 1044
>>>>>Begin Spectral Data<<<<<
46.04893	0.075
50.45542	0.275
54.85868	-1.125
59.25871	0.675
63.6555	45.175
68.04907	48.075
72.43941	50.075
76.82654	50.575
81.21044	56.675
85.59113	59.175
89.96862	62.675
94.34289	62.875
98.71396	65.675
103.08183	65.875
107.4465	71.775
111.80798	68.075
116.16626	70.075
120.52136	68.475
124.87327	66.875
129.222	70.275
133.56755	70.175
137.90993	72.075
142.24913	72.775
146.58517	72.675
150.91804	77.175
155.24774	84.075
159.57429	100.875
163.89768	114.075
168.21792	133.775
172.53501	175.875
176.84895	227.675
181.15975	312.275
185.46741	421.975
189.77193	579.775
194.07331	754.875
198.37157	968.775
202.6667	1185.475
206.9587	1413.475
211.24758	1619.375
215.53334	1831.375
219.81599	2052.875
224.09553	2295.475
228.37195	2571.175
232.64527	2860.275
236.91549	3188.375
241.18261	3512.075
245.44663	3811.775
249.70755	4100.575
253.96539	4341.575
258.22014	4545.575
262.4718	4689.475
266.72039	4776.375
270.96589	4797.475
275.20832	4807.075
279.44768	4777.975
283.68397	4695.575
287.91719	4638.875
292.14735	4579.575
296.37445	4552.275
300.59849	4542.275
304.81948	4535.275
309.03742	4511.875
313.25231	4503.675
317.46415	4466.775
321.67296	4438.775
325.87872	4403.275
330.08145	4415.375
334.28114	4449.775
338.47781	4475.775
342.67145	4528.075
346.86207	4594.775
351.04966	4672.775
355.23424	4743.175
359.4158	4824.175
363.59435	4888.375
367.76989	4946.875
371.94243	5002.175
376.11196	5053.475
380.27849	5106.475
384.44203	5138.975
388.60257	5171.975
392.76012	5224.975
396.91468	5265.475
401.06626	5304.575
405.21485	5366.775
409.36047	5388.375
413.50311	5376.175
417.64277	5352.875
421.77947	5356.275
425.9132	5364.875
430.04396	5387.875
434.17176	5432.175
438.2966	5463.175
442.41849	5513.075
446.53742	5572.875
450.6534	5633.475
454.76644	5660.075
458.87653	5696.675
462.98368	5734.175
467.08789	5750.075
471.18916	5749.175
475.2875	5738.375
479.38291	5734.375
483.4754	5751.075
487.56496	5743.875
491.6516	5789.775
495.73531	5815.775
499.81612	5826.875
503.89401	5844.875
507.96899	5870.975
512.04106	5874.475
516.11023	5857.375
520.1765	5894.075
524.23987	5888.275
528.30034	5895.375
532.35792	5963.275
536.41261	5942.475
540.46441	5915.975
544.51333	5916.875
548.55936	5911.775
552.60252	5947.075
556.64279	5966.075
560.6802	5989.575
564.71473	5997.175
568.7464	6003.175
572.7752	6012.875
576.80114	6020.775
580.82422	6017.475
584.84444	6062.875
588.86181	6104.675
592.87633	6139.875
596.888	6142.875
600.89682	6215.875
604.9028	6366.375
608.90594	6676.375
612.90624	7017.475
616.90371	6864.675
620.89834	6449.175
624.89015	6306.475
628.87913	6366.075
632.86528	6483.075
636.84862	6588.775
640.82913	6598.075
644.80683	6533.175
648.78172	6452.475
652.75379	6387.975
656.72306	6362.975
660.68952	6362.575
664.65319	6345.775
668.61405	6296.575
672.57211	6282.375
676.52738	6293.475
680.47986	6296.775
684.42955	6295.575
688.37646	6292.475
692.32058	6307.875
696.26192	6318.375
700.20048	6342.575
704.13626	6359.675
708.06928	6375.975
711.99952	6373.775
715.927	6386.575
719.85171	6395.875
723.77365	6439.975
727.69284	6444.075
731.60928	6462.675
735.52295	6460.175
739.43388	6441.275
743.34206	6433.575
747.24749	6430.675
751.15017	6436.275
755.05012	6439.675
758.94733	6490.375
762.8418	6586.175
766.73354	6771.375
770.62254	6966.875
774.50882	7060.475
778.39237	6977.275
782.27321	6793.475
786.15132	6630.275
790.02671	6534.775
793.89938	6482.175
797.76935	6463.875
801.6366	6464.375
805.50115	6492.575
809.36299	6521.875
813.22213	6566.075
817.07857	6587.475
820.93231	6546.075
824.78336	6524.875
828.63172	6476.475
832.47738	6490.575
836.32036	6453.975
840.16066	6447.175
843.99827	6450.975
847.8332	6465.275
851.66546	6476.775
855.49504	6493.375
859.32195	6508.375
863.1462	6496.475
866.96777	6508.975
870.78668	6540.775
874.60293	6567.375
878.41652	6594.475
882.22745	6597.775
886.03573	6665.275
889.84136	6687.575
893.64433	6672.275
897.44466	6671.075
901.24235	6608.175
905.0374	6585.075
908.8298	6556.875
912.61957	6524.075
916.40671	6509.175
920.19121	6517.575
923.97308	6508.175
927.75233	6503.275
931.52895	6521.675
935.30295	6500.075
939.07433	6483.075
942.84309	6457.875
946.60924	6455.375
950.37278	6445.175
954.13371	6415.575
957.89203	6420.275
961.64774	6425.475
965.40086	6399.575
969.15137	6414.475
972.89929	6408.575
976.64461	6392.575
980.38733	6399.675
984.12747	6397.575
987.86502	6412.675
991.59999	6429.475
995.33237	6443.175
999.06217	6485.175
1002.78939	6526.375
1006.51404	6555.975
1010.23611	6611.975
1013.95561	6653.475
1017.67255	6640.875
1021.38692	6643.975
1025.09872	6615.675
1028.80796	6588.175
1032.51465	6580.875
1036.21877	6566.375
1039.92035	6562.875
1043.61937	6563.875
1047.31584	6562.975
1051.00976	6555.975
1054.70114	6590.375
1058.38998	6603.575
1062.07627	6594.675
1065.76003	6632.675
1069.44126	6654.175
1073.11995	6713.175
1076.79611	6725.575
1080.46974	6760.475
1084.14085	6778.675
1087.80943	6788.875
1091.47549	6776.075
1095.13903	6786.775
1098.80005	6750.375
1102.45857	6709.975
1106.11456	6720.675
1109.76805	6710.075
1113.41903	6734.075
1117.06751	6768.975
1120.71348	6846.275
1124.35696	6957.175
1127.99793	7072.275
1131.63641	7132.875
1135.2724	7164.375
1138.90589	7118.475
1142.5369	7056.475
1146.16542	6946.075
1149.79145	6860.975
1153.415	6768.675
1157.03607	6689.575
1160.65467	6679.275
1164.27079	6680.475
1167.88443	6741.975
1171.49561	6823.275
1175.10432	6950.175
1178.71056	7139.075
1182.31434	7308.775
1185.91565	7404.275
1189.51451	7473.375
1193.11091	7458.775
1196.70485	7408.775
1200.29634	7349.975
1203.88538	7318.775
1207.47197	7244.275
1211.05612	7144.475
1214.63782	7073.275
1218.21708	6995.575
1221.79391	6944.975
1225.36829	6885.075
1228.94024	6863.275
1232.50976	6853.375
1236.07685	6868.475
1239.6415	6860.575
1243.20374	6878.975
1246.76355	6923.375
1250.32093	6925.975
1253.8759	6948.475
1257.42845	7020.475
1260.97859	7077.375
1264.52631	7119.875
1268.07163	7129.975
1271.61453	7174.375
1275.15503	7187.875
1278.69312	7184.075
1282.22882	7178.375
1285.76211	7166.575
1289.29301	7184.575
1292.82151	7233.375
1296.34761	7294.875
1299.87133	7373.875
1303.39266	7488.975
1306.9116	7650.775
1310.42815	7819.875
1313.94233	7886.675
1317.45412	7871.175
1320.96354	7815.575
1324.47058	7700.675
1327.97525	7556.675
1331.47754	7509.775
1334.97747	7459.275
1338.47502	7496.175
1341.97022	7562.575
1345.46305	7681.075
1348.95352	7805.575
1352.44163	7996.975
1355.92738	8182.775
1359.41078	8394.575
1362.89183	8606.675
1366.37053	8526.275
1369.84688	8151.375
1373.32088	7720.075
1376.79254	7423.175
1380.26186	7228.875
1383.72883	7096.875
1387.19347	6968.975
1390.65578	6875.975
1394.11575	6778.175
1397.57339	6695.475
1401.0287	6653.975
1404.48168	6620.075
1407.93234	6605.975
1411.38068	6611.475
1414.82669	6566.375
1418.27039	6569.975
1421.71177	6540.075
1425.15083	6496.175
1428.58758	6465.075
1432.02203	6447.975
1435.45416	6441.575
1438.88399	6452.575
1442.31151	6434.775
1445.73673	6459.875
1449.15965	6465.575
1452.58027	6450.875
1455.9986	6434.975
1459.41463	6466.575
1462.82837	6492.575
1466.23982	6527.075
1469.64898	6583.275
1473.05586	6659.375
1476.46045	6699.175
1479.86276	6733.475
1483.26279	6764.675
1486.66054	6798.475
1490.05602	6849.475
1493.44922	6926.475
1496.84016	7080.075
1500.22882	7308.175
1503.61521	7592.575
1506.99934	7824.475
1510.38121	7978.875
1513.76081	7974.575
1517.13816	7767.875
1520.51324	7498.575
1523.88607	7277.875
1527.25665	7139.975
1530.62498	7060.675
1533.99105	7013.575
1537.35488	7019.275
1540.71647	7001.875
1544.07581	7000.675
1547.4329	7009.275
1550.78776	6993.775
1554.14038	6994.775
1557.49077	6941.175
1560.83892	6943.575
1564.18484	6980.975
1567.52853	7030.175
1570.86999	7058.875
1574.20922	7074.375
1577.54624	7079.175
1580.88103	7018.375
1584.2136	6909.375
1587.54395	6841.875
1590.87208	6824.175
1594.19801	6884.275
1597.52172	6940.975
1600.84321	7014.875
1604.16251	7007.375
1607.47959	6943.675
1610.79447	6880.375
1614.10715	6780.475
1617.41763	6669.575
1620.7259	6594.575
1624.03199	6502.975
1627.33587	6458.575
1630.63757	6442.375
1633.93707	6480.275
1637.23439	6548.375
1640.52951	6664.875
1643.82246	6835.275
1647.11321	7034.175
1650.40179	7148.975
1653.68819	7109.775
1656.97241	6920.175
1660.25446	6677.775
1663.53433	6512.675
1666.81203	6385.775
1670.08756	6314.475
1673.36092	6287.475
1676.63211	6243.775
1679.90115	6214.275
1683.16801	6184.375
1686.43272	6170.675
1689.69527	6148.975
1692.95567	6126.475
1696.2139	6111.175
1699.46999	6101.175
1702.72392	6084.375
1705.97571	6053.275
1709.22535	6033.275
1712.47284	5993.775
1715.71819	5970.575
1718.96139	5935.275
1722.20246	5903.675
1725.44139	5860.175
1728.67818	5838.475
1731.91284	5808.175
1735.14537	5788.175
1738.37576	5758.775
1741.60403	5767.575
1744.83017	5740.575
1748.05418	5727.175
1751.27607	5705.475
1754.49584	5683.075
1757.71349	5693.075
1760.92903	5695.275
1764.14244	5686.375
1767.35375	5683.275
1770.56294	5672.375
1773.77002	5676.075
1776.97499	5651.675
1780.17785	5655.775
1783.37861	5651.475
1786.57727	5653.575
1789.77382	5653.375
1792.96828	5628.575
1796.16064	5594.075
1799.3509	5604.475
1802.53907	5587.475
1805.72514	5583.275
1808.90913	5577.775
1812.09102	5575.475
1815.27083	5556.675
1818.44856	5549.975
1821.6242	5544.075
1824.79776	5528.975
1827.96924	5539.175
1831.13864	5521.875
1834.30597	5520.475
1837.47122	5516.175
1840.6344	5493.575
1843.7955	5485.975
1846.95454	5484.275
1850.11151	5490.275
1853.26642	5487.775
1856.41926	5490.575
1859.57004	5482.175
1862.71876	5465.775
1865.86542	5450.575
1869.01003	5456.875
1872.15258	5443.575
1875.29308	5452.475
1878.43152	5435.575
1881.56792	5420.275
1884.70227	5430.775
1887.83457	5415.675
1890.96482	5398.975
1894.09304	5395.475
1897.21921	5399.975
1900.34335	5394.975
1903.46544	5392.175
1906.58551	5416.275
1909.70353	5367.875
1912.81953	5370.175
1915.93349	5353.775
1919.04543	5357.875
1922.15534	5328.075
1925.26322	5332.775
1928.36908	5321.375
1931.47292	5330.675
1934.57473	5303.475
1937.67453	5286.275
1940.77232	5274.275
1943.86808	5265.275
1946.96184	5238.675
1950.05358	5223.475
1953.14331	5240.175
1956.23103	5205.075
1959.31675	5210.675
1962.40046	5169.175
1965.48217	5160.975
1968.56188	5152.275
1971.63959	5124.775
1974.7153	5122.975
1977.78901	5113.875
1980.86073	5086.275
1983.93046	5070.675
1986.99819	5075.175
1990.06394	5043.175
1993.1277	5032.975
1996.18947	5027.375
1999.24925	5015.075
2002.30706	4989.375
2005.36288	4978.175
2008.41672	4989.975
2011.46859	4945.175
2014.51848	4953.575
2017.56639	4929.175
2020.61233	4914.275
2023.6563	4907.775
2026.6983	4884.775
2029.73833	4888.875
2032.7764	4874.375
2035.8125	4839.175
2038.84664	4849.875
2041.87881	4854.975
2044.90903	4815.575
2047.93729	4804.475
2050.96359	4818.875
2053.98794	4794.975
2057.01034	4803.375
2060.03078	4794.175
2063.04927	4790.875
2066.06582	4782.575
2069.08042	4793.175
2072.09307	4770.775
2075.10378	4783.175
2078.11255	4776.775
2081.11938	4773.575
2084.12426	4781.075
2087.12722	4786.075
2090.12824	4764.275
2093.12732	4763.375
2096.12447	4753.375
2099.11969	4757.775
2102.11299	4777.775
2105.10435	4762.775
2108.09379	4758.275
2111.08131	4775.675
2114.0669	4758.175
2117.05057	4769.575
2120.03233	4780.375
2123.01216	4792.875
2125.99008	4782.875
2128.96609	4781.575
2131.94018	4777.375
2134.91236	4799.075
2137.88263	4796.075
2140.851	4789.275
2143.81746	4809.375
2146.78201	4794.075
2149.74466	4814.775
2152.7054	4802.175
2155.66425	4781.975
2158.6212	4803.775
2161.57625	4784.575
2164.52941	4797.975
2167.48067	4801.875
2170.43004	4789.275
2173.37752	4779.975
2176.32311	4788.775
2179.26681	4773.175
2182.20863	4766.475
2185.14856	4794.575
2188.08661	4784.675
2191.02278	4782.475
2193.95707	4771.975
2196.88948	4769.675
2199.82001	4773.675
2202.74867	4747.675
2205.67545	4760.675
2208.60037	4749.475
2211.52341	4734.775
2214.44458	4733.875
2217.36388	4698.275
2220.28132	4707.575
2223.1969	4691.875
2226.11061	4675.275
2229.02246	4690.375
2231.93245	4666.975
2234.84058	4673.275
2237.74686	4644.575
2240.65128	4657.075
2243.55385	4647.675
2246.45456	4637.375
2249.35343	4641.575
2252.25044	4616.375
2255.14561	4608.575
2258.03893	4620.275
2260.93041	4602.475
2263.82004	4604.475
2266.70783	4590.775
2269.59378	4580.175
2272.4779	4573.475
2275.36017	4555.275
2278.24061	4552.775
2281.11922	4542.275
2283.996	4541.575
2286.87094	4527.775
2289.74405	4482.875
2292.61534	4502.575
2295.4848	4486.675
2298.35243	4502.875
2301.21824	4493.475
2304.08223	4493.275
2306.94439	4482.775
2309.80474	4476.075
2312.66327	4489.575
2315.51999	4450.575
2318.37489	4459.475
2321.22797	4450.175
2324.07925	4447.975
2326.92871	4425.375
2329.77637	4434.175
2332.62222	4432.475
2335.46626	4407.075
2338.3085	4397.875
2341.14893	4387.075
2343.98756	4388.875
2346.8244	4375.775
2349.65943	4374.275
2352.49267	4364.375
2355.32411	4378.575
2358.15376	4364.775
2360.98161	4377.375
2363.80768	4354.675
2366.63195	4361.175
2369.45444	4361.175
2372.27514	4332.775
2375.09405	4337.175
2377.91118	4340.575
2380.72652	4333.575
2383.54009	4320.275
2386.35187	4322.775
2389.16188	4299.575
2391.97011	4294.675
2394.77657	4298.575
2397.58125	4283.975
2400.38416	4276.175
2403.18529	4271.875
2405.98466	4264.375
2408.78226	4245.975
2411.57809	4251.575
2414.37216	4245.075
2417.16446	4239.875
2419.955	4239.375
2422.74378	4240.275
2425.5308	4217.975
2428.31606	4203.375
2431.09956	4203.375
2433.88131	4209.375
2436.6613	4200.375
2439.43954	4200.875
2442.21603	4192.675
2444.99077	4198.575
2447.76377	4175.175
2450.53501	4178.475
2453.30451	4178.675
2456.07226	4162.475
2458.83827	4155.575
2461.60254	4152.875
2464.36507	4142.475
2467.12586	4143.275
2469.88492	4143.875
2472.64224	4141.475
2475.39782	4130.475
2478.15167	4144.275
2480.90379	4136.075
2483.65417	4129.975
2486.40283	4123.175
2489.14976	4129.575
2491.89497	4131.775
2494.63845	4118.375
2497.3802	4116.375
2500.12024	4097.975
2502.85855	4107.575
2505.59514	4080.775
2508.33002	4092.175
2511.06318	4083.675
2513.79462	4068.375
2516.52435	4080.375
2519.25237	4055.975
2521.97867	4068.375
2524.70327	4062.975
2527.42616	4053.675
2530.14734	4044.475
2532.86681	4032.675
2535.58458	4035.175
2538.30065	4014.675
2541.01501	4023.975
2543.72768	4013.775
2546.43864	4008.075
2549.14791	3985.575
2551.85548	3982.775
2554.56136	3983.375
2557.26554	3961.175
2559.96803	3961.175
2562.66883	3953.175
2565.36794	3944.875
2568.06536	3943.375
2570.7611	3932.175
2573.45514	3920.875
2576.14751	3911.975
2578.83819	3912.675
2581.52719	3894.575
2584.21451	3903.575
2586.90015	3885.475
2589.58411	3894.075
2592.2664	3877.975
2594.94701	3854.875
2597.62594	3856.075
2600.30321	3842.575
2602.9788	3847.675
2605.65273	3834.875
2608.32498	3824.075
2610.99557	3831.075
2613.66449	3823.775
2616.33175	3818.975
2618.99734	3805.375
2621.66128	3801.275
2624.32355	3808.875
2626.98416	3798.275
2629.64311	3785.575
2632.30041	3784.775
2634.95605	3778.475
2637.61004	3766.875
2640.26238	3759.775
2642.91306	3782.675
2645.56209	3740.075
2648.20948	3745.075
2650.85521	3753.275
2653.4993	3760.475
2656.14175	3726.075
2658.78255	3741.075
2661.42171	3749.475
2664.05923	3752.575
2666.6951	3747.275
2669.32934	3743.175
2671.96194	3749.075
2674.59291	3738.875
2677.22224	3728.875
2679.84993	3742.175
2682.476	3731.175
2685.10043	3719.675
2687.72324	3730.775
2690.34441	3728.775
2692.96396	3708.075
2695.58188	3719.975
2698.19818	3722.475
2700.81285	3714.475
2703.4259	3703.275
2706.03733	3726.875
2708.64714	3713.575
2711.25533	3719.975
2713.86191	3716.675
2716.46687	3727.575
2719.07021	3723.775
2721.67194	3714.675
2724.27206	3708.275
2726.87057	3705.675
2729.46747	3709.875
2732.06276	3725.575
2734.65644	3711.075
2737.24852	3707.875
2739.83899	3706.675
2742.42786	3713.975
2745.01513	3695.775
2747.60079	3683.375
2750.18486	3677.875
2752.76733	3671.775
2755.3482	3658.275
2757.92747	3658.175
2760.50515	3658.475
2763.08123	3652.875
2765.65573	3619.075
2768.22863	3640.175
2770.79994	3629.975
2773.36967	3631.675
2775.9378	3626.175
2778.50435	3601.575
2781.06932	3615.175
2783.6327	3625.475
2786.1945	3600.075
2788.75471	3594.875
2791.31335	3590.175
2793.87041	3595.175
2796.42589	3585.775
2798.97979	3569.775
2801.53212	3557.675
2804.08288	3560.175
2806.63206	3542.775
2809.17967	3536.475
2811.72571	3525.075
2814.27018	3527.775
2816.81308	3508.075
2819.35442	3518.675
2821.89419	3504.175
2824.43239	3501.375
2826.96904	3485.775
2829.50412	3481.275
2832.03763	3470.075
2834.56959	3486.575
2837.1	3483.075
2839.62884	3454.075
2842.15613	3455.875
2844.68186	3460.075
2847.20604	3455.375
2849.72867	3451.775
2852.24974	3445.975
2854.76927	3454.175
2857.28724	3432.975
2859.80367	3444.175
2862.31855	3443.575
2864.83189	3433.075
2867.34368	3414.875
2869.85393	3416.975
2872.36264	3408.775
2874.8698	3406.175
2877.37543	3406.875
2879.87952	3417.875
2882.38207	3404.775
2884.88308	3395.375
2887.38256	3406.875
2889.88051	3403.775
2892.37692	3394.875
2894.8718	3392.375
2897.36515	3407.175
2899.85698	3404.875
2902.34727	3406.975
2904.83604	3405.675
2907.32328	3413.675
2909.809	3408.375
2912.29319	3411.575
2914.77587	3410.075
2917.25702	3406.575
2919.73665	3404.875
2922.21476	3422.075
2924.69136	3396.575
2927.16644	3396.175
2929.64	3388.875
2932.11205	3403.675
2934.58258	3399.075
2937.05161	3386.375
2939.51912	3397.075
2941.98513	3385.075
2944.44962	3385.375
2946.91261	3361.275
2949.37409	3383.575
2951.83407	3378.675
2954.29254	3395.575
2956.74951	3371.975
2959.20498	3368.775
2961.65895	3380.175
2964.11142	3382.475
2966.56239	3377.475
2969.01186	3374.375
2971.45984	3370.875
2973.90632	3380.875
2976.35131	3370.475
2978.7948	3360.175
2981.23681	3358.275
2983.67732	3357.975
2986.11635	3361.275
2988.55388	3336.575
2990.98993	3346.175
2993.4245	3341.275
2995.85758	3333.975
2998.28917	3316.375
3000.71928	3309.775
3003.14791	3312.975
3005.57506	3309.275
3008.00073	3299.175
3010.42493	3301.275
3012.84764	3305.075
3015.26888	3302.275
3017.68865	3286.475
3020.10694	3293.275
3022.52376	3286.575
3024.9391	3289.975
3027.35298	3272.875
3029.76539	3278.075
3032.17632	3272.775
3034.5858	3271.075
3036.9938	3269.775
3039.40034	3260.975
3041.80542	3267.775
3044.20903	3281.075
3046.61118	3280.475
3049.01187	3262.475
3051.4111	3257.375
3053.80888	3252.075
3056.20519	3269.275
3058.60005	3240.275
3060.99345	3234.675
3063.3854	3252.175
3065.7759	3223.875
3068.16494	3228.475
3070.55254	3215.975
3072.93868	3224.575
3075.32338	3235.575
3077.70662	3231.075
3080.08842	3219.575
3082.46878	3217.475
3084.84769	3207.375
3087.22515	3225.875
3089.60118	3236.275
3091.97576	3222.675
3094.3489	3243.975
3096.72061	3231.275
3099.09087	3254.875
3101.4597	3242.375
3103.82709	3259.775
3106.19305	3254.775
3108.55757	3253.275
3110.92066	3253.575
3113.28232	3244.475
3115.64255	3249.375
3118.00134	3247.675
3120.35871	3260.075
3122.71466	3252.175
3125.06917	3247.475
3127.42226	3231.475
3129.77393	3251.175
3132.12417	3249.575
3134.47299	3250.875
3136.82039	3240.575
3139.16636	3278.675
3141.51092	3264.975
3143.85406	3262.675
3146.19579	3283.875
3148.53609	3284.375
3150.87499	3289.475
3153.21246	3296.575
3155.54853	3316.375
3157.88318	3302.475
3160.21642	3316.875
3162.54826	3322.275
3164.87868	3315.775
3167.2077	3336.975
3169.5353	3336.375
3171.86151	3333.975
3174.18631	3358.975
3176.5097	3346.475
3178.83169	3350.075
3181.15228	3352.275
3183.47147	3348.475
3185.78926	3337.675
3188.10565	3326.075
3190.42065	3339.375
3192.73424	3335.075
3195.04645	3343.775
3197.35725	3349.875
3199.66667	3338.975
3201.97469	3348.175
3204.28132	3360.575
3206.58656	3362.775
3208.8904	3374.375
3211.19287	3391.575
3213.49394	3379.675
3215.79363	3382.075
3218.09193	3386.775
3220.38884	3382.075
3222.68438	3379.675
3224.97853	3379.675
3227.2713	3389.675
3229.56269	3384.175
3231.8527	3383.675
3234.14133	3391.175
3236.42858	3366.275
3238.71446	3374.975
3240.99896	3344.675
3243.28209	3345.975
3245.56384	3346.075
3247.84423	3340.975
3250.12324	3350.175
3252.40088	3347.875
3254.67715	3351.275
3256.95205	3346.675
3259.22558	3356.775
3261.49775	3354.775
3263.76855	3336.175
3266.03799	3349.475
3268.30606	3337.875
3270.57277	3329.975
3272.83812	3329.275
3275.10211	3322.775
3277.36474	3312.375
3279.62601	3302.175
3281.88593	3307.075
3284.14448	3301.675
3286.40168	3309.175
3288.65753	3304.075
3290.91202	3299.075
3293.16516	3299.975
3295.41695	3278.575
3297.66738	3265.375
3299.91647	3261.975
3302.16421	3240.575
3304.4106	3223.675
3306.65564	3207.375
3308.89933	3192.175
3311.14169	3153.575
3313.38269	3141.975
3315.62236	3132.275
3317.86068	3090.175
3320.09766	3087.775
3322.3333	3057.975
3324.5676	3047.475
3326.80056	3001.975
3329.03219	2977.175
3331.26248	-1.125
3333.49143	1.375
3335.71905	0.975
