Data from AgNPs_UA_200uM_CRN_0uM_R6G_10uM_Q_RamanShift__14__14-16-14-152.txt Node

Date: Tue Jul 26 14:16:14 BST 2022
User: TCL
Spectrometer: QEP01345
Trigger mode: 4
Integration Time (sec): 7.000000E0
Scans to average: 10
Electric dark correction enabled: true
Nonlinearity correction enabled: false
Boxcar width: 0
XAxis mode: Raman Shifts
Number of Pixels in Spectrum: 1044
>>>>>Begin Spectral Data<<<<<
46.04893	-0.8625
50.45542	0.1375
54.85868	-0.8625
59.25871	-1.3625
63.6555	57.3375
68.04907	63.1375
72.43941	67.2375
76.82654	64.4375
81.21044	71.8375
85.59113	73.2375
89.96862	75.3375
94.34289	78.5375
98.71396	78.3375
103.08183	83.9375
107.4465	86.0375
111.80798	84.0375
116.16626	87.8375
120.52136	87.1375
124.87327	91.6375
129.222	88.1375
133.56755	94.0375
137.90993	97.7375
142.24913	104.4375
146.58517	109.3375
150.91804	122.6375
155.24774	138.8375
159.57429	165.7375
163.89768	200.6375
168.21792	252.7375
172.53501	338.9375
176.84895	452.8375
181.15975	635.8375
185.46741	883.7375
189.77193	1224.2375
194.07331	1614.8375
198.37157	2081.6375
202.6667	2554.8375
206.9587	3031.1375
211.24758	3503.5375
215.53334	3962.8375
219.81599	4427.7375
224.09553	4949.7375
228.37195	5534.3375
232.64527	6155.6375
236.91549	6846.6375
241.18261	7570.2375
245.44663	8282.1375
249.70755	8960.2375
253.96539	9573.9375
258.22014	10066.0375
262.4718	10413.3375
266.72039	10632.8375
270.96589	10712.3375
275.20832	10691.4375
279.44768	10590.4375
283.68397	10435.4375
287.91719	10252.3375
292.14735	10113.1375
296.37445	10023.2375
300.59849	9901.4375
304.81948	9842.4375
309.03742	9784.5375
313.25231	9772.8375
317.46415	9707.0375
321.67296	9722.9375
325.87872	9761.7375
330.08145	9811.7375
334.28114	9936.0375
338.47781	10048.2375
342.67145	10145.9375
346.86207	10303.5375
351.04966	10460.2375
355.23424	10590.0375
359.4158	10731.9375
363.59435	10891.8375
367.76989	11043.1375
371.94243	11176.8375
376.11196	11287.1375
380.27849	11433.0375
384.44203	11542.9375
388.60257	11637.8375
392.76012	11765.8375
396.91468	11898.2375
401.06626	12013.6375
405.21485	12132.1375
409.36047	12227.1375
413.50311	12225.8375
417.64277	12276.9375
421.77947	12283.0375
425.9132	12329.8375
430.04396	12405.9375
434.17176	12527.1375
438.2966	12622.0375
442.41849	12712.0375
446.53742	12825.7375
450.6534	12943.7375
454.76644	13077.7375
458.87653	13189.7375
462.98368	13294.0375
467.08789	13327.8375
471.18916	13362.2375
475.2875	13340.6375
479.38291	13376.1375
483.4754	13410.8375
487.56496	13435.8375
491.6516	13475.9375
495.73531	13503.8375
499.81612	13550.8375
503.89401	13605.7375
507.96899	13675.0375
512.04106	13720.6375
516.11023	13761.0375
520.1765	13758.5375
524.23987	13774.2375
528.30034	13817.1375
532.35792	13877.6375
536.41261	13887.7375
540.46441	13894.7375
544.51333	13938.0375
548.55936	13969.4375
552.60252	14059.3375
556.64279	14158.0375
560.6802	14260.6375
564.71473	14277.2375
568.7464	14293.2375
572.7752	14284.9375
576.80114	14297.5375
580.82422	14307.4375
584.84444	14356.6375
588.86181	14435.4375
592.87633	14531.5375
596.888	14599.7375
600.89682	14739.9375
604.9028	14973.0375
608.90594	15416.4375
612.90624	15820.4375
616.90371	15604.0375
620.89834	15136.0375
624.89015	14937.7375
628.87913	14980.2375
632.86528	15082.3375
636.84862	15167.1375
640.82913	15173.2375
644.80683	15152.7375
648.78172	15171.0375
652.75379	15200.3375
656.72306	15258.8375
660.68952	15404.9375
664.65319	15472.8375
668.61405	15540.6375
672.57211	15645.8375
676.52738	15681.4375
680.47986	15717.1375
684.42955	15686.0375
688.37646	15699.7375
692.32058	15823.7375
696.26192	15899.5375
700.20048	16012.2375
704.13626	16062.5375
708.06928	16027.8375
711.99952	16011.5375
715.927	15992.9375
719.85171	16018.7375
723.77365	16015.1375
727.69284	16002.2375
731.60928	16033.9375
735.52295	16062.4375
739.43388	16094.1375
743.34206	16132.2375
747.24749	16133.3375
751.15017	16231.5375
755.05012	16242.4375
758.94733	16314.6375
762.8418	16448.8375
766.73354	16610.6375
770.62254	16791.4375
774.50882	16962.5375
778.39237	17043.1375
782.27321	16970.7375
786.15132	16840.5375
790.02671	16710.2375
793.89938	16599.1375
797.76935	16555.2375
801.6366	16551.0375
805.50115	16560.6375
809.36299	16577.3375
813.22213	16589.3375
817.07857	16595.8375
820.93231	16635.9375
824.78336	16626.5375
828.63172	16649.9375
832.47738	16678.7375
836.32036	16712.1375
840.16066	16736.0375
843.99827	16754.8375
847.8332	16788.1375
851.66546	16857.8375
855.49504	16873.0375
859.32195	16916.7375
863.1462	16938.2375
866.96777	16976.1375
870.78668	17031.3375
874.60293	17055.5375
878.41652	17093.6375
882.22745	17162.1375
886.03573	17198.5375
889.84136	17214.3375
893.64433	17221.3375
897.44466	17243.7375
901.24235	17247.8375
905.0374	17257.1375
908.8298	17217.0375
912.61957	17271.7375
916.40671	17257.1375
920.19121	17238.0375
923.97308	17241.4375
927.75233	17230.4375
931.52895	17217.8375
935.30295	17235.2375
939.07433	17232.8375
942.84309	17187.3375
946.60924	17232.8375
950.37278	17238.1375
954.13371	17197.8375
957.89203	17183.4375
961.64774	17229.5375
965.40086	17234.8375
969.15137	17215.3375
972.89929	17172.6375
976.64461	17150.5375
980.38733	17190.2375
984.12747	17217.1375
987.86502	17215.6375
991.59999	17279.7375
995.33237	17283.4375
999.06217	17381.0375
1002.78939	17403.2375
1006.51404	17501.3375
1010.23611	17517.0375
1013.95561	17616.8375
1017.67255	17620.6375
1021.38692	17630.5375
1025.09872	17639.9375
1028.80796	17629.1375
1032.51465	17622.9375
1036.21877	17615.9375
1039.92035	17642.8375
1043.61937	17660.1375
1047.31584	17688.0375
1051.00976	17717.8375
1054.70114	17731.9375
1058.38998	17785.3375
1062.07627	17826.8375
1065.76003	17904.9375
1069.44126	17921.3375
1073.11995	18055.5375
1076.79611	18170.1375
1080.46974	18224.0375
1084.14085	18167.7375
1087.80943	18181.9375
1091.47549	18167.6375
1095.13903	18207.3375
1098.80005	18216.1375
1102.45857	18265.4375
1106.11456	18305.0375
1109.76805	18284.6375
1113.41903	18201.8375
1117.06751	18188.5375
1120.71348	18204.5375
1124.35696	18201.1375
1127.99793	18188.2375
1131.63641	18224.0375
1135.2724	18198.0375
1138.90589	18139.9375
1142.5369	18139.9375
1146.16542	18086.0375
1149.79145	18018.6375
1153.415	17956.0375
1157.03607	17932.9375
1160.65467	17962.1375
1164.27079	17956.0375
1167.88443	18056.3375
1171.49561	18206.0375
1175.10432	18337.7375
1178.71056	18504.2375
1182.31434	18710.2375
1185.91565	18846.1375
1189.51451	18992.4375
1193.11091	19053.0375
1196.70485	19073.1375
1200.29634	19006.5375
1203.88538	18919.2375
1207.47197	18814.4375
1211.05612	18670.3375
1214.63782	18615.3375
1218.21708	18530.0375
1221.79391	18445.9375
1225.36829	18415.7375
1228.94024	18392.6375
1232.50976	18412.9375
1236.07685	18423.6375
1239.6415	18452.0375
1243.20374	18484.1375
1246.76355	18564.5375
1250.32093	18576.0375
1253.8759	18595.7375
1257.42845	18713.0375
1260.97859	18823.6375
1264.52631	18879.5375
1268.07163	18905.9375
1271.61453	18951.0375
1275.15503	18965.5375
1278.69312	18950.9375
1282.22882	18889.6375
1285.76211	18870.9375
1289.29301	18866.2375
1292.82151	18877.4375
1296.34761	18955.9375
1299.87133	19052.6375
1303.39266	19187.8375
1306.9116	19353.5375
1310.42815	19538.4375
1313.94233	19647.8375
1317.45412	19686.6375
1320.96354	19658.3375
1324.47058	19580.4375
1327.97525	19426.3375
1331.47754	19249.8375
1334.97747	19199.0375
1338.47502	19256.4375
1341.97022	19421.4375
1345.46305	19710.6375
1348.95352	19951.2375
1352.44163	20144.2375
1355.92738	20176.2375
1359.41078	20147.2375
1362.89183	20085.4375
1366.37053	19854.5375
1369.84688	19452.1375
1373.32088	19093.5375
1376.79254	18776.7375
1380.26186	18588.0375
1383.72883	18419.4375
1387.19347	18281.1375
1390.65578	18132.2375
1394.11575	18017.3375
1397.57339	17836.5375
1401.0287	17794.9375
1404.48168	17748.8375
1407.93234	17753.1375
1411.38068	17756.1375
1414.82669	17732.0375
1418.27039	17743.3375
1421.71177	17706.5375
1425.15083	17656.7375
1428.58758	17620.2375
1432.02203	17610.8375
1435.45416	17560.5375
1438.88399	17512.7375
1442.31151	17495.3375
1445.73673	17448.0375
1449.15965	17441.4375
1452.58027	17393.8375
1455.9986	17418.9375
1459.41463	17430.3375
1462.82837	17483.5375
1466.23982	17556.2375
1469.64898	17606.6375
1473.05586	17709.6375
1476.46045	17762.7375
1479.86276	17835.3375
1483.26279	17894.3375
1486.66054	17913.2375
1490.05602	17970.7375
1493.44922	18146.9375
1496.84016	18348.1375
1500.22882	18559.1375
1503.61521	18828.3375
1506.99934	18981.7375
1510.38121	19010.8375
1513.76081	18924.2375
1517.13816	18795.5375
1520.51324	18649.5375
1523.88607	18483.9375
1527.25665	18384.0375
1530.62498	18306.5375
1533.99105	18319.8375
1537.35488	18315.7375
1540.71647	18313.9375
1544.07581	18306.0375
1547.4329	18318.8375
1550.78776	18315.5375
1554.14038	18325.4375
1557.49077	18313.5375
1560.83892	18324.9375
1564.18484	18388.8375
1567.52853	18449.8375
1570.86999	18463.3375
1574.20922	18497.0375
1577.54624	18494.4375
1580.88103	18407.4375
1584.2136	18304.0375
1587.54395	18252.4375
1590.87208	18297.0375
1594.19801	18346.4375
1597.52172	18482.7375
1600.84321	18549.2375
1604.16251	18523.9375
1607.47959	18484.2375
1610.79447	18375.0375
1614.10715	18206.6375
1617.41763	17963.6375
1620.7259	17855.2375
1624.03199	17682.4375
1627.33587	17586.5375
1630.63757	17591.4375
1633.93707	17642.6375
1637.23439	17747.0375
1640.52951	17878.7375
1643.82246	18059.4375
1647.11321	18240.9375
1650.40179	18292.9375
1653.68819	18151.0375
1656.97241	17906.4375
1660.25446	17642.3375
1663.53433	17452.4375
1666.81203	17298.0375
1670.08756	17195.2375
1673.36092	17176.1375
1676.63211	17080.7375
1679.90115	17036.9375
1683.16801	16977.5375
1686.43272	16906.5375
1689.69527	16899.8375
1692.95567	16848.0375
1696.2139	16880.6375
1699.46999	16838.9375
1702.72392	16823.0375
1705.97571	16826.7375
1709.22535	16841.4375
1712.47284	16836.7375
1715.71819	16824.7375
1718.96139	16843.7375
1722.20246	16806.8375
1725.44139	16782.2375
1728.67818	16736.8375
1731.91284	16693.2375
1735.14537	16640.9375
1738.37576	16620.2375
1741.60403	16578.0375
1744.83017	16536.0375
1748.05418	16499.3375
1751.27607	16465.1375
1754.49584	16445.5375
1757.71349	16449.2375
1760.92903	16426.0375
1764.14244	16415.6375
1767.35375	16390.7375
1770.56294	16375.3375
1773.77002	16370.8375
1776.97499	16369.1375
1780.17785	16349.6375
1783.37861	16357.4375
1786.57727	16314.9375
1789.77382	16358.0375
1792.96828	16302.1375
1796.16064	16276.8375
1799.3509	16239.0375
1802.53907	16243.5375
1805.72514	16199.5375
1808.90913	16170.5375
1812.09102	16132.6375
1815.27083	16138.5375
1818.44856	16096.6375
1821.6242	16107.9375
1824.79776	16067.8375
1827.96924	16021.0375
1831.13864	15984.0375
1834.30597	16032.7375
1837.47122	15998.0375
1840.6344	15982.1375
1843.7955	15910.9375
1846.95454	15934.4375
1850.11151	15916.4375
1853.26642	15907.1375
1856.41926	15899.0375
1859.57004	15916.6375
1862.71876	15876.5375
1865.86542	15868.9375
1869.01003	15823.0375
1872.15258	15840.1375
1875.29308	15802.9375
1878.43152	15781.9375
1881.56792	15773.0375
1884.70227	15738.2375
1887.83457	15717.1375
1890.96482	15694.6375
1894.09304	15671.7375
1897.21921	15679.7375
1900.34335	15675.1375
1903.46544	15629.7375
1906.58551	15651.1375
1909.70353	15600.9375
1912.81953	15596.1375
1915.93349	15570.0375
1919.04543	15553.7375
1922.15534	15549.7375
1925.26322	15492.4375
1928.36908	15463.9375
1931.47292	15452.5375
1934.57473	15396.9375
1937.67453	15382.0375
1940.77232	15342.8375
1943.86808	15304.5375
1946.96184	15266.1375
1950.05358	15203.7375
1953.14331	15161.8375
1956.23103	15131.4375
1959.31675	15109.8375
1962.40046	15062.6375
1965.48217	15002.2375
1968.56188	14967.9375
1971.63959	14909.0375
1974.7153	14864.9375
1977.78901	14842.5375
1980.86073	14782.7375
1983.93046	14719.2375
1986.99819	14679.7375
1990.06394	14639.4375
1993.1277	14628.1375
1996.18947	14551.4375
1999.24925	14554.5375
2002.30706	14543.6375
2005.36288	14449.9375
2008.41672	14439.2375
2011.46859	14394.0375
2014.51848	14343.5375
2017.56639	14304.9375
2020.61233	14248.7375
2023.6563	14192.4375
2026.6983	14178.9375
2029.73833	14135.9375
2032.7764	14105.2375
2035.8125	14077.1375
2038.84664	14032.1375
2041.87881	14038.8375
2044.90903	13993.2375
2047.93729	13936.8375
2050.96359	13977.1375
2053.98794	13928.4375
2057.01034	13911.3375
2060.03078	13916.2375
2063.04927	13875.5375
2066.06582	13892.9375
2069.08042	13854.9375
2072.09307	13829.7375
2075.10378	13822.5375
2078.11255	13815.2375
2081.11938	13805.0375
2084.12426	13847.3375
2087.12722	13803.1375
2090.12824	13818.1375
2093.12732	13794.9375
2096.12447	13791.0375
2099.11969	13770.0375
2102.11299	13831.4375
2105.10435	13792.7375
2108.09379	13799.7375
2111.08131	13817.5375
2114.0669	13787.5375
2117.05057	13804.4375
2120.03233	13823.5375
2123.01216	13863.7375
2125.99008	13851.3375
2128.96609	13871.8375
2131.94018	13866.5375
2134.91236	13872.0375
2137.88263	13886.1375
2140.851	13879.7375
2143.81746	13897.9375
2146.78201	13900.4375
2149.74466	13885.4375
2152.7054	13901.4375
2155.66425	13911.5375
2158.6212	13901.6375
2161.57625	13873.9375
2164.52941	13845.8375
2167.48067	13853.5375
2170.43004	13850.6375
2173.37752	13869.5375
2176.32311	13853.3375
2179.26681	13843.5375
2182.20863	13854.3375
2185.14856	13885.9375
2188.08661	13834.1375
2191.02278	13836.9375
2193.95707	13823.4375
2196.88948	13794.3375
2199.82001	13813.3375
2202.74867	13753.9375
2205.67545	13738.9375
2208.60037	13737.3375
2211.52341	13742.1375
2214.44458	13667.5375
2217.36388	13637.1375
2220.28132	13616.7375
2223.1969	13558.4375
2226.11061	13555.5375
2229.02246	13542.5375
2231.93245	13491.2375
2234.84058	13500.7375
2237.74686	13471.9375
2240.65128	13455.5375
2243.55385	13436.3375
2246.45456	13414.3375
2249.35343	13380.5375
2252.25044	13366.9375
2255.14561	13363.5375
2258.03893	13334.0375
2260.93041	13283.8375
2263.82004	13312.0375
2266.70783	13256.4375
2269.59378	13227.7375
2272.4779	13195.0375
2275.36017	13161.8375
2278.24061	13136.9375
2281.11922	13103.8375
2283.996	13059.0375
2286.87094	13039.2375
2289.74405	12998.0375
2292.61534	12968.2375
2295.4848	12951.1375
2298.35243	12957.4375
2301.21824	12933.0375
2304.08223	12939.8375
2306.94439	12916.4375
2309.80474	12886.5375
2312.66327	12859.2375
2315.51999	12842.4375
2318.37489	12808.9375
2321.22797	12828.6375
2324.07925	12801.0375
2326.92871	12740.4375
2329.77637	12735.7375
2332.62222	12717.7375
2335.46626	12672.6375
2338.3085	12632.5375
2341.14893	12621.3375
2343.98756	12625.5375
2346.8244	12633.0375
2349.65943	12603.1375
2352.49267	12594.5375
2355.32411	12557.5375
2358.15376	12548.8375
2360.98161	12524.9375
2363.80768	12532.9375
2366.63195	12502.0375
2369.45444	12480.3375
2372.27514	12469.3375
2375.09405	12428.0375
2377.91118	12447.9375
2380.72652	12410.9375
2383.54009	12387.7375
2386.35187	12346.3375
2389.16188	12340.1375
2391.97011	12312.7375
2394.77657	12296.5375
2397.58125	12241.2375
2400.38416	12253.4375
2403.18529	12221.7375
2405.98466	12194.7375
2408.78226	12157.9375
2411.57809	12160.6375
2414.37216	12166.2375
2417.16446	12146.4375
2419.955	12086.4375
2422.74378	12090.2375
2425.5308	12042.6375
2428.31606	12037.1375
2431.09956	12045.2375
2433.88131	12009.3375
2436.6613	12036.3375
2439.43954	11965.8375
2442.21603	11963.3375
2444.99077	11969.0375
2447.76377	11929.5375
2450.53501	11897.0375
2453.30451	11921.9375
2456.07226	11874.0375
2458.83827	11848.4375
2461.60254	11821.7375
2464.36507	11820.3375
2467.12586	11806.4375
2469.88492	11799.5375
2472.64224	11799.1375
2475.39782	11783.6375
2478.15167	11759.4375
2480.90379	11742.2375
2483.65417	11734.1375
2486.40283	11697.3375
2489.14976	11716.1375
2491.89497	11679.1375
2494.63845	11686.3375
2497.3802	11644.3375
2500.12024	11614.0375
2502.85855	11627.0375
2505.59514	11605.5375
2508.33002	11602.4375
2511.06318	11581.4375
2513.79462	11584.0375
2516.52435	11529.1375
2519.25237	11525.7375
2521.97867	11497.7375
2524.70327	11460.8375
2527.42616	11449.1375
2530.14734	11443.2375
2532.86681	11426.4375
2535.58458	11451.3375
2538.30065	11392.3375
2541.01501	11397.7375
2543.72768	11314.7375
2546.43864	11328.2375
2549.14791	11296.3375
2551.85548	11254.1375
2554.56136	11248.3375
2557.26554	11210.8375
2559.96803	11191.6375
2562.66883	11155.9375
2565.36794	11115.6375
2568.06536	11120.6375
2570.7611	11103.5375
2573.45514	11059.4375
2576.14751	11036.6375
2578.83819	11020.9375
2581.52719	10996.1375
2584.21451	10955.7375
2586.90015	10963.7375
2589.58411	10939.2375
2592.2664	10929.3375
2594.94701	10908.3375
2597.62594	10882.6375
2600.30321	10826.9375
2602.9788	10821.5375
2605.65273	10790.9375
2608.32498	10780.3375
2610.99557	10762.7375
2613.66449	10752.4375
2616.33175	10711.8375
2618.99734	10715.5375
2621.66128	10685.5375
2624.32355	10647.2375
2626.98416	10656.4375
2629.64311	10600.3375
2632.30041	10614.2375
2634.95605	10561.6375
2637.61004	10505.1375
2640.26238	10517.0375
2642.91306	10516.2375
2645.56209	10487.6375
2648.20948	10504.4375
2650.85521	10473.4375
2653.4993	10459.8375
2656.14175	10434.9375
2658.78255	10461.5375
2661.42171	10450.6375
2664.05923	10464.2375
2666.6951	10444.5375
2669.32934	10446.2375
2671.96194	10424.0375
2674.59291	10434.1375
2677.22224	10428.7375
2679.84993	10401.4375
2682.476	10390.0375
2685.10043	10387.5375
2687.72324	10365.3375
2690.34441	10336.0375
2692.96396	10341.1375
2695.58188	10367.6375
2698.19818	10345.8375
2700.81285	10326.4375
2703.4259	10291.3375
2706.03733	10330.0375
2708.64714	10290.4375
2711.25533	10324.6375
2713.86191	10307.6375
2716.46687	10297.0375
2719.07021	10293.6375
2721.67194	10266.1375
2724.27206	10261.7375
2726.87057	10277.9375
2729.46747	10262.5375
2732.06276	10289.1375
2734.65644	10292.5375
2737.24852	10285.9375
2739.83899	10234.4375
2742.42786	10240.1375
2745.01513	10226.3375
2747.60079	10215.2375
2750.18486	10151.3375
2752.76733	10142.7375
2755.3482	10095.1375
2757.92747	10102.8375
2760.50515	10098.2375
2763.08123	10053.5375
2765.65573	10049.1375
2768.22863	10029.0375
2770.79994	10006.5375
2773.36967	9993.1375
2775.9378	10001.5375
2778.50435	9964.8375
2781.06932	9932.7375
2783.6327	9926.3375
2786.1945	9902.5375
2788.75471	9888.6375
2791.31335	9877.0375
2793.87041	9854.2375
2796.42589	9822.3375
2798.97979	9795.0375
2801.53212	9777.6375
2804.08288	9754.9375
2806.63206	9741.0375
2809.17967	9667.9375
2811.72571	9683.9375
2814.27018	9617.3375
2816.81308	9624.1375
2819.35442	9609.9375
2821.89419	9566.8375
2824.43239	9552.3375
2826.96904	9506.3375
2829.50412	9489.8375
2832.03763	9468.1375
2834.56959	9518.5375
2837.1	9471.8375
2839.62884	9464.1375
2842.15613	9423.4375
2844.68186	9415.6375
2847.20604	9397.4375
2849.72867	9405.9375
2852.24974	9391.7375
2854.76927	9338.6375
2857.28724	9326.0375
2859.80367	9339.4375
2862.31855	9310.2375
2864.83189	9310.4375
2867.34368	9250.4375
2869.85393	9250.9375
2872.36264	9209.8375
2874.8698	9205.3375
2877.37543	9199.9375
2879.87952	9198.4375
2882.38207	9191.7375
2884.88308	9175.7375
2887.38256	9193.2375
2889.88051	9177.4375
2892.37692	9154.7375
2894.8718	9151.9375
2897.36515	9151.4375
2899.85698	9156.9375
2902.34727	9166.2375
2904.83604	9145.0375
2907.32328	9175.8375
2909.809	9144.0375
2912.29319	9154.0375
2914.77587	9148.8375
2917.25702	9128.8375
2919.73665	9113.9375
2922.21476	9102.4375
2924.69136	9098.1375
2927.16644	9084.3375
2929.64	9099.4375
2932.11205	9080.7375
2934.58258	9060.7375
2937.05161	9070.5375
2939.51912	9077.0375
2941.98513	9025.3375
2944.44962	9020.1375
2946.91261	9000.2375
2949.37409	9013.2375
2951.83407	9009.8375
2954.29254	9011.2375
2956.74951	8996.9375
2959.20498	8992.9375
2961.65895	9006.9375
2964.11142	9001.6375
2966.56239	8991.6375
2969.01186	8991.5375
2971.45984	8982.9375
2973.90632	8985.0375
2976.35131	8943.3375
2978.7948	8953.2375
2981.23681	8935.6375
2983.67732	8898.8375
2986.11635	8891.3375
2988.55388	8863.9375
2990.98993	8857.9375
2993.4245	8844.3375
2995.85758	8820.4375
2998.28917	8792.5375
3000.71928	8785.9375
3003.14791	8752.5375
3005.57506	8733.3375
3008.00073	8728.4375
3010.42493	8724.6375
3012.84764	8703.6375
3015.26888	8685.2375
3017.68865	8658.7375
3020.10694	8664.4375
3022.52376	8659.7375
3024.9391	8620.6375
3027.35298	8627.1375
3029.76539	8609.9375
3032.17632	8597.4375
3034.5858	8573.2375
3036.9938	8557.2375
3039.40034	8532.8375
3041.80542	8557.2375
3044.20903	8530.0375
3046.61118	8544.5375
3049.01187	8509.8375
3051.4111	8481.7375
3053.80888	8473.9375
3056.20519	8459.3375
3058.60005	8398.8375
3060.99345	8434.9375
3063.3854	8403.6375
3065.7759	8387.3375
3068.16494	8358.7375
3070.55254	8311.0375
3072.93868	8332.1375
3075.32338	8301.3375
3077.70662	8269.2375
3080.08842	8285.7375
3082.46878	8274.5375
3084.84769	8259.4375
3087.22515	8233.8375
3089.60118	8260.2375
3091.97576	8249.8375
3094.3489	8249.1375
3096.72061	8283.8375
3099.09087	8275.9375
3101.4597	8253.3375
3103.82709	8246.6375
3106.19305	8243.7375
3108.55757	8239.7375
3110.92066	8233.7375
3113.28232	8223.6375
3115.64255	8204.6375
3118.00134	8201.9375
3120.35871	8197.3375
3122.71466	8170.7375
3125.06917	8149.9375
3127.42226	8124.3375
3129.77393	8132.8375
3132.12417	8091.1375
3134.47299	8092.2375
3136.82039	8083.1375
3139.16636	8057.0375
3141.51092	8072.5375
3143.85406	8070.4375
3146.19579	8071.3375
3148.53609	8082.5375
3150.87499	8109.2375
3153.21246	8113.7375
3155.54853	8099.3375
3157.88318	8110.9375
3160.21642	8119.2375
3162.54826	8091.4375
3164.87868	8084.1375
3167.2077	8100.7375
3169.5353	8086.8375
3171.86151	8118.4375
3174.18631	8095.8375
3176.5097	8098.8375
3178.83169	8085.3375
3181.15228	8059.1375
3183.47147	8033.0375
3185.78926	8022.5375
3188.10565	8004.3375
3190.42065	8002.4375
3192.73424	8008.7375
3195.04645	8001.0375
3197.35725	8003.0375
3199.66667	7966.3375
3201.97469	7988.8375
3204.28132	7966.3375
3206.58656	8003.9375
3208.8904	7999.4375
3211.19287	8006.5375
3213.49394	8009.7375
3215.79363	7989.4375
3218.09193	7999.7375
3220.38884	7990.1375
3222.68438	7995.8375
3224.97853	7995.2375
3227.2713	7990.9375
3229.56269	7974.0375
3231.8527	7963.9375
3234.14133	7951.7375
3236.42858	7903.9375
3238.71446	7913.9375
3240.99896	7871.2375
3243.28209	7869.4375
3245.56384	7841.1375
3247.84423	7845.5375
3250.12324	7823.4375
3252.40088	7814.8375
3254.67715	7819.2375
3256.95205	7828.2375
3259.22558	7823.7375
3261.49775	7817.8375
3263.76855	7807.5375
3266.03799	7800.3375
3268.30606	7801.2375
3270.57277	7778.9375
3272.83812	7744.4375
3275.10211	7722.3375
3277.36474	7691.8375
3279.62601	7690.2375
3281.88593	7665.0375
3284.14448	7680.8375
3286.40168	7671.9375
3288.65753	7671.7375
3290.91202	7666.5375
3293.16516	7633.1375
3295.41695	7620.8375
3297.66738	7565.4375
3299.91647	7540.7375
3302.16421	7493.7375
3304.4106	7455.8375
3306.65564	7408.9375
3308.89933	7358.5375
3311.14169	7286.5375
3313.38269	7237.9375
3315.62236	7205.4375
3317.86068	7164.9375
3320.09766	7121.2375
3322.3333	7032.2375
3324.5676	7016.7375
3326.80056	6903.9375
3329.03219	6862.7375
3331.26248	2.0375
3333.49143	0.4375
3335.71905	-0.1625
