Data from AgNPs_UA_50uM_CRN_0uM_R6G_10uM_Q_RamanShift__7__12-19-21-760.txt Node

Date: Tue Jul 26 12:19:21 BST 2022
User: TCL
Spectrometer: QEP01345
Trigger mode: 4
Integration Time (sec): 7.000000E0
Scans to average: 10
Electric dark correction enabled: true
Nonlinearity correction enabled: false
Boxcar width: 0
XAxis mode: Raman Shifts
Number of Pixels in Spectrum: 1044
>>>>>Begin Spectral Data<<<<<
46.04893	-0.575
50.45542	-0.475
54.85868	0.725
59.25871	-1.575
63.6555	116.125
68.04907	122.425
72.43941	129.425
76.82654	140.425
81.21044	145.625
85.59113	145.225
89.96862	147.325
94.34289	153.625
98.71396	160.125
103.08183	165.625
107.4465	167.425
111.80798	177.425
116.16626	179.125
120.52136	186.725
124.87327	190.625
129.222	201.525
133.56755	222.225
137.90993	235.225
142.24913	257.325
146.58517	284.725
150.91804	329.525
155.24774	389.825
159.57429	482.425
163.89768	615.825
168.21792	814.825
172.53501	1116.725
176.84895	1551.025
181.15975	2175.325
185.46741	3046.725
189.77193	4208.025
194.07331	5639.225
198.37157	7260.125
202.6667	8967.525
206.9587	10684.625
211.24758	12377.425
215.53334	14114.825
219.81599	15946.025
224.09553	17982.025
228.37195	20271.125
232.64527	22732.425
236.91549	25268.625
241.18261	27632.525
245.44663	29646.625
249.70755	31375.025
253.96539	32877.525
258.22014	34053.525
262.4718	35104.725
266.72039	35846.925
270.96589	36192.225
275.20832	36095.925
279.44768	35693.825
283.68397	35246.525
287.91719	34904.525
292.14735	34814.825
296.37445	35074.925
300.59849	35706.525
304.81948	36467.325
309.03742	37173.825
313.25231	37298.825
317.46415	36699.125
321.67296	35531.225
325.87872	34401.825
330.08145	33772.625
334.28114	33764.725
338.47781	34079.225
342.67145	34641.725
346.86207	35561.125
351.04966	36665.125
355.23424	37770.625
359.4158	38682.025
363.59435	39269.725
367.76989	39598.025
371.94243	39677.125
376.11196	39678.525
380.27849	39721.625
384.44203	39886.625
388.60257	40088.125
392.76012	40372.125
396.91468	40823.225
401.06626	41518.825
405.21485	41907.225
409.36047	41553.725
413.50311	40484.125
417.64277	39487.225
421.77947	38900.525
425.9132	38600.825
430.04396	38527.325
434.17176	38741.425
438.2966	39116.825
442.41849	39829.425
446.53742	40812.125
450.6534	41867.525
454.76644	42592.125
458.87653	42785.725
462.98368	42715.925
467.08789	42343.225
471.18916	41596.025
475.2875	40732.925
479.38291	39819.925
483.4754	39212.225
487.56496	38796.425
491.6516	38548.425
495.73531	38442.925
499.81612	38615.425
503.89401	38963.825
507.96899	39246.325
512.04106	39279.825
516.11023	39366.125
520.1765	39402.425
524.23987	39411.025
528.30034	39282.925
532.35792	39129.125
536.41261	38799.525
540.46441	38268.025
544.51333	38073.925
548.55936	38348.925
552.60252	39030.225
556.64279	39862.525
560.6802	40543.225
564.71473	40975.725
568.7464	41410.725
572.7752	41798.025
576.80114	41716.525
580.82422	41921.725
584.84444	42496.225
588.86181	43262.425
592.87633	43926.525
596.888	44351.425
600.89682	44929.125
604.9028	47690.825
608.90594	55171.525
612.90624	63050.925
616.90371	59238.625
620.89834	46871.925
624.89015	41094.025
628.87913	40356.625
632.86528	41000.825
636.84862	41555.325
640.82913	40812.425
644.80683	39261.425
648.78172	38266.225
652.75379	38186.825
656.72306	39109.925
660.68952	40194.125
664.65319	40073.425
668.61405	39380.225
672.57211	39529.025
676.52738	39745.325
680.47986	39214.325
684.42955	38436.125
688.37646	38168.925
692.32058	38515.425
696.26192	39227.625
700.20048	39997.225
704.13626	40270.425
708.06928	39848.625
711.99952	39430.025
715.927	39258.625
719.85171	39497.925
723.77365	39418.025
727.69284	38923.425
731.60928	38486.325
735.52295	38392.425
739.43388	38469.125
743.34206	38658.025
747.24749	38728.425
751.15017	38906.325
755.05012	39396.125
758.94733	40766.225
762.8418	43796.025
766.73354	48495.825
770.62254	52823.925
774.50882	54300.425
778.39237	52491.125
782.27321	48772.325
786.15132	44625.825
790.02671	41655.525
793.89938	39956.725
797.76935	39180.825
801.6366	38702.825
805.50115	38442.025
809.36299	38213.525
813.22213	37972.525
817.07857	37800.125
820.93231	37797.025
824.78336	37814.625
828.63172	37792.225
832.47738	37783.725
836.32036	37727.125
840.16066	37537.325
843.99827	37504.525
847.8332	37513.225
851.66546	37578.825
855.49504	37643.525
859.32195	37730.725
863.1462	37747.625
866.96777	37643.925
870.78668	37631.825
874.60293	37745.625
878.41652	37925.725
882.22745	38156.725
886.03573	38299.125
889.84136	38351.625
893.64433	38131.025
897.44466	37969.525
901.24235	37812.525
905.0374	37656.725
908.8298	37532.925
912.61957	37471.025
916.40671	37482.525
920.19121	37747.625
923.97308	38068.025
927.75233	38314.125
931.52895	38417.425
935.30295	38103.425
939.07433	37532.725
942.84309	36973.125
946.60924	36671.325
950.37278	36615.525
954.13371	36604.925
957.89203	36618.625
961.64774	36571.625
965.40086	36589.125
969.15137	36558.025
972.89929	36537.125
976.64461	36603.825
980.38733	36581.325
984.12747	36704.625
987.86502	36861.525
991.59999	37149.425
995.33237	37523.625
999.06217	38116.125
1002.78939	38898.125
1006.51404	39734.225
1010.23611	40625.125
1013.95561	41233.425
1017.67255	41392.225
1021.38692	41075.825
1025.09872	40382.625
1028.80796	39782.325
1032.51465	39604.925
1036.21877	39672.225
1039.92035	39845.825
1043.61937	39878.325
1047.31584	39824.425
1051.00976	39780.325
1054.70114	39800.525
1058.38998	39988.525
1062.07627	40375.225
1065.76003	40819.425
1069.44126	41450.825
1073.11995	42457.825
1076.79611	43629.725
1080.46974	44404.125
1084.14085	44809.325
1087.80943	45301.125
1091.47549	45617.825
1095.13903	45677.025
1098.80005	45296.725
1102.45857	45008.125
1106.11456	44559.125
1109.76805	43912.325
1113.41903	43582.425
1117.06751	43896.325
1120.71348	44486.825
1124.35696	45306.925
1127.99793	45960.125
1131.63641	45869.625
1135.2724	44953.825
1138.90589	44167.025
1142.5369	43723.525
1146.16542	43417.725
1149.79145	43227.025
1153.415	42995.325
1157.03607	43005.525
1160.65467	43532.125
1164.27079	44616.125
1167.88443	46420.825
1171.49561	49066.425
1175.10432	52785.025
1178.71056	57648.725
1182.31434	62055.425
1185.91565	64327.425
1189.51451	64463.625
1193.11091	63259.325
1196.70485	61144.725
1200.29634	58806.025
1203.88538	56538.525
1207.47197	54338.925
1211.05612	52349.625
1214.63782	50658.225
1218.21708	49400.525
1221.79391	48607.125
1225.36829	48305.225
1228.94024	47997.525
1232.50976	47638.425
1236.07685	47288.525
1239.6415	47136.625
1243.20374	47272.725
1246.76355	47586.925
1250.32093	48097.725
1253.8759	48979.525
1257.42845	50408.925
1260.97859	52262.025
1264.52631	54256.325
1268.07163	55960.125
1271.61453	57264.725
1275.15503	58099.925
1278.69312	58538.725
1282.22882	58779.025
1285.76211	59304.025
1289.29301	60508.525
1292.82151	61977.625
1296.34761	63895.425
1299.87133	66615.425
1303.39266	70469.525
1306.9116	75871.325
1310.42815	81561.025
1313.94233	84711.725
1317.45412	83642.825
1320.96354	80458.625
1324.47058	76892.325
1327.97525	73522.125
1331.47754	71115.725
1334.97747	70056.525
1338.47502	70237.925
1341.97022	71561.625
1345.46305	73980.725
1348.95352	77084.325
1352.44163	80242.525
1355.92738	83664.525
1359.41078	88299.325
1362.89183	92482.125
1366.37053	89931.425
1369.84688	80190.525
1373.32088	69795.425
1376.79254	63336.725
1380.26186	60200.425
1383.72883	58594.825
1387.19347	57523.525
1390.65578	56099.325
1394.11575	54746.625
1397.57339	53694.425
1401.0287	53275.425
1404.48168	53334.025
1407.93234	53581.025
1411.38068	53894.025
1414.82669	53809.425
1418.27039	53256.925
1421.71177	52616.325
1425.15083	52002.025
1428.58758	51829.425
1432.02203	52276.425
1435.45416	53087.625
1438.88399	53661.825
1442.31151	53812.625
1445.73673	53793.525
1449.15965	53846.725
1452.58027	53771.025
1455.9986	53560.725
1459.41463	53866.925
1462.82837	54713.325
1466.23982	55735.025
1469.64898	56767.425
1473.05586	57314.525
1476.46045	57623.025
1479.86276	57814.925
1483.26279	58133.725
1486.66054	58768.425
1490.05602	59992.725
1493.44922	61823.825
1496.84016	64697.625
1500.22882	68887.925
1503.61521	74442.225
1506.99934	80048.725
1510.38121	83556.225
1513.76081	83277.925
1517.13816	78707.825
1520.51324	72085.525
1523.88607	66286.725
1527.25665	62572.725
1530.62498	60693.425
1533.99105	59587.125
1537.35488	58631.125
1540.71647	57699.425
1544.07581	56847.425
1547.4329	55999.225
1550.78776	55362.125
1554.14038	54804.925
1557.49077	54730.525
1560.83892	55130.525
1564.18484	56111.525
1567.52853	57372.725
1570.86999	58245.425
1574.20922	58662.225
1577.54624	58431.825
1580.88103	56764.325
1584.2136	54738.425
1587.54395	53958.625
1590.87208	54944.725
1594.19801	57579.025
1597.52172	60861.025
1600.84321	62473.925
1604.16251	61250.725
1607.47959	58639.025
1610.79447	55181.125
1614.10715	51306.925
1617.41763	47751.725
1620.7259	45246.825
1624.03199	43933.825
1627.33587	43690.225
1630.63757	44585.425
1633.93707	46615.825
1637.23439	50466.725
1640.52951	56167.025
1643.82246	63232.225
1647.11321	69743.425
1650.40179	72087.225
1653.68819	68204.425
1656.97241	59860.425
1660.25446	51518.125
1663.53433	45486.225
1666.81203	41740.625
1670.08756	39478.425
1673.36092	38064.325
1676.63211	37104.425
1679.90115	36358.825
1683.16801	35829.325
1686.43272	35393.225
1689.69527	35121.525
1692.95567	34939.125
1696.2139	34762.125
1699.46999	34630.025
1702.72392	34510.825
1705.97571	34468.325
1709.22535	34444.025
1712.47284	34413.025
1715.71819	34346.525
1718.96139	34186.525
1722.20246	34107.725
1725.44139	33989.825
1728.67818	33802.825
1731.91284	33557.125
1735.14537	33359.125
1738.37576	33263.725
1741.60403	33088.625
1744.83017	32993.825
1748.05418	32846.425
1751.27607	32824.025
1754.49584	32681.925
1757.71349	32603.625
1760.92903	32570.325
1764.14244	32483.725
1767.35375	32470.725
1770.56294	32407.525
1773.77002	32339.025
1776.97499	32266.825
1780.17785	32250.425
1783.37861	32213.225
1786.57727	32123.925
1789.77382	32060.625
1792.96828	32049.125
1796.16064	31938.925
1799.3509	31891.325
1802.53907	31848.425
1805.72514	31757.425
1808.90913	31614.325
1812.09102	31472.025
1815.27083	31406.125
1818.44856	31380.225
1821.6242	31272.125
1824.79776	31201.725
1827.96924	31150.325
1831.13864	31079.325
1834.30597	31093.625
1837.47122	31074.425
1840.6344	31006.925
1843.7955	30996.625
1846.95454	30934.825
1850.11151	30920.425
1853.26642	30856.425
1856.41926	30819.325
1859.57004	30772.225
1862.71876	30754.125
1865.86542	30751.025
1869.01003	30720.825
1872.15258	30674.425
1875.29308	30681.925
1878.43152	30576.825
1881.56792	30529.925
1884.70227	30511.525
1887.83457	30473.225
1890.96482	30419.625
1894.09304	30327.525
1897.21921	30293.625
1900.34335	30256.125
1903.46544	30204.325
1906.58551	30240.125
1909.70353	30241.725
1912.81953	30178.625
1915.93349	30093.925
1919.04543	30013.125
1922.15534	29984.525
1925.26322	29881.725
1928.36908	29862.625
1931.47292	29751.625
1934.57473	29676.425
1937.67453	29609.425
1940.77232	29547.825
1943.86808	29438.525
1946.96184	29386.425
1950.05358	29250.925
1953.14331	29151.325
1956.23103	29139.625
1959.31675	28990.925
1962.40046	28934.025
1965.48217	28842.125
1968.56188	28709.325
1971.63959	28643.325
1974.7153	28621.825
1977.78901	28540.925
1980.86073	28461.925
1983.93046	28365.025
1986.99819	28229.225
1990.06394	28195.025
1993.1277	28126.525
1996.18947	28002.225
1999.24925	27938.825
2002.30706	27879.825
2005.36288	27716.325
2008.41672	27684.425
2011.46859	27605.925
2014.51848	27472.225
2017.56639	27363.525
2020.61233	27309.125
2023.6563	27206.325
2026.6983	27162.825
2029.73833	27139.225
2032.7764	27085.425
2035.8125	27004.825
2038.84664	26919.425
2041.87881	26909.725
2044.90903	26850.625
2047.93729	26748.925
2050.96359	26762.925
2053.98794	26757.225
2057.01034	26726.325
2060.03078	26663.125
2063.04927	26671.625
2066.06582	26633.825
2069.08042	26577.625
2072.09307	26554.925
2075.10378	26527.725
2078.11255	26438.125
2081.11938	26424.425
2084.12426	26436.125
2087.12722	26439.425
2090.12824	26449.425
2093.12732	26489.825
2096.12447	26426.425
2099.11969	26423.825
2102.11299	26431.225
2105.10435	26440.125
2108.09379	26457.325
2111.08131	26481.325
2114.0669	26448.025
2117.05057	26477.525
2120.03233	26551.325
2123.01216	26523.525
2125.99008	26550.425
2128.96609	26537.125
2131.94018	26578.225
2134.91236	26615.325
2137.88263	26585.525
2140.851	26581.025
2143.81746	26559.525
2146.78201	26568.625
2149.74466	26596.825
2152.7054	26609.925
2155.66425	26580.225
2158.6212	26559.225
2161.57625	26504.225
2164.52941	26498.425
2167.48067	26470.225
2170.43004	26477.325
2173.37752	26456.625
2176.32311	26427.025
2179.26681	26389.125
2182.20863	26403.525
2185.14856	26453.125
2188.08661	26420.025
2191.02278	26353.925
2193.95707	26344.225
2196.88948	26308.525
2199.82001	26335.925
2202.74867	26309.325
2205.67545	26316.125
2208.60037	26263.825
2211.52341	26220.225
2214.44458	26144.825
2217.36388	26068.425
2220.28132	26061.225
2223.1969	25952.625
2226.11061	25990.825
2229.02246	25925.525
2231.93245	25908.125
2234.84058	25835.925
2237.74686	25748.625
2240.65128	25746.225
2243.55385	25665.325
2246.45456	25618.525
2249.35343	25606.225
2252.25044	25625.425
2255.14561	25597.125
2258.03893	25631.925
2260.93041	25534.225
2263.82004	25492.725
2266.70783	25399.025
2269.59378	25377.925
2272.4779	25336.325
2275.36017	25276.625
2278.24061	25179.925
2281.11922	25122.625
2283.996	25102.825
2286.87094	25085.225
2289.74405	24973.525
2292.61534	24932.725
2295.4848	24908.625
2298.35243	24883.025
2301.21824	24870.825
2304.08223	24907.025
2306.94439	24893.125
2309.80474	24908.125
2312.66327	24851.625
2315.51999	24797.625
2318.37489	24895.225
2321.22797	24832.425
2324.07925	24753.925
2326.92871	24666.725
2329.77637	24642.225
2332.62222	24578.925
2335.46626	24571.425
2338.3085	24550.425
2341.14893	24533.525
2343.98756	24580.425
2346.8244	24623.425
2349.65943	24652.525
2352.49267	24571.925
2355.32411	24555.825
2358.15376	24541.125
2360.98161	24488.425
2363.80768	24517.225
2366.63195	24533.825
2369.45444	24491.025
2372.27514	24453.025
2375.09405	24459.525
2377.91118	24427.225
2380.72652	24397.825
2383.54009	24291.525
2386.35187	24219.725
2389.16188	24164.525
2391.97011	24089.425
2394.77657	24058.625
2397.58125	24002.625
2400.38416	23994.825
2403.18529	23929.725
2405.98466	23865.425
2408.78226	23817.325
2411.57809	23780.725
2414.37216	23799.225
2417.16446	23821.925
2419.955	23809.825
2422.74378	23817.025
2425.5308	23820.225
2428.31606	23770.325
2431.09956	23728.525
2433.88131	23684.725
2436.6613	23736.525
2439.43954	23705.425
2442.21603	23669.925
2444.99077	23599.825
2447.76377	23637.925
2450.53501	23619.925
2453.30451	23583.325
2456.07226	23545.525
2458.83827	23536.425
2461.60254	23533.925
2464.36507	23496.025
2467.12586	23479.125
2469.88492	23491.025
2472.64224	23517.025
2475.39782	23509.525
2478.15167	23532.725
2480.90379	23486.025
2483.65417	23464.225
2486.40283	23508.825
2489.14976	23529.925
2491.89497	23503.425
2494.63845	23534.725
2497.3802	23503.825
2500.12024	23434.025
2502.85855	23379.925
2505.59514	23363.725
2508.33002	23350.225
2511.06318	23276.025
2513.79462	23254.825
2516.52435	23282.425
2519.25237	23230.125
2521.97867	23162.425
2524.70327	23141.025
2527.42616	23118.425
2530.14734	23108.425
2532.86681	23128.025
2535.58458	23098.425
2538.30065	23067.425
2541.01501	23076.025
2543.72768	23043.825
2546.43864	22987.625
2549.14791	22981.925
2551.85548	22963.025
2554.56136	22931.025
2557.26554	22896.325
2559.96803	22885.525
2562.66883	22829.225
2565.36794	22796.325
2568.06536	22773.025
2570.7611	22723.625
2573.45514	22657.125
2576.14751	22656.825
2578.83819	22619.525
2581.52719	22633.125
2584.21451	22577.525
2586.90015	22556.425
2589.58411	22512.725
2592.2664	22505.925
2594.94701	22490.625
2597.62594	22429.625
2600.30321	22358.025
2602.9788	22381.925
2605.65273	22310.625
2608.32498	22350.825
2610.99557	22323.625
2613.66449	22326.325
2616.33175	22336.725
2618.99734	22363.425
2621.66128	22312.525
2624.32355	22318.425
2626.98416	22248.825
2629.64311	22182.225
2632.30041	22153.325
2634.95605	22181.025
2637.61004	22174.225
2640.26238	22129.825
2642.91306	22131.925
2645.56209	22101.125
2648.20948	22076.925
2650.85521	22039.425
2653.4993	22037.625
2656.14175	21990.825
2658.78255	22014.225
2661.42171	22056.925
2664.05923	22068.425
2666.6951	22168.625
2669.32934	22151.625
2671.96194	22152.525
2674.59291	22116.825
2677.22224	22111.025
2679.84993	22101.425
2682.476	22087.425
2685.10043	22078.525
2687.72324	22028.125
2690.34441	22027.625
2692.96396	22020.725
2695.58188	22019.425
2698.19818	21984.225
2700.81285	22008.425
2703.4259	22025.525
2706.03733	22034.625
2708.64714	22003.325
2711.25533	22021.725
2713.86191	22006.625
2716.46687	21984.825
2719.07021	22011.625
2721.67194	22078.125
2724.27206	22076.925
2726.87057	22052.825
2729.46747	22019.625
2732.06276	22015.925
2734.65644	22014.025
2737.24852	22016.125
2739.83899	21980.625
2742.42786	22047.125
2745.01513	22007.225
2747.60079	21920.525
2750.18486	21858.525
2752.76733	21856.825
2755.3482	21830.825
2757.92747	21851.125
2760.50515	21785.425
2763.08123	21791.625
2765.65573	21769.725
2768.22863	21808.625
2770.79994	21759.325
2773.36967	21755.425
2775.9378	21674.625
2778.50435	21663.525
2781.06932	21685.525
2783.6327	21633.325
2786.1945	21662.925
2788.75471	21649.625
2791.31335	21575.525
2793.87041	21516.425
2796.42589	21459.725
2798.97979	21442.125
2801.53212	21386.725
2804.08288	21362.625
2806.63206	21323.825
2809.17967	21285.025
2811.72571	21228.325
2814.27018	21218.025
2816.81308	21190.225
2819.35442	21206.925
2821.89419	21135.425
2824.43239	21151.825
2826.96904	21059.325
2829.50412	21067.525
2832.03763	20994.325
2834.56959	20961.525
2837.1	20925.825
2839.62884	20950.025
2842.15613	20869.325
2844.68186	20887.725
2847.20604	20848.025
2849.72867	20824.925
2852.24974	20793.925
2854.76927	20800.825
2857.28724	20806.025
2859.80367	20838.625
2862.31855	20808.025
2864.83189	20769.025
2867.34368	20710.925
2869.85393	20711.725
2872.36264	20718.725
2874.8698	20677.125
2877.37543	20660.825
2879.87952	20615.225
2882.38207	20603.125
2884.88308	20609.025
2887.38256	20590.725
2889.88051	20581.725
2892.37692	20614.825
2894.8718	20528.425
2897.36515	20546.525
2899.85698	20543.225
2902.34727	20595.625
2904.83604	20636.925
2907.32328	20726.025
2909.809	20726.925
2912.29319	20683.525
2914.77587	20697.625
2917.25702	20691.625
2919.73665	20680.925
2922.21476	20663.625
2924.69136	20601.425
2927.16644	20584.825
2929.64	20549.325
2932.11205	20534.025
2934.58258	20419.425
2937.05161	20453.425
2939.51912	20464.525
2941.98513	20460.425
2944.44962	20407.925
2946.91261	20326.625
2949.37409	20347.025
2951.83407	20322.325
2954.29254	20324.825
2956.74951	20340.225
2959.20498	20338.325
2961.65895	20314.025
2964.11142	20273.125
2966.56239	20290.225
2969.01186	20238.025
2971.45984	20224.325
2973.90632	20284.625
2976.35131	20187.825
2978.7948	20157.225
2981.23681	20127.925
2983.67732	20078.025
2986.11635	20045.525
2988.55388	19995.025
2990.98993	19953.625
2993.4245	19897.425
2995.85758	19892.925
2998.28917	19850.825
3000.71928	19826.425
3003.14791	19779.425
3005.57506	19733.125
3008.00073	19699.425
3010.42493	19651.625
3012.84764	19613.525
3015.26888	19634.125
3017.68865	19614.625
3020.10694	19507.825
3022.52376	19433.625
3024.9391	19394.625
3027.35298	19380.125
3029.76539	19367.925
3032.17632	19382.625
3034.5858	19327.825
3036.9938	19283.525
3039.40034	19254.825
3041.80542	19284.425
3044.20903	19188.925
3046.61118	19206.025
3049.01187	19147.625
3051.4111	19139.125
3053.80888	19101.325
3056.20519	19064.025
3058.60005	19001.225
3060.99345	19005.725
3063.3854	18924.925
3065.7759	18868.225
3068.16494	18874.425
3070.55254	18782.225
3072.93868	18775.325
3075.32338	18670.225
3077.70662	18630.425
3080.08842	18627.325
3082.46878	18618.225
3084.84769	18546.325
3087.22515	18579.425
3089.60118	18541.225
3091.97576	18558.325
3094.3489	18536.125
3096.72061	18496.525
3099.09087	18479.725
3101.4597	18461.925
3103.82709	18457.025
3106.19305	18428.525
3108.55757	18428.925
3110.92066	18373.325
3113.28232	18363.225
3115.64255	18310.925
3118.00134	18325.825
3120.35871	18312.025
3122.71466	18219.725
3125.06917	18186.425
3127.42226	18143.225
3129.77393	18132.625
3132.12417	18079.925
3134.47299	18098.625
3136.82039	18061.225
3139.16636	18077.625
3141.51092	18002.225
3143.85406	18021.125
3146.19579	18009.925
3148.53609	18019.425
3150.87499	18064.125
3153.21246	18044.325
3155.54853	18074.125
3157.88318	18027.225
3160.21642	18036.925
3162.54826	18060.625
3164.87868	18034.525
3167.2077	18005.225
3169.5353	18004.425
3171.86151	17998.725
3174.18631	17983.825
3176.5097	17989.225
3178.83169	17925.325
3181.15228	17907.925
3183.47147	17783.025
3185.78926	17792.325
3188.10565	17762.225
3190.42065	17785.125
3192.73424	17737.925
3195.04645	17722.725
3197.35725	17744.225
3199.66667	17704.725
3201.97469	17737.425
3204.28132	17727.225
3206.58656	17742.125
3208.8904	17749.225
3211.19287	17744.925
3213.49394	17758.025
3215.79363	17708.825
3218.09193	17710.825
3220.38884	17700.625
3222.68438	17753.525
3224.97853	17673.725
3227.2713	17670.925
3229.56269	17714.125
3231.8527	17695.725
3234.14133	17648.125
3236.42858	17615.425
3238.71446	17607.425
3240.99896	17530.425
3243.28209	17486.825
3245.56384	17444.025
3247.84423	17463.325
3250.12324	17383.325
3252.40088	17366.125
3254.67715	17329.525
3256.95205	17338.225
3259.22558	17335.325
3261.49775	17315.225
3263.76855	17334.525
3266.03799	17283.325
3268.30606	17296.725
3270.57277	17285.725
3272.83812	17225.325
3275.10211	17165.325
3277.36474	17133.425
3279.62601	17154.025
3281.88593	17108.425
3284.14448	17118.125
3286.40168	17092.825
3288.65753	17066.625
3290.91202	17107.025
3293.16516	17074.025
3295.41695	16988.125
3297.66738	16868.025
3299.91647	16811.525
3302.16421	16724.425
3304.4106	16639.725
3306.65564	16542.225
3308.89933	16454.125
3311.14169	16311.625
3313.38269	16194.325
3315.62236	16090.025
3317.86068	15979.225
3320.09766	15855.625
3322.3333	15753.925
3324.5676	15686.425
3326.80056	15453.225
3329.03219	15385.825
3331.26248	3.725
3333.49143	-1.375
3335.71905	-0.075
