Data from AgNPs_UA_20uM_CRN_0uM_R6G_10uM_Q_RamanShift__20__12-59-42-027.txt Node

Date: Mon Jul 18 12:59:42 BST 2022
User: TCL
Spectrometer: QEP01345
Trigger mode: 4
Integration Time (sec): 7.000000E0
Scans to average: 10
Electric dark correction enabled: true
Nonlinearity correction enabled: false
Boxcar width: 0
XAxis mode: Raman Shifts
Number of Pixels in Spectrum: 1044
>>>>>Begin Spectral Data<<<<<
46.04893	-1.425
50.45542	-0.925
54.85868	0.375
59.25871	-1.225
63.6555	122.375
68.04907	129.675
72.43941	136.475
76.82654	141.975
81.21044	149.875
85.59113	151.675
89.96862	156.675
94.34289	160.475
98.71396	168.775
103.08183	173.275
107.4465	176.375
111.80798	179.375
116.16626	182.475
120.52136	196.475
124.87327	207.975
129.222	213.075
133.56755	226.575
137.90993	250.875
142.24913	275.575
146.58517	309.575
150.91804	358.375
155.24774	434.075
159.57429	539.175
163.89768	693.475
168.21792	923.575
172.53501	1254.175
176.84895	1745.775
181.15975	2466.475
185.46741	3448.275
189.77193	4765.475
194.07331	6347.375
198.37157	8115.475
202.6667	9964.575
206.9587	11815.375
211.24758	13613.775
215.53334	15445.475
219.81599	17415.775
224.09553	19641.075
228.37195	22057.975
232.64527	24700.175
236.91549	27481.675
241.18261	30236.675
245.44663	32693.075
249.70755	34919.775
253.96539	36807.675
258.22014	38435.675
262.4718	39787.375
266.72039	40777.575
270.96589	41251.575
275.20832	41298.175
279.44768	41013.575
283.68397	40568.975
287.91719	40239.075
292.14735	40145.075
296.37445	40183.975
300.59849	40436.475
304.81948	40718.175
309.03742	40794.975
313.25231	40539.875
317.46415	39803.175
321.67296	38804.875
325.87872	38057.875
330.08145	37716.575
334.28114	37810.275
338.47781	38233.975
342.67145	38707.975
346.86207	39397.375
351.04966	40196.675
355.23424	41151.075
359.4158	41887.175
363.59435	42435.675
367.76989	42768.275
371.94243	43035.675
376.11196	43208.775
380.27849	43340.975
384.44203	43596.875
388.60257	43825.275
392.76012	44075.075
396.91468	44532.575
401.06626	45131.475
405.21485	45545.175
409.36047	45293.375
413.50311	44575.375
417.64277	44085.875
421.77947	44000.975
425.9132	44029.975
430.04396	44341.175
434.17176	44635.675
438.2966	45265.775
442.41849	46220.175
446.53742	47567.675
450.6534	48943.775
454.76644	49825.475
458.87653	49966.875
462.98368	49565.275
467.08789	48917.875
471.18916	48140.575
475.2875	47414.675
479.38291	46899.875
483.4754	46325.475
487.56496	45785.675
491.6516	45263.075
495.73531	44867.075
499.81612	44792.375
503.89401	45011.275
507.96899	45158.675
512.04106	45255.875
516.11023	45222.575
520.1765	45125.575
524.23987	45017.175
528.30034	44863.075
532.35792	44631.475
536.41261	44194.275
540.46441	43800.375
544.51333	43874.575
548.55936	44433.575
552.60252	45311.275
556.64279	46216.875
560.6802	46849.975
564.71473	47245.075
568.7464	47857.375
572.7752	48695.075
576.80114	49232.975
580.82422	49748.175
584.84444	50528.975
588.86181	51520.075
592.87633	52661.375
596.888	53139.375
600.89682	53261.775
604.9028	55154.875
608.90594	60292.675
612.90624	64398.275
616.90371	59090.875
620.89834	50142.975
624.89015	46904.875
628.87913	46760.475
632.86528	46679.975
636.84862	46342.375
640.82913	45507.775
644.80683	44339.075
648.78172	43632.375
652.75379	43612.375
656.72306	44382.575
660.68952	45160.675
664.65319	44748.375
668.61405	44080.975
672.57211	43941.075
676.52738	44033.975
680.47986	43881.875
684.42955	43729.475
688.37646	43771.175
692.32058	44028.575
696.26192	44435.475
700.20048	44922.175
704.13626	45109.275
708.06928	44898.875
711.99952	44635.775
715.927	44578.675
719.85171	44599.575
723.77365	44498.875
727.69284	44141.075
731.60928	43853.275
735.52295	43889.475
739.43388	44031.175
743.34206	44188.975
747.24749	44263.175
751.15017	44596.875
755.05012	45225.475
758.94733	46611.075
762.8418	49387.175
766.73354	53344.275
770.62254	56657.875
774.50882	56998.575
778.39237	54206.275
782.27321	50303.675
786.15132	47188.375
790.02671	45284.575
793.89938	44359.775
797.76935	44040.375
801.6366	43936.775
805.50115	43757.675
809.36299	43520.575
813.22213	43176.975
817.07857	43044.375
820.93231	43011.775
824.78336	42946.075
828.63172	42944.675
832.47738	43002.975
836.32036	43085.475
840.16066	43301.575
843.99827	43415.575
847.8332	43310.675
851.66546	43209.675
855.49504	43223.275
859.32195	43187.375
863.1462	43056.775
866.96777	42983.575
870.78668	42922.675
874.60293	42901.175
878.41652	42957.375
882.22745	43079.675
886.03573	43236.175
889.84136	43160.075
893.64433	42936.875
897.44466	42823.075
901.24235	42660.275
905.0374	42571.275
908.8298	42498.575
912.61957	42534.775
916.40671	42895.675
920.19121	43419.375
923.97308	43894.775
927.75233	44197.875
931.52895	44133.775
935.30295	43540.475
939.07433	42805.175
942.84309	42267.975
946.60924	42050.075
950.37278	41972.275
954.13371	41866.675
957.89203	41694.075
961.64774	41631.675
965.40086	41503.975
969.15137	41400.375
972.89929	41327.475
976.64461	41284.375
980.38733	41356.575
984.12747	41588.375
987.86502	41955.575
991.59999	42449.575
995.33237	43300.175
999.06217	44589.275
1002.78939	45991.275
1006.51404	46586.775
1010.23611	46826.375
1013.95561	47154.775
1017.67255	47164.675
1021.38692	46803.475
1025.09872	46605.575
1028.80796	47051.275
1032.51465	48260.275
1036.21877	49161.075
1039.92035	49070.275
1043.61937	48282.075
1047.31584	47057.075
1051.00976	46030.075
1054.70114	45569.175
1058.38998	45568.975
1062.07627	45728.475
1065.76003	45899.375
1069.44126	46177.275
1073.11995	46676.675
1076.79611	47172.975
1080.46974	47541.875
1084.14085	48094.375
1087.80943	48636.275
1091.47549	48811.875
1095.13903	48472.575
1098.80005	47623.475
1102.45857	46818.975
1106.11456	46496.475
1109.76805	46598.175
1113.41903	47087.975
1117.06751	47611.175
1120.71348	48251.475
1124.35696	48847.375
1127.99793	49245.575
1131.63641	49258.075
1135.2724	48763.775
1138.90589	48323.275
1142.5369	48155.075
1146.16542	48048.575
1149.79145	48268.975
1153.415	48673.675
1157.03607	49355.275
1160.65467	50463.175
1164.27079	52361.775
1167.88443	54861.575
1171.49561	58313.275
1175.10432	62807.175
1178.71056	68260.275
1182.31434	72900.875
1185.91565	74867.575
1189.51451	73976.175
1193.11091	71175.775
1196.70485	67866.075
1200.29634	64966.075
1203.88538	62693.275
1207.47197	60798.775
1211.05612	59219.275
1214.63782	58305.975
1218.21708	58088.575
1221.79391	58140.875
1225.36829	58266.075
1228.94024	57658.775
1232.50976	56442.275
1236.07685	55391.075
1239.6415	54924.775
1243.20374	54882.875
1246.76355	55286.175
1250.32093	56145.975
1253.8759	57275.475
1257.42845	58691.575
1260.97859	60174.475
1264.52631	61652.975
1268.07163	63248.975
1271.61453	64949.275
1275.15503	66784.175
1278.69312	68765.375
1282.22882	70342.575
1285.76211	71799.975
1289.29301	73504.875
1292.82151	75524.875
1296.34761	78389.675
1299.87133	82467.975
1303.39266	87680.375
1306.9116	93787.275
1310.42815	99799.175
1313.94233	103387.775
1317.45412	103023.275
1320.96354	100294.775
1324.47058	96834.175
1327.97525	93542.475
1331.47754	91184.875
1334.97747	89971.075
1338.47502	89740.375
1341.97022	89940.575
1345.46305	90049.075
1348.95352	90025.575
1352.44163	90539.375
1355.92738	92933.775
1359.41078	97583.375
1362.89183	101304.075
1366.37053	98525.775
1369.84688	89614.975
1373.32088	80250.375
1376.79254	74136.675
1380.26186	71448.975
1383.72883	70681.675
1387.19347	70213.975
1390.65578	69451.675
1394.11575	69112.075
1397.57339	69564.975
1401.0287	70534.275
1404.48168	71400.775
1407.93234	71448.275
1411.38068	70665.675
1414.82669	69088.575
1418.27039	66945.075
1421.71177	64781.375
1425.15083	63114.075
1428.58758	62217.075
1432.02203	62674.175
1435.45416	63923.075
1438.88399	65373.575
1442.31151	66412.875
1445.73673	67212.875
1449.15965	67773.475
1452.58027	68073.975
1455.9986	68030.975
1459.41463	68446.475
1462.82837	69357.175
1466.23982	70593.475
1469.64898	71697.675
1473.05586	72468.875
1476.46045	72494.775
1479.86276	72168.375
1483.26279	71593.775
1486.66054	71379.375
1490.05602	71733.175
1493.44922	72475.475
1496.84016	73622.275
1500.22882	75760.775
1503.61521	79010.875
1506.99934	82683.975
1510.38121	85313.075
1513.76081	85552.175
1517.13816	82802.675
1520.51324	78696.675
1523.88607	75174.075
1527.25665	73305.175
1530.62498	72585.675
1533.99105	72069.775
1537.35488	71540.775
1540.71647	70791.375
1544.07581	69827.475
1547.4329	68561.075
1550.78776	67383.175
1554.14038	66600.175
1557.49077	66177.275
1560.83892	66025.375
1564.18484	66245.075
1567.52853	66616.775
1570.86999	67161.875
1574.20922	67991.475
1577.54624	68305.875
1580.88103	67826.275
1584.2136	67656.775
1587.54395	68698.775
1590.87208	71569.375
1594.19801	76055.875
1597.52172	80540.175
1600.84321	81873.375
1604.16251	78819.375
1607.47959	73424.275
1610.79447	67534.775
1614.10715	62400.475
1617.41763	58230.475
1620.7259	55390.775
1624.03199	54079.875
1627.33587	54138.175
1630.63757	55815.275
1633.93707	59146.975
1637.23439	64387.175
1640.52951	71392.775
1643.82246	78888.575
1647.11321	84106.475
1650.40179	84054.375
1653.68819	77821.875
1656.97241	68233.375
1660.25446	59380.475
1663.53433	53052.775
1666.81203	48995.975
1670.08756	46424.975
1673.36092	44748.875
1676.63211	43632.275
1679.90115	42828.375
1683.16801	42187.975
1686.43272	41710.975
1689.69527	41359.775
1692.95567	41036.875
1696.2139	40831.975
1699.46999	40703.175
1702.72392	40591.575
1705.97571	40511.375
1709.22535	40470.175
1712.47284	40456.275
1715.71819	40352.975
1718.96139	40314.375
1722.20246	40121.075
1725.44139	39942.875
1728.67818	39729.475
1731.91284	39547.475
1735.14537	39398.175
1738.37576	39259.075
1741.60403	39114.575
1744.83017	39003.675
1748.05418	38929.075
1751.27607	38813.475
1754.49584	38781.875
1757.71349	38750.275
1760.92903	38705.975
1764.14244	38602.975
1767.35375	38605.875
1770.56294	38561.575
1773.77002	38547.275
1776.97499	38472.675
1780.17785	38412.675
1783.37861	38347.875
1786.57727	38255.675
1789.77382	38237.375
1792.96828	38152.775
1796.16064	38159.975
1799.3509	38043.975
1802.53907	37893.875
1805.72514	37837.175
1808.90913	37788.175
1812.09102	37741.875
1815.27083	37738.175
1818.44856	37664.675
1821.6242	37635.575
1824.79776	37534.275
1827.96924	37474.175
1831.13864	37448.275
1834.30597	37493.575
1837.47122	37448.875
1840.6344	37371.375
1843.7955	37354.275
1846.95454	37379.475
1850.11151	37375.975
1853.26642	37374.875
1856.41926	37384.375
1859.57004	37358.275
1862.71876	37330.475
1865.86542	37383.375
1869.01003	37389.875
1872.15258	37268.075
1875.29308	37267.475
1878.43152	37214.175
1881.56792	37253.775
1884.70227	37217.175
1887.83457	37202.875
1890.96482	37144.375
1894.09304	37146.975
1897.21921	37196.675
1900.34335	37112.775
1903.46544	36990.975
1906.58551	36974.675
1909.70353	36987.075
1912.81953	36970.275
1915.93349	36927.175
1919.04543	36846.975
1922.15534	36746.475
1925.26322	36742.875
1928.36908	36711.275
1931.47292	36629.175
1934.57473	36538.275
1937.67453	36451.675
1940.77232	36388.075
1943.86808	36188.375
1946.96184	36133.175
1950.05358	36008.775
1953.14331	35913.575
1956.23103	35771.775
1959.31675	35660.375
1962.40046	35616.975
1965.48217	35503.375
1968.56188	35439.275
1971.63959	35329.275
1974.7153	35210.975
1977.78901	35123.875
1980.86073	35082.875
1983.93046	34970.575
1986.99819	34854.275
1990.06394	34788.175
1993.1277	34662.475
1996.18947	34597.575
1999.24925	34514.775
2002.30706	34440.275
2005.36288	34368.075
2008.41672	34293.775
2011.46859	34262.775
2014.51848	34079.275
2017.56639	34094.175
2020.61233	34049.575
2023.6563	33986.275
2026.6983	33890.075
2029.73833	33840.975
2032.7764	33786.175
2035.8125	33694.875
2038.84664	33673.575
2041.87881	33620.675
2044.90903	33587.775
2047.93729	33491.275
2050.96359	33523.675
2053.98794	33466.275
2057.01034	33451.475
2060.03078	33446.875
2063.04927	33446.975
2066.06582	33415.175
2069.08042	33440.575
2072.09307	33390.775
2075.10378	33381.775
2078.11255	33364.575
2081.11938	33336.075
2084.12426	33287.575
2087.12722	33316.375
2090.12824	33289.775
2093.12732	33278.875
2096.12447	33284.775
2099.11969	33262.775
2102.11299	33297.575
2105.10435	33357.175
2108.09379	33324.175
2111.08131	33417.675
2114.0669	33332.275
2117.05057	33345.575
2120.03233	33441.875
2123.01216	33444.875
2125.99008	33455.075
2128.96609	33558.375
2131.94018	33664.575
2134.91236	33720.775
2137.88263	33686.475
2140.851	33738.075
2143.81746	33807.475
2146.78201	33783.375
2149.74466	33857.875
2152.7054	33799.175
2155.66425	33774.775
2158.6212	33766.775
2161.57625	33723.075
2164.52941	33763.975
2167.48067	33826.075
2170.43004	33812.975
2173.37752	33764.375
2176.32311	33769.875
2179.26681	33755.775
2182.20863	33745.675
2185.14856	33799.475
2188.08661	33804.475
2191.02278	33831.375
2193.95707	33837.475
2196.88948	33845.775
2199.82001	33810.075
2202.74867	33775.575
2205.67545	33773.375
2208.60037	33765.175
2211.52341	33751.575
2214.44458	33731.575
2217.36388	33720.375
2220.28132	33701.175
2223.1969	33610.375
2226.11061	33526.475
2229.02246	33463.175
2231.93245	33442.075
2234.84058	33345.775
2237.74686	33287.475
2240.65128	33274.275
2243.55385	33254.275
2246.45456	33209.375
2249.35343	33140.375
2252.25044	33090.575
2255.14561	33057.575
2258.03893	33050.375
2260.93041	32971.775
2263.82004	32929.975
2266.70783	32903.975
2269.59378	32814.075
2272.4779	32831.675
2275.36017	32786.075
2278.24061	32731.575
2281.11922	32646.075
2283.996	32649.075
2286.87094	32611.975
2289.74405	32540.375
2292.61534	32558.275
2295.4848	32576.775
2298.35243	32634.175
2301.21824	32642.875
2304.08223	32608.675
2306.94439	32572.475
2309.80474	32593.275
2312.66327	32622.575
2315.51999	32618.975
2318.37489	32675.775
2321.22797	32668.775
2324.07925	32657.775
2326.92871	32607.475
2329.77637	32638.175
2332.62222	32600.475
2335.46626	32527.075
2338.3085	32525.775
2341.14893	32556.075
2343.98756	32560.075
2346.8244	32640.175
2349.65943	32739.775
2352.49267	32696.675
2355.32411	32715.775
2358.15376	32647.575
2360.98161	32627.675
2363.80768	32621.875
2366.63195	32578.675
2369.45444	32522.875
2372.27514	32510.175
2375.09405	32404.075
2377.91118	32247.675
2380.72652	32159.875
2383.54009	32147.375
2386.35187	32132.875
2389.16188	32054.875
2391.97011	32084.775
2394.77657	32071.775
2397.58125	32003.275
2400.38416	31972.575
2403.18529	31948.175
2405.98466	31933.475
2408.78226	31841.875
2411.57809	31748.475
2414.37216	31726.175
2417.16446	31645.475
2419.955	31595.175
2422.74378	31614.075
2425.5308	31594.775
2428.31606	31560.275
2431.09956	31573.075
2433.88131	31540.275
2436.6613	31549.575
2439.43954	31545.575
2442.21603	31549.375
2444.99077	31551.175
2447.76377	31563.775
2450.53501	31490.675
2453.30451	31520.975
2456.07226	31519.475
2458.83827	31501.475
2461.60254	31509.775
2464.36507	31531.175
2467.12586	31490.275
2469.88492	31514.975
2472.64224	31514.475
2475.39782	31494.975
2478.15167	31607.575
2480.90379	31625.375
2483.65417	31684.075
2486.40283	31706.375
2489.14976	31761.675
2491.89497	31715.275
2494.63845	31730.675
2497.3802	31784.175
2500.12024	31786.075
2502.85855	31748.275
2505.59514	31681.575
2508.33002	31642.775
2511.06318	31595.175
2513.79462	31583.675
2516.52435	31503.375
2519.25237	31496.275
2521.97867	31498.275
2524.70327	31527.275
2527.42616	31495.275
2530.14734	31473.475
2532.86681	31494.675
2535.58458	31486.275
2538.30065	31535.675
2541.01501	31564.875
2543.72768	31536.475
2546.43864	31525.375
2549.14791	31454.875
2551.85548	31448.775
2554.56136	31422.575
2557.26554	31368.775
2559.96803	31327.775
2562.66883	31253.675
2565.36794	31244.775
2568.06536	31263.775
2570.7611	31233.175
2573.45514	31116.075
2576.14751	31155.575
2578.83819	31140.475
2581.52719	31155.275
2584.21451	31160.275
2586.90015	31121.275
2589.58411	31146.375
2592.2664	31155.675
2594.94701	31139.575
2597.62594	31159.775
2600.30321	31089.875
2602.9788	31098.375
2605.65273	31069.175
2608.32498	31063.775
2610.99557	31038.175
2613.66449	31069.575
2616.33175	31072.075
2618.99734	31161.175
2621.66128	31147.075
2624.32355	31127.175
2626.98416	31118.875
2629.64311	31050.175
2632.30041	31062.675
2634.95605	31050.075
2637.61004	31034.975
2640.26238	31007.975
2642.91306	30974.975
2645.56209	30929.275
2648.20948	30946.275
2650.85521	30881.075
2653.4993	30912.475
2656.14175	30938.675
2658.78255	30956.375
2661.42171	30980.075
2664.05923	31067.075
2666.6951	31045.175
2669.32934	31092.875
2671.96194	31052.275
2674.59291	31060.975
2677.22224	30997.375
2679.84993	30993.575
2682.476	31048.675
2685.10043	31032.375
2687.72324	30966.175
2690.34441	30918.775
2692.96396	30972.475
2695.58188	30946.175
2698.19818	30911.675
2700.81285	30929.875
2703.4259	30894.175
2706.03733	30887.175
2708.64714	30913.875
2711.25533	30968.575
2713.86191	30972.975
2716.46687	31043.575
2719.07021	31021.775
2721.67194	31104.375
2724.27206	31087.775
2726.87057	31173.875
2729.46747	31147.375
2732.06276	31216.575
2734.65644	31217.575
2737.24852	31204.175
2739.83899	31124.775
2742.42786	31136.975
2745.01513	31050.175
2747.60079	31073.675
2750.18486	31111.175
2752.76733	31129.175
2755.3482	31069.375
2757.92747	31087.775
2760.50515	31051.775
2763.08123	31058.175
2765.65573	30973.575
2768.22863	31037.475
2770.79994	31012.375
2773.36967	31031.175
2775.9378	31003.875
2778.50435	30982.175
2781.06932	30902.475
2783.6327	30929.475
2786.1945	30872.575
2788.75471	30887.175
2791.31335	30808.275
2793.87041	30853.875
2796.42589	30795.775
2798.97979	30783.575
2801.53212	30703.075
2804.08288	30786.175
2806.63206	30705.975
2809.17967	30622.575
2811.72571	30558.575
2814.27018	30479.375
2816.81308	30393.475
2819.35442	30392.675
2821.89419	30339.175
2824.43239	30323.575
2826.96904	30381.175
2829.50412	30350.775
2832.03763	30287.775
2834.56959	30312.875
2837.1	30206.775
2839.62884	30208.675
2842.15613	30155.175
2844.68186	30163.675
2847.20604	30111.875
2849.72867	30121.175
2852.24974	30121.975
2854.76927	30116.475
2857.28724	30103.975
2859.80367	30091.075
2862.31855	30072.575
2864.83189	30018.075
2867.34368	29964.975
2869.85393	29966.275
2872.36264	29916.875
2874.8698	29909.275
2877.37543	29918.275
2879.87952	29894.175
2882.38207	29923.875
2884.88308	29938.275
2887.38256	30038.375
2889.88051	30006.875
2892.37692	30020.375
2894.8718	29971.775
2897.36515	30070.575
2899.85698	30070.275
2902.34727	30133.275
2904.83604	30165.475
2907.32328	30264.775
2909.809	30267.875
2912.29319	30353.975
2914.77587	30367.775
2917.25702	30371.375
2919.73665	30358.675
2922.21476	30393.275
2924.69136	30290.375
2927.16644	30239.075
2929.64	30173.175
2932.11205	30139.975
2934.58258	30009.175
2937.05161	30006.775
2939.51912	30029.575
2941.98513	30008.475
2944.44962	29981.875
2946.91261	29927.975
2949.37409	30089.975
2951.83407	30043.775
2954.29254	30041.175
2956.74951	30052.275
2959.20498	30059.375
2961.65895	30024.275
2964.11142	30082.875
2966.56239	30027.275
2969.01186	29971.375
2971.45984	29956.775
2973.90632	29920.575
2976.35131	29927.475
2978.7948	29930.175
2981.23681	29801.875
2983.67732	29735.975
2986.11635	29721.375
2988.55388	29640.875
2990.98993	29615.975
2993.4245	29570.675
2995.85758	29516.275
2998.28917	29412.675
3000.71928	29294.775
3003.14791	29269.075
3005.57506	29217.675
3008.00073	29078.075
3010.42493	29096.875
3012.84764	29030.475
3015.26888	29027.475
3017.68865	28948.775
3020.10694	28975.775
3022.52376	28904.775
3024.9391	28950.575
3027.35298	28898.375
3029.76539	28933.275
3032.17632	28836.975
3034.5858	28841.175
3036.9938	28848.875
3039.40034	28807.075
3041.80542	28816.175
3044.20903	28709.775
3046.61118	28748.175
3049.01187	28637.175
3051.4111	28660.875
3053.80888	28630.875
3056.20519	28618.375
3058.60005	28587.275
3060.99345	28522.875
3063.3854	28440.475
3065.7759	28317.075
3068.16494	28299.275
3070.55254	28214.275
3072.93868	28166.075
3075.32338	28102.275
3077.70662	28044.675
3080.08842	27923.375
3082.46878	27935.175
3084.84769	27993.775
3087.22515	28029.675
3089.60118	27960.875
3091.97576	27947.675
3094.3489	27903.775
3096.72061	27902.775
3099.09087	27924.575
3101.4597	27890.475
3103.82709	27877.175
3106.19305	27949.275
3108.55757	27932.575
3110.92066	27898.875
3113.28232	27900.575
3115.64255	27843.975
3118.00134	27732.775
3120.35871	27704.475
3122.71466	27620.475
3125.06917	27571.175
3127.42226	27519.775
3129.77393	27567.475
3132.12417	27506.375
3134.47299	27478.775
3136.82039	27411.175
3139.16636	27382.675
3141.51092	27401.075
3143.85406	27433.875
3146.19579	27410.775
3148.53609	27420.475
3150.87499	27488.075
3153.21246	27475.675
3155.54853	27533.275
3157.88318	27483.375
3160.21642	27471.775
3162.54826	27527.775
3164.87868	27582.875
3167.2077	27597.275
3169.5353	27591.875
3171.86151	27577.875
3174.18631	27512.175
3176.5097	27493.375
3178.83169	27479.275
3181.15228	27531.875
3183.47147	27425.875
3185.78926	27377.975
3188.10565	27322.375
3190.42065	27302.875
3192.73424	27316.875
3195.04645	27316.375
3197.35725	27312.075
3199.66667	27286.275
3201.97469	27333.175
3204.28132	27252.975
3206.58656	27299.975
3208.8904	27283.375
3211.19287	27319.975
3213.49394	27318.975
3215.79363	27304.075
3218.09193	27357.575
3220.38884	27371.475
3222.68438	27389.475
3224.97853	27368.875
3227.2713	27390.375
3229.56269	27366.475
3231.8527	27346.675
3234.14133	27327.875
3236.42858	27315.775
3238.71446	27309.775
3240.99896	27211.875
3243.28209	27198.375
3245.56384	27117.875
3247.84423	27109.475
3250.12324	27073.875
3252.40088	27080.375
3254.67715	27081.075
3256.95205	27069.075
3259.22558	27051.175
3261.49775	27027.675
3263.76855	27033.075
3266.03799	26989.175
3268.30606	27001.675
3270.57277	26942.975
3272.83812	26901.675
3275.10211	26849.975
3277.36474	26810.775
3279.62601	26816.275
3281.88593	26785.875
3284.14448	26836.175
3286.40168	26840.775
3288.65753	26817.675
3290.91202	26790.375
3293.16516	26766.175
3295.41695	26771.475
3297.66738	26647.075
3299.91647	26511.475
3302.16421	26340.675
3304.4106	26281.875
3306.65564	26127.475
3308.89933	25905.775
3311.14169	25756.775
3313.38269	25592.875
3315.62236	25462.475
3317.86068	25331.975
3320.09766	25232.775
3322.3333	25003.075
3324.5676	24918.075
3326.80056	24549.775
3329.03219	24432.575
3331.26248	5.275
3333.49143	-1.125
3335.71905	-0.125
