Data from AgNPs_UA_0uM_CRN_0uM_R6G_10uM_Q_RamanShift__34__11-58-08-789.txt Node

Date: Wed Jul 13 11:58:08 BST 2022
User: TCL
Spectrometer: QEP01345
Trigger mode: 4
Integration Time (sec): 7.000000E0
Scans to average: 10
Electric dark correction enabled: true
Nonlinearity correction enabled: false
Boxcar width: 0
XAxis mode: Raman Shifts
Number of Pixels in Spectrum: 1044
>>>>>Begin Spectral Data<<<<<
46.04893	0.5375
50.45542	0.2375
54.85868	-1.3625
59.25871	-0.3625
63.6555	36.5375
68.04907	43.6375
72.43941	45.6375
76.82654	51.1375
81.21044	50.8375
85.59113	56.0375
89.96862	58.4375
94.34289	62.0375
98.71396	58.4375
103.08183	63.9375
107.4465	63.9375
111.80798	65.6375
116.16626	64.9375
120.52136	66.1375
124.87327	67.3375
129.222	66.2375
133.56755	64.1375
137.90993	72.5375
142.24913	68.0375
146.58517	72.9375
150.91804	74.4375
155.24774	77.8375
159.57429	89.0375
163.89768	97.6375
168.21792	121.7375
172.53501	151.8375
176.84895	197.3375
181.15975	261.9375
185.46741	348.5375
189.77193	465.7375
194.07331	605.0375
198.37157	771.3375
202.6667	939.7375
206.9587	1112.2375
211.24758	1284.5375
215.53334	1448.1375
219.81599	1655.9375
224.09553	1875.7375
228.37195	2111.3375
232.64527	2396.9375
236.91549	2654.6375
241.18261	2908.1375
245.44663	3130.6375
249.70755	3289.0375
253.96539	3405.0375
258.22014	3488.6375
262.4718	3545.2375
266.72039	3580.7375
270.96589	3560.8375
275.20832	3530.0375
279.44768	3463.8375
283.68397	3418.1375
287.91719	3358.2375
292.14735	3353.1375
296.37445	3420.1375
300.59849	3547.8375
304.81948	3689.9375
309.03742	3779.0375
313.25231	3777.6375
317.46415	3603.0375
321.67296	3351.8375
325.87872	3145.5375
330.08145	3051.6375
334.28114	3064.1375
338.47781	3128.6375
342.67145	3211.6375
346.86207	3324.8375
351.04966	3566.8375
355.23424	3775.0375
359.4158	3944.3375
363.59435	4005.7375
367.76989	4017.4375
371.94243	3968.6375
376.11196	3931.8375
380.27849	3896.9375
384.44203	3848.5375
388.60257	3801.8375
392.76012	3756.7375
396.91468	3810.1375
401.06626	3930.6375
405.21485	3989.7375
409.36047	3880.0375
413.50311	3675.5375
417.64277	3502.6375
421.77947	3407.2375
425.9132	3371.1375
430.04396	3389.0375
434.17176	3431.0375
438.2966	3541.1375
442.41849	3713.9375
446.53742	3929.0375
450.6534	4062.8375
454.76644	4130.0375
458.87653	4086.7375
462.98368	3958.8375
467.08789	3812.4375
471.18916	3661.7375
475.2875	3518.8375
479.38291	3409.2375
483.4754	3323.2375
487.56496	3246.4375
491.6516	3187.9375
495.73531	3179.5375
499.81612	3177.2375
503.89401	3209.8375
507.96899	3261.5375
512.04106	3325.8375
516.11023	3381.7375
520.1765	3420.8375
524.23987	3426.0375
528.30034	3393.0375
532.35792	3322.1375
536.41261	3229.8375
540.46441	3134.6375
544.51333	3102.3375
548.55936	3119.1375
552.60252	3176.7375
556.64279	3276.0375
560.6802	3316.1375
564.71473	3401.0375
568.7464	3542.6375
572.7752	3618.1375
576.80114	3490.0375
580.82422	3401.9375
584.84444	3392.0375
588.86181	3517.3375
592.87633	3723.1375
596.888	3910.4375
600.89682	4098.5375
604.9028	4497.3375
608.90594	5629.9375
612.90624	6831.9375
616.90371	6045.3375
620.89834	4172.0375
624.89015	3414.4375
628.87913	3265.7375
632.86528	3272.3375
636.84862	3272.3375
640.82913	3165.8375
644.80683	3004.3375
648.78172	2945.6375
652.75379	3005.1375
656.72306	3177.0375
660.68952	3326.0375
664.65319	3229.5375
668.61405	3039.9375
672.57211	2979.0375
676.52738	2957.8375
680.47986	2925.2375
684.42955	2879.3375
688.37646	2883.4375
692.32058	2925.6375
696.26192	2973.6375
700.20048	3041.6375
704.13626	3097.2375
708.06928	3064.2375
711.99952	3005.6375
715.927	2964.0375
719.85171	2959.5375
723.77365	2931.2375
727.69284	2889.2375
731.60928	2874.4375
735.52295	2885.8375
739.43388	2909.3375
743.34206	2919.1375
747.24749	2919.5375
751.15017	2934.3375
755.05012	3006.8375
758.94733	3246.4375
762.8418	3718.2375
766.73354	4411.5375
770.62254	5046.5375
774.50882	5342.0375
778.39237	5063.3375
782.27321	4330.8375
786.15132	3589.6375
790.02671	3195.8375
793.89938	3023.8375
797.76935	2949.6375
801.6366	2898.6375
805.50115	2862.4375
809.36299	2856.5375
813.22213	2826.1375
817.07857	2822.4375
820.93231	2824.1375
824.78336	2837.5375
828.63172	2867.6375
832.47738	2858.6375
836.32036	2844.3375
840.16066	2796.5375
843.99827	2781.0375
847.8332	2750.6375
851.66546	2749.0375
855.49504	2754.3375
859.32195	2726.2375
863.1462	2688.0375
866.96777	2673.6375
870.78668	2670.2375
874.60293	2675.5375
878.41652	2684.1375
882.22745	2715.9375
886.03573	2725.7375
889.84136	2717.9375
893.64433	2703.1375
897.44466	2683.6375
901.24235	2681.2375
905.0374	2661.4375
908.8298	2645.2375
912.61957	2624.5375
916.40671	2640.7375
920.19121	2680.9375
923.97308	2716.9375
927.75233	2763.5375
931.52895	2770.4375
935.30295	2703.3375
939.07433	2600.1375
942.84309	2515.6375
946.60924	2463.8375
950.37278	2444.8375
954.13371	2417.9375
957.89203	2403.7375
961.64774	2383.2375
965.40086	2372.1375
969.15137	2371.6375
972.89929	2356.6375
976.64461	2365.1375
980.38733	2370.4375
984.12747	2365.7375
987.86502	2387.9375
991.59999	2409.9375
995.33237	2460.3375
999.06217	2543.5375
1002.78939	2654.8375
1006.51404	2736.9375
1010.23611	2813.1375
1013.95561	2858.4375
1017.67255	2832.6375
1021.38692	2735.2375
1025.09872	2637.1375
1028.80796	2593.6375
1032.51465	2608.0375
1036.21877	2675.6375
1039.92035	2744.8375
1043.61937	2767.8375
1047.31584	2737.9375
1051.00976	2710.1375
1054.70114	2660.6375
1058.38998	2628.4375
1062.07627	2628.6375
1065.76003	2629.1375
1069.44126	2651.3375
1073.11995	2711.5375
1076.79611	2778.7375
1080.46974	2869.7375
1084.14085	2972.4375
1087.80943	3043.2375
1091.47549	3032.7375
1095.13903	2947.4375
1098.80005	2801.6375
1102.45857	2708.8375
1106.11456	2706.0375
1109.76805	2746.2375
1113.41903	2841.8375
1117.06751	2970.6375
1120.71348	3171.0375
1124.35696	3376.5375
1127.99793	3485.2375
1131.63641	3379.2375
1135.2724	3130.8375
1138.90589	2955.5375
1142.5369	2846.6375
1146.16542	2809.5375
1149.79145	2777.0375
1153.415	2802.7375
1157.03607	2865.1375
1160.65467	2963.5375
1164.27079	3112.0375
1167.88443	3367.9375
1171.49561	3772.1375
1175.10432	4418.0375
1178.71056	5200.3375
1182.31434	5782.9375
1185.91565	5938.8375
1189.51451	5817.2375
1193.11091	5474.9375
1196.70485	5043.2375
1200.29634	4587.9375
1203.88538	4169.1375
1207.47197	3786.6375
1211.05612	3528.0375
1214.63782	3441.6375
1218.21708	3424.6375
1221.79391	3488.7375
1225.36829	3527.1375
1228.94024	3527.3375
1232.50976	3493.0375
1236.07685	3490.3375
1239.6415	3483.5375
1243.20374	3493.3375
1246.76355	3487.4375
1250.32093	3508.1375
1253.8759	3606.8375
1257.42845	3767.3375
1260.97859	3955.5375
1264.52631	4166.6375
1268.07163	4344.2375
1271.61453	4448.6375
1275.15503	4543.8375
1278.69312	4577.3375
1282.22882	4646.3375
1285.76211	4860.8375
1289.29301	5119.3375
1292.82151	5408.2375
1296.34761	5720.5375
1299.87133	6118.7375
1303.39266	6667.0375
1306.9116	7436.2375
1310.42815	8249.2375
1313.94233	8569.3375
1317.45412	8226.4375
1320.96354	7554.1375
1324.47058	6886.7375
1327.97525	6381.7375
1331.47754	6138.7375
1334.97747	6095.7375
1338.47502	6129.5375
1341.97022	6225.7375
1345.46305	6418.0375
1348.95352	6849.2375
1352.44163	7492.0375
1355.92738	8438.6375
1359.41078	9531.1375
1362.89183	10132.7375
1366.37053	9468.8375
1369.84688	8110.5375
1373.32088	6867.1375
1376.79254	6045.9375
1380.26186	5546.5375
1383.72883	5252.6375
1387.19347	4980.4375
1390.65578	4752.0375
1394.11575	4608.7375
1397.57339	4613.5375
1401.0287	4637.6375
1404.48168	4682.8375
1407.93234	4729.2375
1411.38068	4714.4375
1414.82669	4593.3375
1418.27039	4437.6375
1421.71177	4304.1375
1425.15083	4238.2375
1428.58758	4257.0375
1432.02203	4357.1375
1435.45416	4411.8375
1438.88399	4423.5375
1442.31151	4408.4375
1445.73673	4416.3375
1449.15965	4344.3375
1452.58027	4291.6375
1455.9986	4216.1375
1459.41463	4221.0375
1462.82837	4326.4375
1466.23982	4451.3375
1469.64898	4552.0375
1473.05586	4662.4375
1476.46045	4682.2375
1479.86276	4739.0375
1483.26279	4808.1375
1486.66054	4853.6375
1490.05602	4978.4375
1493.44922	5157.9375
1496.84016	5443.7375
1500.22882	5938.6375
1503.61521	6629.0375
1506.99934	7352.3375
1510.38121	7943.5375
1513.76081	7982.8375
1517.13816	7364.9375
1520.51324	6429.0375
1523.88607	5645.8375
1527.25665	5200.5375
1530.62498	5026.7375
1533.99105	4931.9375
1537.35488	4858.9375
1540.71647	4787.9375
1544.07581	4662.0375
1547.4329	4564.3375
1550.78776	4447.5375
1554.14038	4328.1375
1557.49077	4251.4375
1560.83892	4272.6375
1564.18484	4372.6375
1567.52853	4481.2375
1570.86999	4657.9375
1574.20922	4785.0375
1577.54624	4747.2375
1580.88103	4482.7375
1584.2136	4172.4375
1587.54395	4120.4375
1590.87208	4321.5375
1594.19801	4785.4375
1597.52172	5317.9375
1600.84321	5555.8375
1604.16251	5337.7375
1607.47959	4788.8375
1610.79447	4142.8375
1614.10715	3593.9375
1617.41763	3218.6375
1620.7259	2998.8375
1624.03199	2924.1375
1627.33587	2948.7375
1630.63757	3076.2375
1633.93707	3350.2375
1637.23439	3828.7375
1640.52951	4478.0375
1643.82246	5259.2375
1647.11321	5905.0375
1650.40179	6065.7375
1653.68819	5527.8375
1656.97241	4567.7375
1660.25446	3646.4375
1663.53433	3001.8375
1666.81203	2616.7375
1670.08756	2382.9375
1673.36092	2239.6375
1676.63211	2153.2375
1679.90115	2079.1375
1683.16801	2024.2375
1686.43272	1991.6375
1689.69527	1971.7375
1692.95567	1948.1375
1696.2139	1948.3375
1699.46999	1923.3375
1702.72392	1922.3375
1705.97571	1908.2375
1709.22535	1874.1375
1712.47284	1859.5375
1715.71819	1857.7375
1718.96139	1847.6375
1722.20246	1845.9375
1725.44139	1832.1375
1728.67818	1802.3375
1731.91284	1780.5375
1735.14537	1759.8375
1738.37576	1731.4375
1741.60403	1711.5375
1744.83017	1699.7375
1748.05418	1692.1375
1751.27607	1678.2375
1754.49584	1685.6375
1757.71349	1672.7375
1760.92903	1668.4375
1764.14244	1666.6375
1767.35375	1661.2375
1770.56294	1656.0375
1773.77002	1640.8375
1776.97499	1628.0375
1780.17785	1615.1375
1783.37861	1602.7375
1786.57727	1592.0375
1789.77382	1580.9375
1792.96828	1582.6375
1796.16064	1581.1375
1799.3509	1573.8375
1802.53907	1567.6375
1805.72514	1559.9375
1808.90913	1555.9375
1812.09102	1539.1375
1815.27083	1526.9375
1818.44856	1533.5375
1821.6242	1517.6375
1824.79776	1512.5375
1827.96924	1508.4375
1831.13864	1497.1375
1834.30597	1498.8375
1837.47122	1488.5375
1840.6344	1484.9375
1843.7955	1489.1375
1846.95454	1475.3375
1850.11151	1479.6375
1853.26642	1474.7375
1856.41926	1486.2375
1859.57004	1470.9375
1862.71876	1473.7375
1865.86542	1475.3375
1869.01003	1479.3375
1872.15258	1479.2375
1875.29308	1481.0375
1878.43152	1470.7375
1881.56792	1481.3375
1884.70227	1478.8375
1887.83457	1482.6375
1890.96482	1485.5375
1894.09304	1486.5375
1897.21921	1482.6375
1900.34335	1473.3375
1903.46544	1468.1375
1906.58551	1480.1375
1909.70353	1474.5375
1912.81953	1473.6375
1915.93349	1474.4375
1919.04543	1460.8375
1922.15534	1459.6375
1925.26322	1451.6375
1928.36908	1436.6375
1931.47292	1431.5375
1934.57473	1433.0375
1937.67453	1407.1375
1940.77232	1402.8375
1943.86808	1396.9375
1946.96184	1382.9375
1950.05358	1383.0375
1953.14331	1373.2375
1956.23103	1364.1375
1959.31675	1360.8375
1962.40046	1352.7375
1965.48217	1350.0375
1968.56188	1347.9375
1971.63959	1337.8375
1974.7153	1330.7375
1977.78901	1326.2375
1980.86073	1320.5375
1983.93046	1318.9375
1986.99819	1305.7375
1990.06394	1305.7375
1993.1277	1296.1375
1996.18947	1291.9375
1999.24925	1281.4375
2002.30706	1273.4375
2005.36288	1272.2375
2008.41672	1267.5375
2011.46859	1265.6375
2014.51848	1266.8375
2017.56639	1260.4375
2020.61233	1257.5375
2023.6563	1244.1375
2026.6983	1229.7375
2029.73833	1227.2375
2032.7764	1226.7375
2035.8125	1227.2375
2038.84664	1216.4375
2041.87881	1225.0375
2044.90903	1215.2375
2047.93729	1213.2375
2050.96359	1212.2375
2053.98794	1212.8375
2057.01034	1205.4375
2060.03078	1196.1375
2063.04927	1200.5375
2066.06582	1194.2375
2069.08042	1190.9375
2072.09307	1194.2375
2075.10378	1186.2375
2078.11255	1189.5375
2081.11938	1188.4375
2084.12426	1180.1375
2087.12722	1185.3375
2090.12824	1186.9375
2093.12732	1177.2375
2096.12447	1178.0375
2099.11969	1175.6375
2102.11299	1178.2375
2105.10435	1170.0375
2108.09379	1177.8375
2111.08131	1176.8375
2114.0669	1176.6375
2117.05057	1171.7375
2120.03233	1169.9375
2123.01216	1168.2375
2125.99008	1180.7375
2128.96609	1176.1375
2131.94018	1170.8375
2134.91236	1179.5375
2137.88263	1169.6375
2140.851	1168.7375
2143.81746	1169.1375
2146.78201	1170.5375
2149.74466	1149.5375
2152.7054	1155.0375
2155.66425	1152.1375
2158.6212	1140.7375
2161.57625	1146.7375
2164.52941	1139.8375
2167.48067	1143.9375
2170.43004	1143.5375
2173.37752	1135.6375
2176.32311	1136.8375
2179.26681	1132.4375
2182.20863	1143.0375
2185.14856	1136.3375
2188.08661	1125.5375
2191.02278	1132.7375
2193.95707	1128.7375
2196.88948	1127.3375
2199.82001	1129.2375
2202.74867	1124.2375
2205.67545	1111.6375
2208.60037	1119.5375
2211.52341	1116.4375
2214.44458	1106.2375
2217.36388	1098.4375
2220.28132	1103.1375
2223.1969	1097.8375
2226.11061	1094.2375
2229.02246	1084.2375
2231.93245	1083.4375
2234.84058	1081.9375
2237.74686	1077.6375
2240.65128	1079.7375
2243.55385	1085.1375
2246.45456	1076.1375
2249.35343	1066.1375
2252.25044	1069.8375
2255.14561	1065.3375
2258.03893	1068.3375
2260.93041	1070.4375
2263.82004	1061.4375
2266.70783	1065.2375
2269.59378	1051.2375
2272.4779	1050.2375
2275.36017	1041.5375
2278.24061	1039.9375
2281.11922	1043.6375
2283.996	1037.6375
2286.87094	1030.3375
2289.74405	1025.6375
2292.61534	1021.7375
2295.4848	1030.3375
2298.35243	1024.8375
2301.21824	1014.0375
2304.08223	1018.9375
2306.94439	1022.9375
2309.80474	1010.7375
2312.66327	1012.2375
2315.51999	1011.0375
2318.37489	1014.8375
2321.22797	1017.2375
2324.07925	1005.5375
2326.92871	1007.6375
2329.77637	1009.3375
2332.62222	999.2375
2335.46626	998.2375
2338.3085	1001.4375
2341.14893	1003.6375
2343.98756	995.7375
2346.8244	1001.1375
2349.65943	991.4375
2352.49267	1001.9375
2355.32411	1004.7375
2358.15376	996.2375
2360.98161	1007.7375
2363.80768	1010.4375
2366.63195	1009.0375
2369.45444	1014.6375
2372.27514	1010.8375
2375.09405	1002.1375
2377.91118	996.9375
2380.72652	1002.8375
2383.54009	987.1375
2386.35187	985.3375
2389.16188	971.4375
2391.97011	972.0375
2394.77657	972.2375
2397.58125	964.9375
2400.38416	965.3375
2403.18529	964.0375
2405.98466	964.3375
2408.78226	964.1375
2411.57809	962.2375
2414.37216	949.5375
2417.16446	954.9375
2419.955	947.9375
2422.74378	952.0375
2425.5308	949.9375
2428.31606	950.3375
2431.09956	951.9375
2433.88131	940.0375
2436.6613	952.3375
2439.43954	947.9375
2442.21603	937.7375
2444.99077	946.9375
2447.76377	945.2375
2450.53501	946.9375
2453.30451	949.1375
2456.07226	945.8375
2458.83827	951.2375
2461.60254	948.8375
2464.36507	951.2375
2467.12586	948.3375
2469.88492	949.4375
2472.64224	945.7375
2475.39782	953.9375
2478.15167	953.0375
2480.90379	960.0375
2483.65417	960.7375
2486.40283	968.9375
2489.14976	967.1375
2491.89497	974.0375
2494.63845	964.0375
2497.3802	968.1375
2500.12024	973.6375
2502.85855	971.5375
2505.59514	961.8375
2508.33002	957.5375
2511.06318	954.1375
2513.79462	934.7375
2516.52435	934.2375
2519.25237	939.4375
2521.97867	932.9375
2524.70327	925.9375
2527.42616	930.1375
2530.14734	921.1375
2532.86681	922.5375
2535.58458	922.3375
2538.30065	933.1375
2541.01501	922.9375
2543.72768	924.5375
2546.43864	929.3375
2549.14791	926.3375
2551.85548	930.0375
2554.56136	929.6375
2557.26554	929.7375
2559.96803	931.5375
2562.66883	929.7375
2565.36794	925.2375
2568.06536	922.7375
2570.7611	932.0375
2573.45514	928.6375
2576.14751	916.3375
2578.83819	924.4375
2581.52719	923.6375
2584.21451	919.9375
2586.90015	924.3375
2589.58411	921.9375
2592.2664	929.1375
2594.94701	923.6375
2597.62594	920.9375
2600.30321	918.2375
2602.9788	920.7375
2605.65273	917.2375
2608.32498	923.5375
2610.99557	913.6375
2613.66449	924.9375
2616.33175	922.5375
2618.99734	921.1375
2621.66128	921.1375
2624.32355	919.6375
2626.98416	916.3375
2629.64311	919.8375
2632.30041	923.9375
2634.95605	913.9375
2637.61004	918.0375
2640.26238	912.1375
2642.91306	912.8375
2645.56209	914.3375
2648.20948	913.7375
2650.85521	914.1375
2653.4993	909.8375
2656.14175	917.8375
2658.78255	921.0375
2661.42171	918.4375
2664.05923	919.5375
2666.6951	915.5375
2669.32934	930.4375
2671.96194	923.2375
2674.59291	932.0375
2677.22224	939.6375
2679.84993	938.7375
2682.476	933.9375
2685.10043	937.0375
2687.72324	934.2375
2690.34441	934.9375
2692.96396	927.8375
2695.58188	940.2375
2698.19818	938.4375
2700.81285	947.4375
2703.4259	955.5375
2706.03733	959.7375
2708.64714	955.8375
2711.25533	956.0375
2713.86191	958.0375
2716.46687	968.9375
2719.07021	979.3375
2721.67194	980.5375
2724.27206	977.0375
2726.87057	981.1375
2729.46747	986.0375
2732.06276	971.3375
2734.65644	975.9375
2737.24852	967.2375
2739.83899	967.6375
2742.42786	961.3375
2745.01513	955.8375
2747.60079	963.8375
2750.18486	958.8375
2752.76733	956.0375
2755.3482	950.3375
2757.92747	949.6375
2760.50515	948.7375
2763.08123	948.0375
2765.65573	950.8375
2768.22863	957.4375
2770.79994	952.5375
2773.36967	960.2375
2775.9378	964.7375
2778.50435	968.4375
2781.06932	973.7375
2783.6327	975.8375
2786.1945	976.3375
2788.75471	976.4375
2791.31335	991.5375
2793.87041	1004.5375
2796.42589	1001.9375
2798.97979	1013.0375
2801.53212	1011.8375
2804.08288	1023.7375
2806.63206	1032.1375
2809.17967	1037.6375
2811.72571	1038.0375
2814.27018	1048.3375
2816.81308	1056.0375
2819.35442	1067.0375
2821.89419	1066.2375
2824.43239	1073.4375
2826.96904	1070.8375
2829.50412	1082.9375
2832.03763	1071.9375
2834.56959	1086.5375
2837.1	1084.8375
2839.62884	1109.6375
2842.15613	1131.1375
2844.68186	1166.2375
2847.20604	1203.8375
2849.72867	1234.5375
2852.24974	1239.9375
2854.76927	1248.1375
2857.28724	1258.7375
2859.80367	1251.7375
2862.31855	1237.9375
2864.83189	1226.8375
2867.34368	1224.6375
2869.85393	1217.5375
2872.36264	1208.8375
2874.8698	1206.7375
2877.37543	1200.6375
2879.87952	1200.2375
2882.38207	1194.2375
2884.88308	1194.3375
2887.38256	1199.0375
2889.88051	1187.9375
2892.37692	1199.1375
2894.8718	1195.7375
2897.36515	1212.7375
2899.85698	1210.6375
2902.34727	1219.8375
2904.83604	1228.6375
2907.32328	1221.8375
2909.809	1215.4375
2912.29319	1213.0375
2914.77587	1213.2375
2917.25702	1199.1375
2919.73665	1198.9375
2922.21476	1206.2375
2924.69136	1191.6375
2927.16644	1176.6375
2929.64	1166.4375
2932.11205	1169.1375
2934.58258	1157.5375
2937.05161	1141.9375
2939.51912	1127.8375
2941.98513	1114.8375
2944.44962	1085.0375
2946.91261	1058.8375
2949.37409	1034.9375
2951.83407	1023.1375
2954.29254	1018.1375
2956.74951	1007.4375
2959.20498	995.0375
2961.65895	984.8375
2964.11142	987.8375
2966.56239	976.0375
2969.01186	979.3375
2971.45984	962.7375
2973.90632	960.6375
2976.35131	954.0375
2978.7948	947.4375
2981.23681	944.0375
2983.67732	936.4375
2986.11635	927.0375
2988.55388	916.5375
2990.98993	915.6375
2993.4245	916.9375
2995.85758	896.7375
2998.28917	897.4375
3000.71928	898.1375
3003.14791	893.6375
3005.57506	887.0375
3008.00073	894.4375
3010.42493	885.1375
3012.84764	887.3375
3015.26888	882.8375
3017.68865	891.6375
3020.10694	882.2375
3022.52376	876.1375
3024.9391	888.3375
3027.35298	876.5375
3029.76539	886.2375
3032.17632	879.6375
3034.5858	885.9375
3036.9938	885.6375
3039.40034	877.1375
3041.80542	886.3375
3044.20903	879.6375
3046.61118	880.8375
3049.01187	886.6375
3051.4111	879.7375
3053.80888	892.5375
3056.20519	890.2375
3058.60005	888.7375
3060.99345	877.6375
3063.3854	889.0375
3065.7759	882.4375
3068.16494	889.9375
3070.55254	882.8375
3072.93868	887.3375
3075.32338	882.3375
3077.70662	884.1375
3080.08842	876.8375
3082.46878	880.9375
3084.84769	875.1375
3087.22515	867.5375
3089.60118	867.3375
3091.97576	873.0375
3094.3489	870.1375
3096.72061	870.7375
3099.09087	876.1375
3101.4597	872.1375
3103.82709	868.0375
3106.19305	866.1375
3108.55757	876.9375
3110.92066	877.3375
3113.28232	877.8375
3115.64255	885.5375
3118.00134	880.6375
3120.35871	891.5375
3122.71466	885.5375
3125.06917	891.0375
3127.42226	891.0375
3129.77393	898.4375
3132.12417	905.5375
3134.47299	907.1375
3136.82039	915.7375
3139.16636	917.8375
3141.51092	923.5375
3143.85406	920.1375
3146.19579	935.7375
3148.53609	932.7375
3150.87499	944.6375
3153.21246	937.1375
3155.54853	951.4375
3157.88318	961.4375
3160.21642	961.5375
3162.54826	968.3375
3164.87868	965.1375
3167.2077	973.1375
3169.5353	985.2375
3171.86151	972.9375
3174.18631	994.7375
3176.5097	995.1375
3178.83169	999.4375
3181.15228	1008.0375
3183.47147	1011.3375
3185.78926	1020.3375
3188.10565	1017.6375
3190.42065	1020.8375
3192.73424	1022.5375
3195.04645	1031.0375
3197.35725	1030.5375
3199.66667	1034.2375
3201.97469	1039.5375
3204.28132	1048.7375
3206.58656	1045.5375
3208.8904	1059.1375
3211.19287	1061.7375
3213.49394	1062.7375
3215.79363	1065.1375
3218.09193	1064.3375
3220.38884	1060.6375
3222.68438	1075.4375
3224.97853	1073.2375
3227.2713	1082.2375
3229.56269	1076.4375
3231.8527	1082.4375
3234.14133	1077.8375
3236.42858	1072.6375
3238.71446	1074.8375
3240.99896	1075.2375
3243.28209	1085.1375
3245.56384	1080.9375
3247.84423	1077.7375
3250.12324	1077.7375
3252.40088	1086.0375
3254.67715	1076.4375
3256.95205	1073.9375
3259.22558	1081.0375
3261.49775	1081.5375
3263.76855	1072.5375
3266.03799	1078.0375
3268.30606	1077.8375
3270.57277	1068.2375
3272.83812	1066.0375
3275.10211	1068.8375
3277.36474	1072.2375
3279.62601	1070.6375
3281.88593	1070.1375
3284.14448	1074.7375
3286.40168	1076.2375
3288.65753	1078.8375
3290.91202	1080.0375
3293.16516	1075.4375
3295.41695	1072.4375
3297.66738	1069.2375
3299.91647	1059.8375
3302.16421	1050.3375
3304.4106	1054.4375
3306.65564	1040.7375
3308.89933	1046.8375
3311.14169	1036.6375
3313.38269	1029.8375
3315.62236	1025.5375
3317.86068	1013.0375
3320.09766	1006.3375
3322.3333	997.3375
3324.5676	997.4375
3326.80056	995.7375
3329.03219	980.4375
3331.26248	0.4375
3333.49143	1.2375
3335.71905	1.4375
