Data from AgNPs_UA_50uM_CRN_0uM_R6G_10uM_Q_RamanShift__10__12-22-51-764.txt Node

Date: Tue Jul 26 12:22:51 BST 2022
User: TCL
Spectrometer: QEP01345
Trigger mode: 4
Integration Time (sec): 7.000000E0
Scans to average: 10
Electric dark correction enabled: true
Nonlinearity correction enabled: false
Boxcar width: 0
XAxis mode: Raman Shifts
Number of Pixels in Spectrum: 1044
>>>>>Begin Spectral Data<<<<<
46.04893	0.0125
50.45542	0.0125
54.85868	1.1125
59.25871	-0.9875
63.6555	100.9125
68.04907	109.6125
72.43941	115.3125
76.82654	122.0125
81.21044	126.7125
85.59113	126.9125
89.96862	134.7125
94.34289	139.7125
98.71396	143.2125
103.08183	148.7125
107.4465	150.1125
111.80798	159.2125
116.16626	161.6125
120.52136	169.1125
124.87327	166.7125
129.222	181.5125
133.56755	195.8125
137.90993	203.2125
142.24913	217.8125
146.58517	243.4125
150.91804	280.9125
155.24774	329.9125
159.57429	397.7125
163.89768	511.1125
168.21792	677.4125
172.53501	912.6125
176.84895	1269.2125
181.15975	1777.7125
185.46741	2504.1125
189.77193	3433.5125
194.07331	4608.7125
198.37157	5928.6125
202.6667	7331.7125
206.9587	8739.0125
211.24758	10148.7125
215.53334	11578.0125
219.81599	13071.7125
224.09553	14686.5125
228.37195	16516.8125
232.64527	18492.6125
236.91549	20529.1125
241.18261	22474.0125
245.44663	24163.2125
249.70755	25708.5125
253.96539	26956.4125
258.22014	28064.0125
262.4718	28930.4125
266.72039	29548.4125
270.96589	29880.0125
275.20832	29804.8125
279.44768	29542.7125
283.68397	29217.5125
287.91719	28868.4125
292.14735	28817.1125
296.37445	28895.0125
300.59849	29253.9125
304.81948	29805.9125
309.03742	30185.1125
313.25231	30252.0125
317.46415	29747.0125
321.67296	28906.8125
325.87872	28065.9125
330.08145	27674.2125
334.28114	27639.2125
338.47781	27929.4125
342.67145	28397.1125
346.86207	29025.3125
351.04966	29899.0125
355.23424	30772.5125
359.4158	31381.2125
363.59435	31884.5125
367.76989	32163.8125
371.94243	32288.1125
376.11196	32363.0125
380.27849	32373.5125
384.44203	32530.6125
388.60257	32700.2125
392.76012	32913.5125
396.91468	33352.6125
401.06626	33864.8125
405.21485	34200.4125
409.36047	34028.5125
413.50311	33299.6125
417.64277	32627.8125
421.77947	32242.0125
425.9132	31997.4125
430.04396	31999.8125
434.17176	32090.0125
438.2966	32334.9125
442.41849	32772.2125
446.53742	33242.6125
450.6534	33779.7125
454.76644	34317.0125
458.87653	34526.5125
462.98368	34638.5125
467.08789	34592.6125
471.18916	34268.7125
475.2875	33770.7125
479.38291	33262.9125
483.4754	32949.5125
487.56496	32763.8125
491.6516	32631.9125
495.73531	32611.6125
499.81612	32674.6125
503.89401	33022.7125
507.96899	33217.3125
512.04106	33260.0125
516.11023	33345.7125
520.1765	33366.2125
524.23987	33273.7125
528.30034	33122.6125
532.35792	33047.8125
536.41261	32795.3125
540.46441	32575.3125
544.51333	32550.2125
548.55936	32790.3125
552.60252	33224.8125
556.64279	33734.1125
560.6802	34098.2125
564.71473	34412.4125
568.7464	34719.9125
572.7752	34864.8125
576.80114	34666.2125
580.82422	34614.8125
584.84444	34850.0125
588.86181	34894.9125
592.87633	34892.0125
596.888	35099.0125
600.89682	35996.2125
604.9028	38588.5125
608.90594	43976.5125
612.90624	49690.6125
616.90371	47150.8125
620.89834	38696.3125
624.89015	34739.7125
628.87913	34265.6125
632.86528	34839.6125
636.84862	35458.2125
640.82913	35075.3125
644.80683	34052.7125
648.78172	33286.6125
652.75379	33278.3125
656.72306	33832.6125
660.68952	34660.8125
664.65319	34601.3125
668.61405	34139.1125
672.57211	34274.6125
676.52738	34422.0125
680.47986	33996.8125
684.42955	33535.9125
688.37646	33386.8125
692.32058	33630.5125
696.26192	34057.1125
700.20048	34626.0125
704.13626	34783.4125
708.06928	34553.8125
711.99952	34269.2125
715.927	34093.5125
719.85171	34186.7125
723.77365	34184.1125
727.69284	33957.5125
731.60928	33688.0125
735.52295	33611.5125
739.43388	33570.9125
743.34206	33706.1125
747.24749	33758.7125
751.15017	33863.2125
755.05012	34146.3125
758.94733	35047.5125
762.8418	37123.4125
766.73354	40468.1125
770.62254	43543.4125
774.50882	44564.7125
778.39237	43428.2125
782.27321	40864.8125
786.15132	38021.1125
790.02671	35945.6125
793.89938	34733.8125
797.76935	34135.4125
801.6366	33809.8125
805.50115	33639.0125
809.36299	33553.0125
813.22213	33382.2125
817.07857	33327.8125
820.93231	33331.0125
824.78336	33369.2125
828.63172	33414.4125
832.47738	33404.4125
836.32036	33350.7125
840.16066	33183.7125
843.99827	33159.5125
847.8332	33174.1125
851.66546	33206.2125
855.49504	33292.8125
859.32195	33345.8125
863.1462	33375.5125
866.96777	33359.9125
870.78668	33362.2125
874.60293	33460.2125
878.41652	33567.7125
882.22745	33695.6125
886.03573	33846.8125
889.84136	33827.6125
893.64433	33770.4125
897.44466	33660.5125
901.24235	33607.7125
905.0374	33524.3125
908.8298	33433.1125
912.61957	33426.2125
916.40671	33429.0125
920.19121	33563.4125
923.97308	33663.6125
927.75233	33836.2125
931.52895	33845.1125
935.30295	33695.5125
939.07433	33314.2125
942.84309	32921.9125
946.60924	32680.0125
950.37278	32610.7125
954.13371	32645.7125
957.89203	32649.9125
961.64774	32643.9125
965.40086	32569.2125
969.15137	32567.1125
972.89929	32564.8125
976.64461	32485.8125
980.38733	32524.6125
984.12747	32547.4125
987.86502	32627.6125
991.59999	32860.7125
995.33237	32981.0125
999.06217	33213.4125
1002.78939	33579.7125
1006.51404	34005.8125
1010.23611	34520.8125
1013.95561	34856.0125
1017.67255	34953.2125
1021.38692	34850.2125
1025.09872	34548.4125
1028.80796	34211.1125
1032.51465	33945.4125
1036.21877	33958.2125
1039.92035	34044.2125
1043.61937	34222.9125
1047.31584	34304.2125
1051.00976	34522.3125
1054.70114	34668.9125
1058.38998	34858.3125
1062.07627	35186.9125
1065.76003	35534.8125
1069.44126	35915.6125
1073.11995	36634.6125
1076.79611	37467.9125
1080.46974	37979.4125
1084.14085	38253.3125
1087.80943	38510.7125
1091.47549	38662.4125
1095.13903	38724.2125
1098.80005	38708.4125
1102.45857	38733.4125
1106.11456	38515.6125
1109.76805	37967.7125
1113.41903	37579.6125
1117.06751	37759.2125
1120.71348	38169.4125
1124.35696	38617.7125
1127.99793	39106.1125
1131.63641	38908.0125
1135.2724	38244.0125
1138.90589	37705.2125
1142.5369	37372.4125
1146.16542	37008.5125
1149.79145	36815.8125
1153.415	36509.0125
1157.03607	36508.9125
1160.65467	36794.6125
1164.27079	37514.0125
1167.88443	38588.4125
1171.49561	40214.9125
1175.10432	42531.2125
1178.71056	45605.3125
1182.31434	48413.8125
1185.91565	49836.4125
1189.51451	50136.3125
1193.11091	49540.0125
1196.70485	48445.8125
1200.29634	47058.4125
1203.88538	45528.1125
1207.47197	43734.7125
1211.05612	42204.8125
1214.63782	40956.0125
1218.21708	39960.9125
1221.79391	39228.1125
1225.36829	38891.5125
1228.94024	38749.5125
1232.50976	38833.7125
1236.07685	38940.8125
1239.6415	39048.4125
1243.20374	39217.9125
1246.76355	39382.7125
1250.32093	39582.9125
1253.8759	39981.4125
1257.42845	40840.3125
1260.97859	41918.3125
1264.52631	43062.6125
1268.07163	43915.1125
1271.61453	44538.8125
1275.15503	44901.6125
1278.69312	45040.5125
1282.22882	45125.3125
1285.76211	45506.0125
1289.29301	46123.5125
1292.82151	46973.7125
1296.34761	47993.6125
1299.87133	49442.7125
1303.39266	51521.2125
1306.9116	54543.4125
1310.42815	57808.8125
1313.94233	59383.1125
1317.45412	58459.9125
1320.96354	56633.6125
1324.47058	54773.6125
1327.97525	53156.0125
1331.47754	51961.4125
1334.97747	51585.4125
1338.47502	51985.5125
1341.97022	53191.5125
1345.46305	55240.5125
1348.95352	57928.0125
1352.44163	60578.6125
1355.92738	62937.3125
1359.41078	65655.8125
1362.89183	68188.1125
1366.37053	66432.0125
1369.84688	59873.0125
1373.32088	52986.9125
1376.79254	48567.5125
1380.26186	46290.9125
1383.72883	44903.1125
1387.19347	43808.7125
1390.65578	42715.9125
1394.11575	41602.9125
1397.57339	40688.3125
1401.0287	40197.6125
1404.48168	40060.1125
1407.93234	40196.5125
1411.38068	40510.1125
1414.82669	40636.0125
1418.27039	40520.7125
1421.71177	40213.6125
1425.15083	39790.0125
1428.58758	39444.5125
1432.02203	39409.5125
1435.45416	39535.7125
1438.88399	39649.3125
1442.31151	39650.1125
1445.73673	39725.9125
1449.15965	39856.3125
1452.58027	39953.1125
1455.9986	39914.6125
1459.41463	40089.7125
1462.82837	40574.2125
1466.23982	41273.5125
1469.64898	42015.0125
1473.05586	42638.3125
1476.46045	43090.2125
1479.86276	43549.1125
1483.26279	44004.9125
1486.66054	44666.1125
1490.05602	45606.1125
1493.44922	47116.4125
1496.84016	49457.9125
1500.22882	53054.7125
1503.61521	57560.6125
1506.99934	61906.6125
1510.38121	64435.0125
1513.76081	63981.0125
1517.13816	60402.4125
1520.51324	55408.9125
1523.88607	51174.5125
1527.25665	48418.5125
1530.62498	46835.5125
1533.99105	45903.1125
1537.35488	45231.9125
1540.71647	44558.6125
1544.07581	43966.7125
1547.4329	43526.2125
1550.78776	43090.4125
1554.14038	42735.4125
1557.49077	42752.6125
1560.83892	43080.5125
1564.18484	43810.5125
1567.52853	44726.5125
1570.86999	45425.4125
1574.20922	45798.4125
1577.54624	45658.1125
1580.88103	44351.1125
1584.2136	42698.1125
1587.54395	41638.9125
1590.87208	41619.3125
1594.19801	42582.4125
1597.52172	44119.4125
1600.84321	44789.5125
1604.16251	44380.9125
1607.47959	43410.4125
1610.79447	42111.8125
1614.10715	40243.8125
1617.41763	38276.7125
1620.7259	36754.6125
1624.03199	35918.4125
1627.33587	35569.7125
1630.63757	35788.5125
1633.93707	36676.0125
1637.23439	38376.0125
1640.52951	41252.5125
1643.82246	45076.6125
1647.11321	49134.7125
1650.40179	51425.4125
1653.68819	50055.9125
1656.97241	45667.8125
1660.25446	40742.5125
1663.53433	37007.1125
1666.81203	34635.2125
1670.08756	33187.4125
1673.36092	32254.9125
1676.63211	31575.8125
1679.90115	31135.5125
1683.16801	30741.0125
1686.43272	30474.9125
1689.69527	30249.5125
1692.95567	30088.6125
1696.2139	29961.3125
1699.46999	29903.7125
1702.72392	29824.4125
1705.97571	29750.5125
1709.22535	29711.4125
1712.47284	29735.7125
1715.71819	29657.9125
1718.96139	29527.0125
1722.20246	29444.9125
1725.44139	29360.4125
1728.67818	29231.6125
1731.91284	29119.7125
1735.14537	28945.6125
1738.37576	28851.7125
1741.60403	28759.3125
1744.83017	28598.8125
1748.05418	28505.8125
1751.27607	28460.1125
1754.49584	28359.7125
1757.71349	28347.4125
1760.92903	28268.3125
1764.14244	28252.7125
1767.35375	28193.6125
1770.56294	28134.9125
1773.77002	28104.5125
1776.97499	28051.4125
1780.17785	28016.8125
1783.37861	27978.4125
1786.57727	27975.6125
1789.77382	27906.5125
1792.96828	27847.4125
1796.16064	27746.6125
1799.3509	27749.9125
1802.53907	27677.5125
1805.72514	27590.5125
1808.90913	27487.9125
1812.09102	27384.4125
1815.27083	27315.9125
1818.44856	27292.8125
1821.6242	27233.2125
1824.79776	27144.8125
1827.96924	27079.9125
1831.13864	27019.2125
1834.30597	27022.7125
1837.47122	26974.7125
1840.6344	26973.6125
1843.7955	26911.9125
1846.95454	26862.6125
1850.11151	26844.5125
1853.26642	26772.1125
1856.41926	26765.0125
1859.57004	26739.6125
1862.71876	26650.7125
1865.86542	26674.8125
1869.01003	26656.2125
1872.15258	26657.9125
1875.29308	26552.6125
1878.43152	26524.5125
1881.56792	26464.7125
1884.70227	26433.9125
1887.83457	26417.7125
1890.96482	26324.4125
1894.09304	26279.3125
1897.21921	26259.1125
1900.34335	26178.0125
1903.46544	26165.0125
1906.58551	26162.0125
1909.70353	26145.3125
1912.81953	26114.7125
1915.93349	26042.6125
1919.04543	25977.5125
1922.15534	25930.2125
1925.26322	25889.3125
1928.36908	25772.4125
1931.47292	25746.3125
1934.57473	25646.4125
1937.67453	25599.4125
1940.77232	25563.3125
1943.86808	25432.1125
1946.96184	25377.4125
1950.05358	25259.0125
1953.14331	25235.3125
1956.23103	25134.9125
1959.31675	25083.8125
1962.40046	24987.6125
1965.48217	24877.8125
1968.56188	24799.8125
1971.63959	24749.4125
1974.7153	24695.0125
1977.78901	24628.2125
1980.86073	24553.1125
1983.93046	24450.7125
1986.99819	24372.9125
1990.06394	24338.9125
1993.1277	24230.1125
1996.18947	24165.9125
1999.24925	24070.9125
2002.30706	24028.8125
2005.36288	23925.2125
2008.41672	23831.6125
2011.46859	23788.1125
2014.51848	23672.6125
2017.56639	23594.4125
2020.61233	23479.0125
2023.6563	23466.7125
2026.6983	23387.1125
2029.73833	23304.7125
2032.7764	23270.6125
2035.8125	23199.4125
2038.84664	23138.4125
2041.87881	23153.2125
2044.90903	23073.6125
2047.93729	22992.4125
2050.96359	22987.2125
2053.98794	22953.1125
2057.01034	22917.9125
2060.03078	22900.6125
2063.04927	22897.6125
2066.06582	22856.3125
2069.08042	22786.6125
2072.09307	22750.4125
2075.10378	22750.3125
2078.11255	22695.3125
2081.11938	22685.1125
2084.12426	22654.3125
2087.12722	22661.4125
2090.12824	22690.2125
2093.12732	22707.8125
2096.12447	22660.8125
2099.11969	22645.9125
2102.11299	22629.9125
2105.10435	22632.0125
2108.09379	22674.4125
2111.08131	22646.6125
2114.0669	22638.1125
2117.05057	22662.5125
2120.03233	22718.3125
2123.01216	22731.6125
2125.99008	22758.9125
2128.96609	22738.7125
2131.94018	22784.6125
2134.91236	22733.5125
2137.88263	22766.6125
2140.851	22748.9125
2143.81746	22732.8125
2146.78201	22742.3125
2149.74466	22765.0125
2152.7054	22765.8125
2155.66425	22739.6125
2158.6212	22732.6125
2161.57625	22700.0125
2164.52941	22659.5125
2167.48067	22673.8125
2170.43004	22638.8125
2173.37752	22611.3125
2176.32311	22583.7125
2179.26681	22584.6125
2182.20863	22560.9125
2185.14856	22562.8125
2188.08661	22545.8125
2191.02278	22471.2125
2193.95707	22488.0125
2196.88948	22469.8125
2199.82001	22445.1125
2202.74867	22454.3125
2205.67545	22428.8125
2208.60037	22399.5125
2211.52341	22341.3125
2214.44458	22268.9125
2217.36388	22228.0125
2220.28132	22167.0125
2223.1969	22096.0125
2226.11061	22085.5125
2229.02246	22049.0125
2231.93245	22017.0125
2234.84058	21970.1125
2237.74686	21915.5125
2240.65128	21882.6125
2243.55385	21857.8125
2246.45456	21796.8125
2249.35343	21788.2125
2252.25044	21777.5125
2255.14561	21755.8125
2258.03893	21730.2125
2260.93041	21673.4125
2263.82004	21619.8125
2266.70783	21610.3125
2269.59378	21535.5125
2272.4779	21499.7125
2275.36017	21423.6125
2278.24061	21397.5125
2281.11922	21339.7125
2283.996	21339.3125
2286.87094	21235.8125
2289.74405	21178.2125
2292.61534	21090.6125
2295.4848	21070.2125
2298.35243	21096.5125
2301.21824	21059.6125
2304.08223	21057.3125
2306.94439	21066.0125
2309.80474	21038.5125
2312.66327	20976.6125
2315.51999	20959.8125
2318.37489	20969.7125
2321.22797	20916.1125
2324.07925	20862.5125
2326.92871	20748.4125
2329.77637	20739.0125
2332.62222	20725.0125
2335.46626	20672.4125
2338.3085	20658.5125
2341.14893	20628.8125
2343.98756	20621.5125
2346.8244	20680.8125
2349.65943	20664.2125
2352.49267	20610.3125
2355.32411	20589.9125
2358.15376	20554.7125
2360.98161	20580.1125
2363.80768	20561.5125
2366.63195	20546.4125
2369.45444	20560.4125
2372.27514	20521.4125
2375.09405	20509.4125
2377.91118	20485.3125
2380.72652	20439.7125
2383.54009	20415.6125
2386.35187	20279.2125
2389.16188	20254.9125
2391.97011	20193.8125
2394.77657	20148.5125
2397.58125	20093.8125
2400.38416	20058.8125
2403.18529	20016.2125
2405.98466	19948.5125
2408.78226	19884.3125
2411.57809	19883.6125
2414.37216	19860.3125
2417.16446	19884.8125
2419.955	19868.7125
2422.74378	19906.3125
2425.5308	19869.8125
2428.31606	19791.2125
2431.09956	19795.2125
2433.88131	19775.3125
2436.6613	19763.0125
2439.43954	19777.3125
2442.21603	19720.0125
2444.99077	19682.3125
2447.76377	19686.8125
2450.53501	19681.6125
2453.30451	19663.1125
2456.07226	19624.6125
2458.83827	19562.7125
2461.60254	19532.2125
2464.36507	19516.6125
2467.12586	19504.6125
2469.88492	19477.1125
2472.64224	19477.1125
2475.39782	19487.9125
2478.15167	19499.9125
2480.90379	19446.2125
2483.65417	19452.3125
2486.40283	19461.1125
2489.14976	19417.0125
2491.89497	19443.9125
2494.63845	19428.9125
2497.3802	19383.3125
2500.12024	19363.3125
2502.85855	19311.4125
2505.59514	19298.6125
2508.33002	19275.1125
2511.06318	19218.4125
2513.79462	19178.0125
2516.52435	19146.1125
2519.25237	19152.5125
2521.97867	19096.0125
2524.70327	19034.9125
2527.42616	19012.3125
2530.14734	19025.0125
2532.86681	19005.8125
2535.58458	18933.5125
2538.30065	18892.3125
2541.01501	18914.9125
2543.72768	18890.6125
2546.43864	18833.6125
2549.14791	18827.0125
2551.85548	18798.1125
2554.56136	18734.4125
2557.26554	18723.9125
2559.96803	18682.7125
2562.66883	18683.1125
2565.36794	18614.3125
2568.06536	18596.2125
2570.7611	18555.9125
2573.45514	18509.5125
2576.14751	18446.9125
2578.83819	18476.2125
2581.52719	18421.1125
2584.21451	18377.5125
2586.90015	18319.1125
2589.58411	18297.5125
2592.2664	18272.3125
2594.94701	18253.8125
2597.62594	18173.9125
2600.30321	18169.3125
2602.9788	18143.5125
2605.65273	18085.3125
2608.32498	18124.0125
2610.99557	18089.9125
2613.66449	18064.4125
2616.33175	18052.2125
2618.99734	18072.7125
2621.66128	18064.2125
2624.32355	18005.1125
2626.98416	17938.9125
2629.64311	17887.4125
2632.30041	17875.1125
2634.95605	17859.4125
2637.61004	17841.2125
2640.26238	17819.1125
2642.91306	17798.1125
2645.56209	17809.0125
2648.20948	17793.4125
2650.85521	17746.1125
2653.4993	17684.1125
2656.14175	17694.4125
2658.78255	17669.1125
2661.42171	17636.5125
2664.05923	17700.6125
2666.6951	17723.2125
2669.32934	17777.5125
2671.96194	17756.6125
2674.59291	17727.0125
2677.22224	17685.7125
2679.84993	17705.9125
2682.476	17689.4125
2685.10043	17652.4125
2687.72324	17667.7125
2690.34441	17651.8125
2692.96396	17647.7125
2695.58188	17648.3125
2698.19818	17592.3125
2700.81285	17644.3125
2703.4259	17599.8125
2706.03733	17630.5125
2708.64714	17593.5125
2711.25533	17586.8125
2713.86191	17582.0125
2716.46687	17622.7125
2719.07021	17573.0125
2721.67194	17615.7125
2724.27206	17579.3125
2726.87057	17582.7125
2729.46747	17548.2125
2732.06276	17563.1125
2734.65644	17555.0125
2737.24852	17484.5125
2739.83899	17491.1125
2742.42786	17519.4125
2745.01513	17519.0125
2747.60079	17440.3125
2750.18486	17381.3125
2752.76733	17372.2125
2755.3482	17346.6125
2757.92747	17337.7125
2760.50515	17309.7125
2763.08123	17318.5125
2765.65573	17258.1125
2768.22863	17271.4125
2770.79994	17215.3125
2773.36967	17181.5125
2775.9378	17178.3125
2778.50435	17119.2125
2781.06932	17115.7125
2783.6327	17122.6125
2786.1945	17118.4125
2788.75471	17087.0125
2791.31335	16989.6125
2793.87041	16960.4125
2796.42589	16889.8125
2798.97979	16916.3125
2801.53212	16887.3125
2804.08288	16871.2125
2806.63206	16824.7125
2809.17967	16768.2125
2811.72571	16717.6125
2814.27018	16733.1125
2816.81308	16679.8125
2819.35442	16644.7125
2821.89419	16634.2125
2824.43239	16611.9125
2826.96904	16580.3125
2829.50412	16578.8125
2832.03763	16504.4125
2834.56959	16478.7125
2837.1	16475.4125
2839.62884	16404.7125
2842.15613	16392.8125
2844.68186	16417.7125
2847.20604	16363.5125
2849.72867	16364.7125
2852.24974	16320.8125
2854.76927	16297.9125
2857.28724	16301.1125
2859.80367	16316.7125
2862.31855	16303.5125
2864.83189	16270.4125
2867.34368	16219.9125
2869.85393	16224.3125
2872.36264	16214.6125
2874.8698	16199.0125
2877.37543	16131.9125
2879.87952	16126.4125
2882.38207	16093.9125
2884.88308	16093.9125
2887.38256	16100.7125
2889.88051	16055.4125
2892.37692	16063.0125
2894.8718	16044.9125
2897.36515	16041.0125
2899.85698	16010.6125
2902.34727	16086.1125
2904.83604	16055.5125
2907.32328	16150.3125
2909.809	16113.7125
2912.29319	16098.0125
2914.77587	16082.1125
2917.25702	16085.1125
2919.73665	16088.9125
2922.21476	16095.0125
2924.69136	16047.2125
2927.16644	16040.0125
2929.64	16021.0125
2932.11205	15987.4125
2934.58258	15904.2125
2937.05161	15943.1125
2939.51912	15931.3125
2941.98513	15898.7125
2944.44962	15865.8125
2946.91261	15828.5125
2949.37409	15824.2125
2951.83407	15825.6125
2954.29254	15807.2125
2956.74951	15819.4125
2959.20498	15827.4125
2961.65895	15749.7125
2964.11142	15775.9125
2966.56239	15718.1125
2969.01186	15744.1125
2971.45984	15730.5125
2973.90632	15745.0125
2976.35131	15708.6125
2978.7948	15672.6125
2981.23681	15627.1125
2983.67732	15632.1125
2986.11635	15574.4125
2988.55388	15534.5125
2990.98993	15544.9125
2993.4245	15497.5125
2995.85758	15466.4125
2998.28917	15467.8125
3000.71928	15458.9125
3003.14791	15383.3125
3005.57506	15377.7125
3008.00073	15294.0125
3010.42493	15275.2125
3012.84764	15286.0125
3015.26888	15257.4125
3017.68865	15217.8125
3020.10694	15183.5125
3022.52376	15094.7125
3024.9391	15113.3125
3027.35298	15071.6125
3029.76539	15037.8125
3032.17632	15027.9125
3034.5858	15011.6125
3036.9938	14966.0125
3039.40034	14983.2125
3041.80542	14934.8125
3044.20903	14916.4125
3046.61118	14888.5125
3049.01187	14831.6125
3051.4111	14844.5125
3053.80888	14804.1125
3056.20519	14795.9125
3058.60005	14735.5125
3060.99345	14703.8125
3063.3854	14683.4125
3065.7759	14645.0125
3068.16494	14626.1125
3070.55254	14607.8125
3072.93868	14581.6125
3075.32338	14498.6125
3077.70662	14472.1125
3080.08842	14431.8125
3082.46878	14428.4125
3084.84769	14419.0125
3087.22515	14408.6125
3089.60118	14441.0125
3091.97576	14401.9125
3094.3489	14416.6125
3096.72061	14391.0125
3099.09087	14372.7125
3101.4597	14330.8125
3103.82709	14361.0125
3106.19305	14321.3125
3108.55757	14317.8125
3110.92066	14275.1125
3113.28232	14282.7125
3115.64255	14221.4125
3118.00134	14239.5125
3120.35871	14202.2125
3122.71466	14190.8125
3125.06917	14088.9125
3127.42226	14072.4125
3129.77393	14089.8125
3132.12417	14040.1125
3134.47299	14057.5125
3136.82039	14041.9125
3139.16636	14016.6125
3141.51092	13994.7125
3143.85406	14023.3125
3146.19579	13987.2125
3148.53609	13996.0125
3150.87499	14035.0125
3153.21246	14070.4125
3155.54853	14045.2125
3157.88318	14023.9125
3160.21642	14058.4125
3162.54826	14025.7125
3164.87868	14021.1125
3167.2077	14008.5125
3169.5353	14005.3125
3171.86151	13986.3125
3174.18631	13985.0125
3176.5097	13992.7125
3178.83169	13933.1125
3181.15228	13910.9125
3183.47147	13860.4125
3185.78926	13819.0125
3188.10565	13823.7125
3190.42065	13819.8125
3192.73424	13821.7125
3195.04645	13780.1125
3197.35725	13767.3125
3199.66667	13770.4125
3201.97469	13745.8125
3204.28132	13769.3125
3206.58656	13767.6125
3208.8904	13774.5125
3211.19287	13792.1125
3213.49394	13774.8125
3215.79363	13760.8125
3218.09193	13745.6125
3220.38884	13769.2125
3222.68438	13751.4125
3224.97853	13755.7125
3227.2713	13745.9125
3229.56269	13752.2125
3231.8527	13752.4125
3234.14133	13696.3125
3236.42858	13674.7125
3238.71446	13661.7125
3240.99896	13573.4125
3243.28209	13546.0125
3245.56384	13540.4125
3247.84423	13527.0125
3250.12324	13448.8125
3252.40088	13451.3125
3254.67715	13444.0125
3256.95205	13462.0125
3259.22558	13449.5125
3261.49775	13410.7125
3263.76855	13435.9125
3266.03799	13406.2125
3268.30606	13391.0125
3270.57277	13391.2125
3272.83812	13341.8125
3275.10211	13284.8125
3277.36474	13273.0125
3279.62601	13256.9125
3281.88593	13219.7125
3284.14448	13254.5125
3286.40168	13214.2125
3288.65753	13182.2125
3290.91202	13207.1125
3293.16516	13178.9125
3295.41695	13136.7125
3297.66738	13036.5125
3299.91647	12993.2125
3302.16421	12925.0125
3304.4106	12852.5125
3306.65564	12792.9125
3308.89933	12683.7125
3311.14169	12619.9125
3313.38269	12511.0125
3315.62236	12445.8125
3317.86068	12331.1125
3320.09766	12262.0125
3322.3333	12156.6125
3324.5676	12110.6125
3326.80056	11939.8125
3329.03219	11886.2125
3331.26248	2.6125
3333.49143	-2.3875
3335.71905	-0.1875
