Data from AgNPs_UA_50uM_CRN_0uM_R6G_10uM_Q_RamanShift__36__12-53-11-800.txt Node

Date: Tue Jul 26 12:53:11 BST 2022
User: TCL
Spectrometer: QEP01345
Trigger mode: 4
Integration Time (sec): 7.000000E0
Scans to average: 10
Electric dark correction enabled: true
Nonlinearity correction enabled: false
Boxcar width: 0
XAxis mode: Raman Shifts
Number of Pixels in Spectrum: 1044
>>>>>Begin Spectral Data<<<<<
46.04893	0.5
50.45542	-0.4
54.85868	1
59.25871	-1
63.6555	80.8
68.04907	87.1
72.43941	89.6
76.82654	99.3
81.21044	98.8
85.59113	103.7
89.96862	108.1
94.34289	112.8
98.71396	114.5
103.08183	120.9
107.4465	118.9
111.80798	126.6
116.16626	124.9
120.52136	129.5
124.87327	131.2
129.222	140.2
133.56755	146
137.90993	155.9
142.24913	165.5
146.58517	184.8
150.91804	210.2
155.24774	237.6
159.57429	289.7
163.89768	365
168.21792	479.7
172.53501	656
176.84895	887.1
181.15975	1236.2
185.46741	1737.2
189.77193	2383.9
194.07331	3161.3
198.37157	4029.4
202.6667	4968.6
206.9587	5906.3
211.24758	6858.2
215.53334	7828.9
219.81599	8874.4
224.09553	10070
228.37195	11409.4
232.64527	12849.7
236.91549	14290.9
241.18261	15607.8
245.44663	16699.2
249.70755	17648.6
253.96539	18380.3
258.22014	19033.8
262.4718	19580.5
266.72039	19968.8
270.96589	20150
275.20832	19992.3
279.44768	19722
283.68397	19321
287.91719	19069
292.14735	18979.8
296.37445	19256.1
300.59849	19753.5
304.81948	20400.5
309.03742	20938.6
313.25231	21107.3
317.46415	20733.4
321.67296	20099.2
325.87872	19545.9
330.08145	19289.3
334.28114	19367.3
338.47781	19577.4
342.67145	19973.5
346.86207	20557.4
351.04966	21339.9
355.23424	22066.2
359.4158	22578.5
363.59435	22843.2
367.76989	22899.3
371.94243	22903.4
376.11196	22843.5
380.27849	22916.6
384.44203	23017.6
388.60257	23034.3
392.76012	23067.5
396.91468	23223
401.06626	23593.6
405.21485	23795
409.36047	23475.2
413.50311	22646.4
417.64277	21935
421.77947	21576.4
425.9132	21530.9
430.04396	21715.8
434.17176	22018.2
438.2966	22583.5
442.41849	23488
446.53742	24620.5
450.6534	25592.9
454.76644	26093.6
458.87653	25848.4
462.98368	25256.4
467.08789	24558.4
471.18916	23834
475.2875	23110.8
479.38291	22503.9
483.4754	21972.5
487.56496	21653.8
491.6516	21527.7
495.73531	21464.9
499.81612	21558.3
503.89401	21777.6
507.96899	21960.4
512.04106	22086.2
516.11023	22315.7
520.1765	22512
524.23987	22670.5
528.30034	22820.5
532.35792	22865.9
536.41261	22595.6
540.46441	22128.3
544.51333	21931.4
548.55936	22038.9
552.60252	22497.6
556.64279	23162.7
560.6802	23535.4
564.71473	23595.8
568.7464	23818.3
572.7752	23929.6
576.80114	23666.2
580.82422	23635.4
584.84444	24271.1
588.86181	25930
592.87633	28389
596.888	30208.1
600.89682	30190.6
604.9028	30616.2
608.90594	34413.1
612.90624	39218.8
616.90371	36278.5
620.89834	27966.8
624.89015	24360.6
628.87913	23891.5
632.86528	23959.8
636.84862	23964.8
640.82913	23512.3
644.80683	22726
648.78172	22274.6
652.75379	22394.1
656.72306	23090.9
660.68952	23725.2
664.65319	23365.8
668.61405	22634.6
672.57211	22387.5
676.52738	22444.7
680.47986	22242.8
684.42955	21904.7
688.37646	21833.2
692.32058	21993.8
696.26192	22290.4
700.20048	22658.2
704.13626	22890.4
708.06928	22696.4
711.99952	22502.7
715.927	22573.8
719.85171	22783.1
723.77365	22761.5
727.69284	22555.3
731.60928	22434
735.52295	22520.2
739.43388	22686.7
743.34206	22835.2
747.24749	22861.8
751.15017	22964.3
755.05012	23207.9
758.94733	24073.6
762.8418	26193.3
766.73354	29453.4
770.62254	32451.1
774.50882	33527.4
778.39237	32084.4
782.27321	28925.3
786.15132	25965.5
790.02671	24194.4
793.89938	23354.5
797.76935	22986.5
801.6366	22801.5
805.50115	22692.5
809.36299	22583.8
813.22213	22447.4
817.07857	22417.9
820.93231	22435.3
824.78336	22472.2
828.63172	22524.5
832.47738	22615.9
836.32036	22629
840.16066	22642.3
843.99827	22687.3
847.8332	22657.9
851.66546	22620.6
855.49504	22601.8
859.32195	22610.1
863.1462	22521.3
866.96777	22490.9
870.78668	22500.7
874.60293	22590.3
878.41652	22715.2
882.22745	22841.1
886.03573	22954.8
889.84136	22932.2
893.64433	22811.2
897.44466	22701.3
901.24235	22646.3
905.0374	22567.6
908.8298	22497.4
912.61957	22447.9
916.40671	22516.3
920.19121	22751.3
923.97308	22988.9
927.75233	23239.4
931.52895	23378.9
935.30295	23146.6
939.07433	22686
942.84309	22286.1
946.60924	22151.5
950.37278	22108.5
954.13371	22067.1
957.89203	21972.7
961.64774	21920.1
965.40086	21899
969.15137	21918
972.89929	21853.2
976.64461	21951.3
980.38733	22034.7
984.12747	22202.5
987.86502	22422.9
991.59999	22735.9
995.33237	23204
999.06217	23853.3
1002.78939	24534.7
1006.51404	25031.8
1010.23611	25400.4
1013.95561	25711.2
1017.67255	25837.4
1021.38692	25481.1
1025.09872	25002.4
1028.80796	24855.5
1032.51465	25162.9
1036.21877	25483.3
1039.92035	25508.1
1043.61937	25282.1
1047.31584	24834.2
1051.00976	24440.2
1054.70114	24171.7
1058.38998	24135.1
1062.07627	24152.9
1065.76003	24205.2
1069.44126	24329.2
1073.11995	24632.1
1076.79611	25072.8
1080.46974	25526
1084.14085	26070.7
1087.80943	26500.7
1091.47549	26606.3
1095.13903	26259.7
1098.80005	25678.5
1102.45857	25309.2
1106.11456	25241.9
1109.76805	25439.5
1113.41903	25815.7
1117.06751	26364.8
1120.71348	27048.4
1124.35696	27833.8
1127.99793	28306.8
1131.63641	28045.5
1135.2724	27260.7
1138.90589	26588.3
1142.5369	26171.3
1146.16542	25984.6
1149.79145	25859.9
1153.415	25889.5
1157.03607	25970.3
1160.65467	26353.5
1164.27079	27156.6
1167.88443	28581.4
1171.49561	30800.6
1175.10432	34161.3
1178.71056	38425.3
1182.31434	42015.7
1185.91565	43031.6
1189.51451	41495.1
1193.11091	38821.9
1196.70485	36145.4
1200.29634	34107.7
1203.88538	32475.7
1207.47197	30918.5
1211.05612	29795.5
1214.63782	29192.8
1218.21708	29306.3
1221.79391	29828.8
1225.36829	30430.5
1228.94024	30580.6
1232.50976	30036.3
1236.07685	29247.1
1239.6415	28796.8
1243.20374	28743.4
1246.76355	28851.9
1250.32093	29241.8
1253.8759	29741.6
1257.42845	30572.1
1260.97859	31541.7
1264.52631	32626.5
1268.07163	33664.7
1271.61453	34497.1
1275.15503	35171.3
1278.69312	35634.5
1282.22882	36320.5
1285.76211	37482.5
1289.29301	38891.5
1292.82151	40563.4
1296.34761	42424.3
1299.87133	44975.8
1303.39266	48456.9
1306.9116	53269.3
1310.42815	58305.5
1313.94233	60989.5
1317.45412	59589.8
1320.96354	55525.9
1324.47058	50808.1
1327.97525	46606.2
1331.47754	43927.2
1334.97747	42680.3
1338.47502	42391.6
1341.97022	42517.9
1345.46305	43274.4
1348.95352	45137.4
1352.44163	48434.7
1355.92738	53547
1359.41078	60300.5
1362.89183	65752.7
1366.37053	63940.6
1369.84688	55282.1
1373.32088	46235.7
1376.79254	40995
1380.26186	38945
1383.72883	38129.4
1387.19347	37156.8
1390.65578	35810.9
1394.11575	34990.6
1397.57339	34801
1401.0287	35033.1
1404.48168	35288.3
1407.93234	35280.8
1411.38068	35213.7
1414.82669	35023.8
1418.27039	34716.6
1421.71177	34142.8
1425.15083	33507.4
1428.58758	33381.6
1432.02203	34041.8
1435.45416	35007.4
1438.88399	35551.7
1442.31151	35605.8
1445.73673	35511.6
1449.15965	35371.8
1452.58027	34863.1
1455.9986	34108.9
1459.41463	33805.6
1462.82837	34102.5
1466.23982	34926
1469.64898	35947.9
1473.05586	36791.3
1476.46045	37500.9
1479.86276	38128
1483.26279	38564.7
1486.66054	39035
1490.05602	39792.6
1493.44922	40853
1496.84016	42167.8
1500.22882	44200.2
1503.61521	47260.3
1506.99934	50835.1
1510.38121	53461
1513.76081	53398
1517.13816	50105.5
1520.51324	45236.3
1523.88607	41243.6
1527.25665	39080.6
1530.62498	38177.8
1533.99105	37674.5
1537.35488	37069.2
1540.71647	36474.8
1544.07581	35882.9
1547.4329	35264.2
1550.78776	34679.2
1554.14038	34190.2
1557.49077	33879
1560.83892	33911.1
1564.18484	34492.3
1567.52853	35354.4
1570.86999	36104.6
1574.20922	36706.1
1577.54624	36562.7
1580.88103	35441.9
1584.2136	34083.7
1587.54395	33870.4
1590.87208	35256.7
1594.19801	38096.4
1597.52172	41713.7
1600.84321	43861.4
1604.16251	42938.7
1607.47959	39704.8
1610.79447	35698.8
1614.10715	32220.3
1617.41763	29825.3
1620.7259	28489
1624.03199	27919.6
1627.33587	28162
1630.63757	29068.1
1633.93707	30826
1637.23439	33838
1640.52951	38477.8
1643.82246	44475.5
1647.11321	49740.4
1650.40179	50906.5
1653.68819	46681.6
1656.97241	39577.5
1660.25446	33291
1663.53433	29172.9
1666.81203	26839
1670.08756	25446.3
1673.36092	24651.2
1676.63211	24114.6
1679.90115	23667.5
1683.16801	23361.4
1686.43272	23107.5
1689.69527	22945.7
1692.95567	22840.4
1696.2139	22708.2
1699.46999	22674
1702.72392	22600.8
1705.97571	22588.2
1709.22535	22516.6
1712.47284	22539.9
1715.71819	22570.6
1718.96139	22494.1
1722.20246	22405.3
1725.44139	22341.6
1728.67818	22232
1731.91284	22156.4
1735.14537	22039.7
1738.37576	21941.1
1741.60403	21885.1
1744.83017	21776.6
1748.05418	21765.3
1751.27607	21667.6
1754.49584	21663.8
1757.71349	21653.2
1760.92903	21663.1
1764.14244	21635.2
1767.35375	21631.1
1770.56294	21593
1773.77002	21518.1
1776.97499	21509.3
1780.17785	21504.1
1783.37861	21483.4
1786.57727	21459.3
1789.77382	21430
1792.96828	21398.5
1796.16064	21369.2
1799.3509	21369.6
1802.53907	21348.4
1805.72514	21322.9
1808.90913	21250.6
1812.09102	21179.7
1815.27083	21104.3
1818.44856	21071.9
1821.6242	21056.6
1824.79776	21050
1827.96924	20990.1
1831.13864	20972.7
1834.30597	20946.3
1837.47122	20955.8
1840.6344	20959
1843.7955	20924.5
1846.95454	20910.9
1850.11151	20924.3
1853.26642	20904.4
1856.41926	20865
1859.57004	20873.4
1862.71876	20868.7
1865.86542	20870.4
1869.01003	20873.7
1872.15258	20859.5
1875.29308	20859
1878.43152	20858.3
1881.56792	20871.5
1884.70227	20852.7
1887.83457	20824.2
1890.96482	20821
1894.09304	20789.1
1897.21921	20772.1
1900.34335	20767.3
1903.46544	20760.9
1906.58551	20744.2
1909.70353	20754.2
1912.81953	20821.7
1915.93349	20772.4
1919.04543	20735.4
1922.15534	20673.2
1925.26322	20613.4
1928.36908	20596.4
1931.47292	20565.5
1934.57473	20492.8
1937.67453	20445.8
1940.77232	20420.9
1943.86808	20344.9
1946.96184	20337.6
1950.05358	20279.4
1953.14331	20250.8
1956.23103	20234.7
1959.31675	20153.9
1962.40046	20088.7
1965.48217	20064.7
1968.56188	20020.5
1971.63959	19960
1974.7153	19882.7
1977.78901	19880.1
1980.86073	19807.7
1983.93046	19761
1986.99819	19675
1990.06394	19624.1
1993.1277	19568.5
1996.18947	19543.1
1999.24925	19452.8
2002.30706	19435.8
2005.36288	19409
2008.41672	19324.7
2011.46859	19275.9
2014.51848	19210.7
2017.56639	19159.5
2020.61233	19128.2
2023.6563	19101.9
2026.6983	19059.1
2029.73833	19044.7
2032.7764	19027.9
2035.8125	18983.4
2038.84664	18967.6
2041.87881	18980.2
2044.90903	18965.2
2047.93729	18910.7
2050.96359	18872
2053.98794	18871.3
2057.01034	18861.8
2060.03078	18854.1
2063.04927	18878.4
2066.06582	18864.1
2069.08042	18872.7
2072.09307	18821.8
2075.10378	18795.8
2078.11255	18736.2
2081.11938	18752.2
2084.12426	18748.6
2087.12722	18735.2
2090.12824	18781
2093.12732	18826.8
2096.12447	18781.1
2099.11969	18748.4
2102.11299	18769.9
2105.10435	18751.8
2108.09379	18799.5
2111.08131	18784.3
2114.0669	18775.6
2117.05057	18797.5
2120.03233	18842.6
2123.01216	18881
2125.99008	18886.1
2128.96609	18908.6
2131.94018	18916.7
2134.91236	18915.2
2137.88263	18972.5
2140.851	18925.2
2143.81746	18938.5
2146.78201	18937.7
2149.74466	18955.6
2152.7054	18985.9
2155.66425	18976.6
2158.6212	18946.8
2161.57625	18933
2164.52941	18947.7
2167.48067	18953.2
2170.43004	18953.6
2173.37752	18932.4
2176.32311	18925.3
2179.26681	18950.8
2182.20863	18915.6
2185.14856	18975.6
2188.08661	18962.6
2191.02278	18955.2
2193.95707	19013
2196.88948	18992.4
2199.82001	19000
2202.74867	19023.3
2205.67545	18994.9
2208.60037	18983.8
2211.52341	18935
2214.44458	18942.4
2217.36388	18903.3
2220.28132	18874.7
2223.1969	18814.5
2226.11061	18816.8
2229.02246	18780.5
2231.93245	18755.3
2234.84058	18726.5
2237.74686	18701.2
2240.65128	18713.1
2243.55385	18662.8
2246.45456	18672.6
2249.35343	18664.9
2252.25044	18647.1
2255.14561	18640.8
2258.03893	18651.5
2260.93041	18584.9
2263.82004	18535.3
2266.70783	18506.9
2269.59378	18447
2272.4779	18437.7
2275.36017	18391.1
2278.24061	18354.8
2281.11922	18330
2283.996	18250.3
2286.87094	18248.4
2289.74405	18220.4
2292.61534	18205
2295.4848	18187.3
2298.35243	18203.4
2301.21824	18207
2304.08223	18220.1
2306.94439	18244.1
2309.80474	18247
2312.66327	18257.3
2315.51999	18215
2318.37489	18231.4
2321.22797	18236.9
2324.07925	18197.4
2326.92871	18156.3
2329.77637	18091.2
2332.62222	18148
2335.46626	18146.1
2338.3085	18119.1
2341.14893	18088.6
2343.98756	18102.5
2346.8244	18129
2349.65943	18208.4
2352.49267	18171.7
2355.32411	18131.8
2358.15376	18116.4
2360.98161	18116.9
2363.80768	18116.3
2366.63195	18116.4
2369.45444	18077.1
2372.27514	18040.5
2375.09405	18033
2377.91118	18054.6
2380.72652	17990.7
2383.54009	17923.9
2386.35187	17904.2
2389.16188	17842
2391.97011	17794.9
2394.77657	17813.8
2397.58125	17762.1
2400.38416	17767.8
2403.18529	17699.4
2405.98466	17684
2408.78226	17630.9
2411.57809	17606.1
2414.37216	17608.7
2417.16446	17604
2419.955	17594
2422.74378	17618.7
2425.5308	17562.7
2428.31606	17572
2431.09956	17558.3
2433.88131	17529.4
2436.6613	17560.9
2439.43954	17571.9
2442.21603	17534.4
2444.99077	17529.7
2447.76377	17523.6
2450.53501	17521.8
2453.30451	17524.3
2456.07226	17537.9
2458.83827	17495.8
2461.60254	17478.6
2464.36507	17452.3
2467.12586	17457.8
2469.88492	17467
2472.64224	17497.1
2475.39782	17496
2478.15167	17492.9
2480.90379	17509.2
2483.65417	17513.2
2486.40283	17552.3
2489.14976	17585.5
2491.89497	17588.3
2494.63845	17591.2
2497.3802	17550.7
2500.12024	17529.9
2502.85855	17527
2505.59514	17497.7
2508.33002	17467.2
2511.06318	17431
2513.79462	17421.7
2516.52435	17395.3
2519.25237	17381.5
2521.97867	17330.4
2524.70327	17293.5
2527.42616	17273.1
2530.14734	17288.4
2532.86681	17301.8
2535.58458	17270.5
2538.30065	17250
2541.01501	17246.7
2543.72768	17264.2
2546.43864	17223
2549.14791	17202.3
2551.85548	17222.8
2554.56136	17190.2
2557.26554	17185.1
2559.96803	17178.8
2562.66883	17129.6
2565.36794	17133
2568.06536	17129.8
2570.7611	17101.5
2573.45514	17099.6
2576.14751	17078.9
2578.83819	17075.3
2581.52719	17021.8
2584.21451	17043.4
2586.90015	17008.3
2589.58411	16978.4
2592.2664	16985.4
2594.94701	16974.2
2597.62594	16973
2600.30321	16927.7
2602.9788	16932.9
2605.65273	16921.4
2608.32498	16963.8
2610.99557	16925.8
2613.66449	16948.1
2616.33175	16924.1
2618.99734	16968.8
2621.66128	16928.8
2624.32355	16900.5
2626.98416	16912.2
2629.64311	16881.5
2632.30041	16883.4
2634.95605	16887.6
2637.61004	16881.3
2640.26238	16842.8
2642.91306	16831.9
2645.56209	16804.8
2648.20948	16825.3
2650.85521	16761.5
2653.4993	16795.7
2656.14175	16806.2
2658.78255	16781.7
2661.42171	16781.3
2664.05923	16826.9
2666.6951	16831.1
2669.32934	16905.9
2671.96194	16901
2674.59291	16872.1
2677.22224	16869.4
2679.84993	16891.1
2682.476	16861.2
2685.10043	16846.1
2687.72324	16799.8
2690.34441	16788.8
2692.96396	16803.1
2695.58188	16759.4
2698.19818	16763.4
2700.81285	16792.5
2703.4259	16782.1
2706.03733	16771.6
2708.64714	16768.6
2711.25533	16796.4
2713.86191	16781.2
2716.46687	16829.6
2719.07021	16811.4
2721.67194	16871.4
2724.27206	16865.7
2726.87057	16844.3
2729.46747	16838.5
2732.06276	16832.3
2734.65644	16796
2737.24852	16845.2
2739.83899	16803.6
2742.42786	16851
2745.01513	16841.2
2747.60079	16774.5
2750.18486	16707.6
2752.76733	16749.5
2755.3482	16745.5
2757.92747	16729
2760.50515	16714.3
2763.08123	16733.4
2765.65573	16700.2
2768.22863	16759.7
2770.79994	16731.8
2773.36967	16719.4
2775.9378	16694.9
2778.50435	16688.9
2781.06932	16721
2783.6327	16688.5
2786.1945	16688.2
2788.75471	16692.4
2791.31335	16626.3
2793.87041	16583.5
2796.42589	16544.9
2798.97979	16567.1
2801.53212	16519.1
2804.08288	16478.7
2806.63206	16444.8
2809.17967	16434.5
2811.72571	16379
2814.27018	16393.1
2816.81308	16372.7
2819.35442	16387
2821.89419	16365.9
2824.43239	16375
2826.96904	16361.8
2829.50412	16363.9
2832.03763	16298
2834.56959	16280.2
2837.1	16270.6
2839.62884	16262.5
2842.15613	16263.6
2844.68186	16249.3
2847.20604	16232
2849.72867	16219
2852.24974	16208.1
2854.76927	16201.3
2857.28724	16165.9
2859.80367	16205.1
2862.31855	16206.1
2864.83189	16187.6
2867.34368	16156.3
2869.85393	16171.4
2872.36264	16146.1
2874.8698	16133
2877.37543	16107.5
2879.87952	16100.9
2882.38207	16101.7
2884.88308	16094.6
2887.38256	16119.1
2889.88051	16129.9
2892.37692	16148.6
2894.8718	16104.3
2897.36515	16106.1
2899.85698	16135.2
2902.34727	16184.1
2904.83604	16205.8
2907.32328	16278.4
2909.809	16248
2912.29319	16265.6
2914.77587	16229
2917.25702	16239.9
2919.73665	16235
2922.21476	16221.6
2924.69136	16189.3
2927.16644	16197.2
2929.64	16172.4
2932.11205	16142.9
2934.58258	16089.9
2937.05161	16094.2
2939.51912	16137
2941.98513	16094.4
2944.44962	16089.5
2946.91261	16025.8
2949.37409	16050.4
2951.83407	16056.3
2954.29254	16061.5
2956.74951	16087
2959.20498	16092.4
2961.65895	16046.3
2964.11142	16035
2966.56239	16014.3
2969.01186	16013.8
2971.45984	15983.7
2973.90632	16013.1
2976.35131	15942.6
2978.7948	15941.8
2981.23681	15895.5
2983.67732	15854.3
2986.11635	15848
2988.55388	15794.5
2990.98993	15776.6
2993.4245	15758.6
2995.85758	15748.7
2998.28917	15709.5
3000.71928	15684.5
3003.14791	15673.2
3005.57506	15651.6
3008.00073	15586.8
3010.42493	15599.7
3012.84764	15582.8
3015.26888	15576
3017.68865	15529.2
3020.10694	15535.6
3022.52376	15445.4
3024.9391	15425.3
3027.35298	15437.3
3029.76539	15395.6
3032.17632	15389
3034.5858	15380.7
3036.9938	15364.9
3039.40034	15345.2
3041.80542	15346.3
3044.20903	15347.1
3046.61118	15334.4
3049.01187	15285.3
3051.4111	15297.1
3053.80888	15265.4
3056.20519	15245.1
3058.60005	15203.9
3060.99345	15152.5
3063.3854	15143.7
3065.7759	15098.7
3068.16494	15129.3
3070.55254	15064.4
3072.93868	15031.2
3075.32338	14964.6
3077.70662	14967.2
3080.08842	14924.8
3082.46878	14925.4
3084.84769	14936.5
3087.22515	14891.8
3089.60118	14929.7
3091.97576	14920.1
3094.3489	14921.3
3096.72061	14918.8
3099.09087	14895.4
3101.4597	14886.3
3103.82709	14898.3
3106.19305	14869.8
3108.55757	14876.7
3110.92066	14839.9
3113.28232	14819.4
3115.64255	14787.3
3118.00134	14770
3120.35871	14758.2
3122.71466	14723.5
3125.06917	14679.3
3127.42226	14705.7
3129.77393	14697.7
3132.12417	14667.9
3134.47299	14672.1
3136.82039	14656.4
3139.16636	14675.2
3141.51092	14644.3
3143.85406	14654.8
3146.19579	14650.9
3148.53609	14641.4
3150.87499	14659.4
3153.21246	14677.1
3155.54853	14692.2
3157.88318	14666.6
3160.21642	14710.4
3162.54826	14684.8
3164.87868	14678.3
3167.2077	14654.4
3169.5353	14672.5
3171.86151	14659
3174.18631	14672.4
3176.5097	14678.8
3178.83169	14663.1
3181.15228	14646.7
3183.47147	14618.3
3185.78926	14588.6
3188.10565	14547.4
3190.42065	14559.4
3192.73424	14534.5
3195.04645	14553.1
3197.35725	14527.6
3199.66667	14534.7
3201.97469	14560.9
3204.28132	14514.8
3206.58656	14536.8
3208.8904	14547.4
3211.19287	14584.3
3213.49394	14545.7
3215.79363	14575.8
3218.09193	14595.3
3220.38884	14557.3
3222.68438	14578
3224.97853	14556.8
3227.2713	14609.3
3229.56269	14635
3231.8527	14622.4
3234.14133	14582.1
3236.42858	14555.2
3238.71446	14535.9
3240.99896	14481.2
3243.28209	14477.2
3245.56384	14465
3247.84423	14458.1
3250.12324	14431.4
3252.40088	14393.2
3254.67715	14370.4
3256.95205	14371
3259.22558	14361.4
3261.49775	14384.7
3263.76855	14403.5
3266.03799	14394.5
3268.30606	14367.5
3270.57277	14372.9
3272.83812	14337.2
3275.10211	14312.1
3277.36474	14282
3279.62601	14271.5
3281.88593	14262.9
3284.14448	14274.3
3286.40168	14255.7
3288.65753	14267.9
3290.91202	14252.3
3293.16516	14239.7
3295.41695	14226.9
3297.66738	14128.5
3299.91647	14097.7
3302.16421	14000.1
3304.4106	13944.1
3306.65564	13876.7
3308.89933	13764.1
3311.14169	13693.3
3313.38269	13561.7
3315.62236	13472.2
3317.86068	13367.2
3320.09766	13285.8
3322.3333	13189.7
3324.5676	13166.3
3326.80056	13000.4
3329.03219	12871.6
3331.26248	2.1
3333.49143	-1.4
3335.71905	-0.9
