Data from AgNPs_UA_0uM_CRN_0uM_R6G_10uM_Q_RamanShift__27__11-49-58-778.txt Node

Date: Wed Jul 13 11:49:58 BST 2022
User: TCL
Spectrometer: QEP01345
Trigger mode: 4
Integration Time (sec): 7.000000E0
Scans to average: 10
Electric dark correction enabled: true
Nonlinearity correction enabled: false
Boxcar width: 0
XAxis mode: Raman Shifts
Number of Pixels in Spectrum: 1044
>>>>>Begin Spectral Data<<<<<
46.04893	-0.9625
50.45542	-1.4625
54.85868	-0.6625
59.25871	-0.1625
63.6555	47.1375
68.04907	53.5375
72.43941	56.4375
76.82654	60.8375
81.21044	63.4375
85.59113	70.8375
89.96862	68.6375
94.34289	73.6375
98.71396	71.5375
103.08183	77.8375
107.4465	79.8375
111.80798	76.2375
116.16626	77.3375
120.52136	81.8375
124.87327	80.7375
129.222	81.0375
133.56755	83.6375
137.90993	87.9375
142.24913	90.8375
146.58517	97.1375
150.91804	103.4375
155.24774	114.1375
159.57429	135.5375
163.89768	167.7375
168.21792	213.8375
172.53501	279.0375
176.84895	375.0375
181.15975	516.7375
185.46741	707.6375
189.77193	955.2375
194.07331	1271.7375
198.37157	1628.8375
202.6667	1984.9375
206.9587	2363.9375
211.24758	2731.1375
215.53334	3123.3375
219.81599	3558.7375
224.09553	4063.7375
228.37195	4600.7375
232.64527	5182.4375
236.91549	5737.8375
241.18261	6271.2375
245.44663	6719.9375
249.70755	7097.5375
253.96539	7424.6375
258.22014	7675.9375
262.4718	7839.8375
266.72039	7905.3375
270.96589	7909.1375
275.20832	7815.7375
279.44768	7666.3375
283.68397	7548.0375
287.91719	7450.2375
292.14735	7447.5375
296.37445	7612.0375
300.59849	7843.8375
304.81948	8158.5375
309.03742	8396.8375
313.25231	8406.6375
317.46415	8115.6375
321.67296	7584.8375
325.87872	7166.9375
330.08145	6984.9375
334.28114	6986.9375
338.47781	7113.4375
342.67145	7321.2375
346.86207	7605.7375
351.04966	8056.1375
355.23424	8504.2375
359.4158	8820.5375
363.59435	8936.4375
367.76989	8927.7375
371.94243	8849.6375
376.11196	8801.9375
380.27849	8755.7375
384.44203	8648.2375
388.60257	8563.6375
392.76012	8564.3375
396.91468	8644.7375
401.06626	8873.5375
405.21485	8987.2375
409.36047	8779.6375
413.50311	8311.7375
417.64277	7937.6375
421.77947	7734.3375
425.9132	7693.4375
430.04396	7717.9375
434.17176	7791.5375
438.2966	7985.1375
442.41849	8275.2375
446.53742	8612.4375
450.6534	8919.9375
454.76644	9046.5375
458.87653	8970.7375
462.98368	8763.4375
467.08789	8509.1375
471.18916	8267.8375
475.2875	7995.9375
479.38291	7765.6375
483.4754	7624.3375
487.56496	7492.8375
491.6516	7405.6375
495.73531	7353.0375
499.81612	7366.0375
503.89401	7431.9375
507.96899	7542.8375
512.04106	7661.7375
516.11023	7792.5375
520.1765	7857.7375
524.23987	7849.1375
528.30034	7779.3375
532.35792	7677.3375
536.41261	7504.0375
540.46441	7314.4375
544.51333	7238.8375
548.55936	7259.6375
552.60252	7444.9375
556.64279	7659.4375
560.6802	7785.1375
564.71473	7954.9375
568.7464	8280.4375
572.7752	8427.8375
576.80114	8244.6375
580.82422	8047.6375
584.84444	8083.5375
588.86181	8325.9375
592.87633	8743.4375
596.888	9147.8375
600.89682	9481.3375
604.9028	10333.7375
608.90594	12791.2375
612.90624	15346.5375
616.90371	13764.8375
620.89834	9682.2375
624.89015	7993.2375
628.87913	7748.3375
632.86528	7818.0375
636.84862	7858.0375
640.82913	7626.3375
644.80683	7248.1375
648.78172	7026.7375
652.75379	7075.4375
656.72306	7377.7375
660.68952	7697.1375
664.65319	7539.5375
668.61405	7203.8375
672.57211	7084.1375
676.52738	7052.5375
680.47986	6988.3375
684.42955	6889.4375
688.37646	6845.3375
692.32058	6860.6375
696.26192	6973.4375
700.20048	7101.0375
704.13626	7143.3375
708.06928	7093.0375
711.99952	7008.2375
715.927	6973.3375
719.85171	7000.0375
723.77365	6987.7375
727.69284	6886.5375
731.60928	6853.1375
735.52295	6880.7375
739.43388	6916.8375
743.34206	6947.8375
747.24749	6981.1375
751.15017	7029.0375
755.05012	7191.8375
758.94733	7652.7375
762.8418	8691.2375
766.73354	10217.4375
770.62254	11553.0375
774.50882	12091.1375
778.39237	11396.4375
782.27321	9887.2375
786.15132	8393.1375
790.02671	7513.7375
793.89938	7128.6375
797.76935	6938.2375
801.6366	6848.9375
805.50115	6790.7375
809.36299	6734.3375
813.22213	6697.4375
817.07857	6667.3375
820.93231	6675.1375
824.78336	6692.9375
828.63172	6758.6375
832.47738	6760.5375
836.32036	6753.3375
840.16066	6722.2375
843.99827	6696.7375
847.8332	6639.7375
851.66546	6645.4375
855.49504	6635.8375
859.32195	6622.5375
863.1462	6585.3375
866.96777	6521.4375
870.78668	6531.4375
874.60293	6552.4375
878.41652	6602.9375
882.22745	6649.9375
886.03573	6683.3375
889.84136	6652.1375
893.64433	6610.3375
897.44466	6616.2375
901.24235	6597.7375
905.0374	6570.7375
908.8298	6517.2375
912.61957	6505.3375
916.40671	6523.9375
920.19121	6595.9375
923.97308	6700.2375
927.75233	6838.9375
931.52895	6900.6375
935.30295	6763.1375
939.07433	6519.6375
942.84309	6333.1375
946.60924	6252.5375
950.37278	6204.3375
954.13371	6189.7375
957.89203	6137.6375
961.64774	6119.0375
965.40086	6098.1375
969.15137	6063.1375
972.89929	6056.0375
976.64461	6056.5375
980.38733	6067.4375
984.12747	6073.4375
987.86502	6117.3375
991.59999	6183.5375
995.33237	6342.8375
999.06217	6569.3375
1002.78939	6830.9375
1006.51404	7029.4375
1010.23611	7162.5375
1013.95561	7254.0375
1017.67255	7223.2375
1021.38692	7087.1375
1025.09872	6889.6375
1028.80796	6835.2375
1032.51465	6898.3375
1036.21877	6962.6375
1039.92035	6980.2375
1043.61937	6969.6375
1047.31584	6879.6375
1051.00976	6781.9375
1054.70114	6720.4375
1058.38998	6708.6375
1062.07627	6745.2375
1065.76003	6754.9375
1069.44126	6786.6375
1073.11995	6893.4375
1076.79611	7055.2375
1080.46974	7210.5375
1084.14085	7456.8375
1087.80943	7661.9375
1091.47549	7686.9375
1095.13903	7468.4375
1098.80005	7186.7375
1102.45857	6998.9375
1106.11456	6941.4375
1109.76805	7010.2375
1113.41903	7191.3375
1117.06751	7453.5375
1120.71348	7827.7375
1124.35696	8241.6375
1127.99793	8501.0375
1131.63641	8297.4375
1135.2724	7861.3375
1138.90589	7484.5375
1142.5369	7254.8375
1146.16542	7151.1375
1149.79145	7099.1375
1153.415	7143.8375
1157.03607	7215.5375
1160.65467	7419.4375
1164.27079	7769.5375
1167.88443	8333.9375
1171.49561	9149.3375
1175.10432	10524.6375
1178.71056	12183.4375
1182.31434	13401.2375
1185.91565	13787.9375
1189.51451	13390.0375
1193.11091	12596.1375
1196.70485	11653.0375
1200.29634	10821.5375
1203.88538	10017.4375
1207.47197	9244.9375
1211.05612	8741.8375
1214.63782	8523.0375
1218.21708	8548.3375
1221.79391	8713.6375
1225.36829	8828.4375
1228.94024	8767.9375
1232.50976	8619.6375
1236.07685	8516.6375
1239.6415	8475.3375
1243.20374	8460.7375
1246.76355	8455.9375
1250.32093	8510.3375
1253.8759	8713.2375
1257.42845	8996.9375
1260.97859	9398.2375
1264.52631	9768.0375
1268.07163	10151.2375
1271.61453	10489.2375
1275.15503	10729.0375
1278.69312	10924.1375
1282.22882	11098.3375
1285.76211	11484.0375
1289.29301	11923.6375
1292.82151	12455.9375
1296.34761	13100.9375
1299.87133	13957.4375
1303.39266	15203.7375
1306.9116	17026.2375
1310.42815	18974.0375
1313.94233	19972.3375
1317.45412	19408.7375
1320.96354	17885.0375
1324.47058	16278.9375
1327.97525	15055.3375
1331.47754	14324.6375
1334.97747	14086.4375
1338.47502	14206.6375
1341.97022	14555.9375
1345.46305	15081.7375
1348.95352	15803.4375
1352.44163	16899.4375
1355.92738	18581.6375
1359.41078	20953.7375
1362.89183	22644.8375
1366.37053	21452.2375
1369.84688	18146.4375
1373.32088	15102.7375
1376.79254	13220.7375
1380.26186	12263.4375
1383.72883	11738.8375
1387.19347	11334.7375
1390.65578	10948.7375
1394.11575	10797.5375
1397.57339	10880.1375
1401.0287	11091.1375
1404.48168	11253.7375
1407.93234	11397.6375
1411.38068	11366.4375
1414.82669	11195.6375
1418.27039	10857.1375
1421.71177	10523.0375
1425.15083	10244.0375
1428.58758	10199.8375
1432.02203	10333.8375
1435.45416	10523.6375
1438.88399	10640.4375
1442.31151	10659.2375
1445.73673	10709.2375
1449.15965	10768.0375
1452.58027	10699.5375
1455.9986	10624.4375
1459.41463	10653.1375
1462.82837	10847.8375
1466.23982	11142.5375
1469.64898	11373.9375
1473.05586	11492.6375
1476.46045	11503.5375
1479.86276	11592.4375
1483.26279	11704.6375
1486.66054	11909.9375
1490.05602	12223.3375
1493.44922	12649.8375
1496.84016	13339.8375
1500.22882	14357.0375
1503.61521	15787.6375
1506.99934	17465.0375
1510.38121	18924.7375
1513.76081	19241.5375
1517.13816	18011.4375
1520.51324	15843.2375
1523.88607	13859.9375
1527.25665	12686.1375
1530.62498	12046.3375
1533.99105	11701.5375
1537.35488	11403.3375
1540.71647	11233.2375
1544.07581	11047.5375
1547.4329	10929.3375
1550.78776	10814.4375
1554.14038	10716.4375
1557.49077	10705.0375
1560.83892	10811.7375
1564.18484	11037.7375
1567.52853	11292.4375
1570.86999	11511.6375
1574.20922	11664.0375
1577.54624	11518.0375
1580.88103	11021.3375
1584.2136	10393.6375
1587.54395	10216.3375
1590.87208	10628.7375
1594.19801	11531.8375
1597.52172	12650.7375
1600.84321	13218.3375
1604.16251	12801.7375
1607.47959	11764.2375
1610.79447	10526.4375
1614.10715	9386.6375
1617.41763	8532.5375
1620.7259	7989.1375
1624.03199	7764.5375
1627.33587	7833.6375
1630.63757	8119.5375
1633.93707	8752.0375
1637.23439	9849.1375
1640.52951	11422.7375
1643.82246	13333.6375
1647.11321	14974.3375
1650.40179	15516.6375
1653.68819	14323.3375
1656.97241	12026.7375
1660.25446	9776.9375
1663.53433	8202.0375
1666.81203	7238.0375
1670.08756	6654.6375
1673.36092	6313.1375
1676.63211	6087.4375
1679.90115	5924.4375
1683.16801	5801.8375
1686.43272	5703.8375
1689.69527	5678.8375
1692.95567	5602.4375
1696.2139	5602.7375
1699.46999	5584.2375
1702.72392	5560.3375
1705.97571	5550.4375
1709.22535	5524.3375
1712.47284	5521.5375
1715.71819	5531.8375
1718.96139	5513.7375
1722.20246	5499.7375
1725.44139	5455.6375
1728.67818	5444.0375
1731.91284	5386.0375
1735.14537	5330.6375
1738.37576	5324.2375
1741.60403	5298.1375
1744.83017	5261.0375
1748.05418	5256.8375
1751.27607	5226.8375
1754.49584	5212.6375
1757.71349	5215.6375
1760.92903	5201.4375
1764.14244	5198.4375
1767.35375	5171.8375
1770.56294	5178.4375
1773.77002	5164.4375
1776.97499	5164.0375
1780.17785	5127.2375
1783.37861	5109.9375
1786.57727	5080.8375
1789.77382	5070.8375
1792.96828	5076.1375
1796.16064	5070.6375
1799.3509	5080.7375
1802.53907	5082.1375
1805.72514	5036.9375
1808.90913	5024.4375
1812.09102	5011.6375
1815.27083	4983.6375
1818.44856	4982.3375
1821.6242	4968.7375
1824.79776	4968.6375
1827.96924	4937.9375
1831.13864	4952.7375
1834.30597	4928.5375
1837.47122	4934.2375
1840.6344	4921.0375
1843.7955	4933.9375
1846.95454	4930.6375
1850.11151	4932.3375
1853.26642	4908.5375
1856.41926	4924.1375
1859.57004	4905.9375
1862.71876	4916.4375
1865.86542	4920.7375
1869.01003	4930.9375
1872.15258	4937.3375
1875.29308	4931.5375
1878.43152	4923.6375
1881.56792	4941.4375
1884.70227	4923.0375
1887.83457	4927.3375
1890.96482	4925.1375
1894.09304	4933.2375
1897.21921	4928.0375
1900.34335	4935.6375
1903.46544	4932.4375
1906.58551	4932.1375
1909.70353	4926.4375
1912.81953	4948.6375
1915.93349	4922.4375
1919.04543	4913.1375
1922.15534	4891.2375
1925.26322	4892.0375
1928.36908	4862.6375
1931.47292	4860.4375
1934.57473	4829.7375
1937.67453	4799.9375
1940.77232	4793.4375
1943.86808	4767.0375
1946.96184	4771.5375
1950.05358	4752.8375
1953.14331	4714.3375
1956.23103	4714.1375
1959.31675	4695.0375
1962.40046	4685.6375
1965.48217	4683.4375
1968.56188	4669.7375
1971.63959	4657.0375
1974.7153	4648.1375
1977.78901	4611.0375
1980.86073	4621.5375
1983.93046	4586.0375
1986.99819	4563.9375
1990.06394	4545.4375
1993.1277	4542.4375
1996.18947	4508.8375
1999.24925	4527.5375
2002.30706	4498.2375
2005.36288	4467.3375
2008.41672	4453.3375
2011.46859	4457.9375
2014.51848	4456.7375
2017.56639	4443.0375
2020.61233	4429.6375
2023.6563	4422.9375
2026.6983	4406.1375
2029.73833	4401.1375
2032.7764	4387.1375
2035.8125	4383.8375
2038.84664	4380.1375
2041.87881	4383.8375
2044.90903	4360.9375
2047.93729	4368.1375
2050.96359	4359.1375
2053.98794	4352.5375
2057.01034	4340.7375
2060.03078	4343.6375
2063.04927	4336.1375
2066.06582	4334.8375
2069.08042	4345.3375
2072.09307	4322.7375
2075.10378	4306.4375
2078.11255	4311.3375
2081.11938	4324.7375
2084.12426	4308.6375
2087.12722	4331.7375
2090.12824	4314.4375
2093.12732	4312.0375
2096.12447	4314.0375
2099.11969	4313.5375
2102.11299	4320.6375
2105.10435	4309.1375
2108.09379	4329.8375
2111.08131	4313.2375
2114.0669	4328.3375
2117.05057	4342.0375
2120.03233	4335.2375
2123.01216	4343.9375
2125.99008	4348.6375
2128.96609	4344.1375
2131.94018	4340.0375
2134.91236	4347.6375
2137.88263	4362.5375
2140.851	4359.7375
2143.81746	4345.5375
2146.78201	4362.4375
2149.74466	4341.3375
2152.7054	4348.8375
2155.66425	4340.3375
2158.6212	4334.5375
2161.57625	4330.7375
2164.52941	4337.8375
2167.48067	4330.4375
2170.43004	4338.3375
2173.37752	4337.7375
2176.32311	4323.7375
2179.26681	4355.4375
2182.20863	4342.0375
2185.14856	4351.8375
2188.08661	4345.0375
2191.02278	4346.4375
2193.95707	4336.5375
2196.88948	4345.8375
2199.82001	4348.8375
2202.74867	4341.2375
2205.67545	4323.4375
2208.60037	4314.3375
2211.52341	4316.7375
2214.44458	4321.8375
2217.36388	4310.0375
2220.28132	4314.3375
2223.1969	4304.5375
2226.11061	4289.6375
2229.02246	4278.9375
2231.93245	4273.3375
2234.84058	4260.7375
2237.74686	4278.3375
2240.65128	4259.5375
2243.55385	4265.3375
2246.45456	4262.1375
2249.35343	4256.3375
2252.25044	4266.0375
2255.14561	4275.4375
2258.03893	4247.6375
2260.93041	4259.7375
2263.82004	4243.7375
2266.70783	4240.3375
2269.59378	4215.5375
2272.4779	4210.6375
2275.36017	4201.1375
2278.24061	4185.7375
2281.11922	4185.4375
2283.996	4182.7375
2286.87094	4183.4375
2289.74405	4167.6375
2292.61534	4156.8375
2295.4848	4160.7375
2298.35243	4170.4375
2301.21824	4146.1375
2304.08223	4148.2375
2306.94439	4165.6375
2309.80474	4175.0375
2312.66327	4171.5375
2315.51999	4160.8375
2318.37489	4164.5375
2321.22797	4154.6375
2324.07925	4154.9375
2326.92871	4142.0375
2329.77637	4150.0375
2332.62222	4137.4375
2335.46626	4138.2375
2338.3085	4139.6375
2341.14893	4151.2375
2343.98756	4138.1375
2346.8244	4137.3375
2349.65943	4147.2375
2352.49267	4161.7375
2355.32411	4174.4375
2358.15376	4171.9375
2360.98161	4168.9375
2363.80768	4175.7375
2366.63195	4166.3375
2369.45444	4170.4375
2372.27514	4165.1375
2375.09405	4167.0375
2377.91118	4153.1375
2380.72652	4151.1375
2383.54009	4128.3375
2386.35187	4121.3375
2389.16188	4112.5375
2391.97011	4104.9375
2394.77657	4077.7375
2397.58125	4074.8375
2400.38416	4073.7375
2403.18529	4074.6375
2405.98466	4053.5375
2408.78226	4056.2375
2411.57809	4048.9375
2414.37216	4043.5375
2417.16446	4042.5375
2419.955	4024.4375
2422.74378	4038.1375
2425.5308	4038.5375
2428.31606	4043.0375
2431.09956	4050.4375
2433.88131	4038.8375
2436.6613	4048.2375
2439.43954	4032.6375
2442.21603	4041.5375
2444.99077	4050.5375
2447.76377	4057.5375
2450.53501	4056.2375
2453.30451	4057.5375
2456.07226	4047.4375
2458.83827	4037.7375
2461.60254	4042.0375
2464.36507	4055.4375
2467.12586	4055.2375
2469.88492	4065.2375
2472.64224	4054.1375
2475.39782	4064.0375
2478.15167	4070.7375
2480.90379	4086.0375
2483.65417	4084.1375
2486.40283	4087.0375
2489.14976	4104.0375
2491.89497	4100.4375
2494.63845	4105.7375
2497.3802	4106.9375
2500.12024	4118.6375
2502.85855	4111.0375
2505.59514	4094.0375
2508.33002	4068.3375
2511.06318	4071.1375
2513.79462	4050.4375
2516.52435	4057.6375
2519.25237	4067.0375
2521.97867	4043.0375
2524.70327	4034.2375
2527.42616	4031.6375
2530.14734	4027.1375
2532.86681	4014.9375
2535.58458	4028.2375
2538.30065	4027.7375
2541.01501	4030.9375
2543.72768	4025.4375
2546.43864	4012.5375
2549.14791	4026.7375
2551.85548	4036.3375
2554.56136	4018.1375
2557.26554	4028.3375
2559.96803	4019.3375
2562.66883	4016.5375
2565.36794	4011.9375
2568.06536	4009.0375
2570.7611	4000.8375
2573.45514	4001.8375
2576.14751	3998.6375
2578.83819	4004.6375
2581.52719	3994.7375
2584.21451	3992.0375
2586.90015	4003.9375
2589.58411	4005.4375
2592.2664	3995.9375
2594.94701	3995.0375
2597.62594	4006.5375
2600.30321	3996.3375
2602.9788	3991.8375
2605.65273	4000.7375
2608.32498	3985.4375
2610.99557	3979.4375
2613.66449	3991.8375
2616.33175	3991.4375
2618.99734	4003.7375
2621.66128	3994.5375
2624.32355	3998.6375
2626.98416	3992.7375
2629.64311	4000.5375
2632.30041	3997.3375
2634.95605	3997.9375
2637.61004	4006.0375
2640.26238	3979.8375
2642.91306	3980.5375
2645.56209	3976.1375
2648.20948	3970.7375
2650.85521	3977.3375
2653.4993	3956.3375
2656.14175	3970.4375
2658.78255	3981.0375
2661.42171	3982.7375
2664.05923	3991.7375
2666.6951	3990.1375
2669.32934	4018.4375
2671.96194	3995.7375
2674.59291	4013.0375
2677.22224	4012.3375
2679.84993	3997.2375
2682.476	4014.8375
2685.10043	4002.1375
2687.72324	3999.1375
2690.34441	4002.9375
2692.96396	3999.5375
2695.58188	4002.5375
2698.19818	3992.0375
2700.81285	4006.8375
2703.4259	3999.1375
2706.03733	4001.4375
2708.64714	4013.1375
2711.25533	4034.4375
2713.86191	4025.2375
2716.46687	4025.9375
2719.07021	4036.3375
2721.67194	4053.6375
2724.27206	4057.1375
2726.87057	4039.9375
2729.46747	4038.5375
2732.06276	4052.9375
2734.65644	4044.4375
2737.24852	4060.9375
2739.83899	4046.3375
2742.42786	4048.2375
2745.01513	4027.8375
2747.60079	4040.5375
2750.18486	4018.1375
2752.76733	4021.5375
2755.3482	4015.0375
2757.92747	4007.7375
2760.50515	4010.7375
2763.08123	4017.7375
2765.65573	4013.9375
2768.22863	4016.2375
2770.79994	4010.3375
2773.36967	4008.2375
2775.9378	4018.0375
2778.50435	4023.0375
2781.06932	4019.2375
2783.6327	4028.6375
2786.1945	4022.7375
2788.75471	4018.9375
2791.31335	4010.1375
2793.87041	4018.2375
2796.42589	4029.9375
2798.97979	4023.4375
2801.53212	4009.5375
2804.08288	4008.9375
2806.63206	4000.1375
2809.17967	3993.2375
2811.72571	3980.7375
2814.27018	3982.2375
2816.81308	3982.8375
2819.35442	3983.1375
2821.89419	3991.2375
2824.43239	3996.9375
2826.96904	3995.1375
2829.50412	4010.6375
2832.03763	3994.2375
2834.56959	3992.6375
2837.1	4003.5375
2839.62884	4012.1375
2842.15613	4014.2375
2844.68186	4044.2375
2847.20604	4074.1375
2849.72867	4089.9375
2852.24974	4092.1375
2854.76927	4102.2375
2857.28724	4095.8375
2859.80367	4100.4375
2862.31855	4099.8375
2864.83189	4082.1375
2867.34368	4077.2375
2869.85393	4074.3375
2872.36264	4070.8375
2874.8698	4059.2375
2877.37543	4070.0375
2879.87952	4057.2375
2882.38207	4050.6375
2884.88308	4050.7375
2887.38256	4058.9375
2889.88051	4056.4375
2892.37692	4062.6375
2894.8718	4066.9375
2897.36515	4065.7375
2899.85698	4078.9375
2902.34727	4076.5375
2904.83604	4096.4375
2907.32328	4080.9375
2909.809	4095.6375
2912.29319	4088.1375
2914.77587	4086.8375
2917.25702	4087.3375
2919.73665	4079.6375
2922.21476	4089.8375
2924.69136	4069.7375
2927.16644	4064.5375
2929.64	4060.4375
2932.11205	4051.8375
2934.58258	4035.6375
2937.05161	4046.6375
2939.51912	4035.5375
2941.98513	4016.5375
2944.44962	3986.3375
2946.91261	3953.5375
2949.37409	3970.8375
2951.83407	3954.6375
2954.29254	3953.0375
2956.74951	3959.3375
2959.20498	3930.1375
2961.65895	3943.1375
2964.11142	3930.7375
2966.56239	3917.3375
2969.01186	3911.8375
2971.45984	3913.2375
2973.90632	3901.7375
2976.35131	3902.0375
2978.7948	3885.3375
2981.23681	3873.9375
2983.67732	3870.4375
2986.11635	3843.5375
2988.55388	3846.2375
2990.98993	3839.0375
2993.4245	3831.8375
2995.85758	3811.7375
2998.28917	3788.4375
3000.71928	3801.2375
3003.14791	3783.7375
3005.57506	3784.3375
3008.00073	3784.7375
3010.42493	3778.6375
3012.84764	3780.6375
3015.26888	3773.7375
3017.68865	3756.4375
3020.10694	3751.0375
3022.52376	3735.9375
3024.9391	3735.5375
3027.35298	3736.8375
3029.76539	3733.6375
3032.17632	3747.2375
3034.5858	3726.8375
3036.9938	3732.1375
3039.40034	3724.9375
3041.80542	3713.9375
3044.20903	3712.2375
3046.61118	3703.6375
3049.01187	3694.1375
3051.4111	3707.6375
3053.80888	3703.5375
3056.20519	3698.4375
3058.60005	3687.2375
3060.99345	3683.8375
3063.3854	3649.9375
3065.7759	3645.2375
3068.16494	3652.6375
3070.55254	3623.7375
3072.93868	3640.5375
3075.32338	3630.2375
3077.70662	3620.7375
3080.08842	3611.7375
3082.46878	3619.5375
3084.84769	3591.9375
3087.22515	3604.8375
3089.60118	3597.6375
3091.97576	3603.3375
3094.3489	3611.0375
3096.72061	3598.0375
3099.09087	3601.9375
3101.4597	3614.1375
3103.82709	3607.4375
3106.19305	3607.8375
3108.55757	3604.5375
3110.92066	3594.5375
3113.28232	3594.4375
3115.64255	3591.2375
3118.00134	3577.4375
3120.35871	3585.1375
3122.71466	3594.5375
3125.06917	3586.4375
3127.42226	3576.9375
3129.77393	3585.6375
3132.12417	3577.3375
3134.47299	3581.5375
3136.82039	3568.5375
3139.16636	3579.7375
3141.51092	3577.1375
3143.85406	3590.9375
3146.19579	3606.8375
3148.53609	3595.5375
3150.87499	3625.5375
3153.21246	3601.9375
3155.54853	3604.7375
3157.88318	3614.9375
3160.21642	3629.0375
3162.54826	3624.4375
3164.87868	3627.5375
3167.2077	3641.2375
3169.5353	3621.8375
3171.86151	3637.0375
3174.18631	3633.0375
3176.5097	3645.0375
3178.83169	3645.5375
3181.15228	3643.4375
3183.47147	3639.8375
3185.78926	3650.0375
3188.10565	3644.8375
3190.42065	3622.4375
3192.73424	3646.9375
3195.04645	3649.5375
3197.35725	3648.0375
3199.66667	3661.3375
3201.97469	3641.9375
3204.28132	3652.5375
3206.58656	3646.6375
3208.8904	3662.5375
3211.19287	3668.2375
3213.49394	3665.6375
3215.79363	3674.5375
3218.09193	3683.2375
3220.38884	3680.0375
3222.68438	3701.0375
3224.97853	3679.8375
3227.2713	3688.9375
3229.56269	3685.2375
3231.8527	3683.4375
3234.14133	3678.0375
3236.42858	3661.8375
3238.71446	3689.7375
3240.99896	3668.8375
3243.28209	3663.8375
3245.56384	3657.1375
3247.84423	3655.2375
3250.12324	3652.6375
3252.40088	3650.4375
3254.67715	3651.4375
3256.95205	3649.6375
3259.22558	3653.6375
3261.49775	3636.6375
3263.76855	3655.8375
3266.03799	3652.4375
3268.30606	3654.2375
3270.57277	3633.7375
3272.83812	3628.1375
3275.10211	3616.0375
3277.36474	3616.9375
3279.62601	3616.3375
3281.88593	3612.3375
3284.14448	3609.2375
3286.40168	3603.4375
3288.65753	3612.9375
3290.91202	3602.5375
3293.16516	3613.8375
3295.41695	3598.6375
3297.66738	3592.9375
3299.91647	3558.5375
3302.16421	3555.7375
3304.4106	3530.7375
3306.65564	3503.2375
3308.89933	3482.8375
3311.14169	3470.5375
3313.38269	3429.3375
3315.62236	3423.0375
3317.86068	3387.9375
3320.09766	3382.5375
3322.3333	3337.4375
3324.5676	3321.5375
3326.80056	3278.5375
3329.03219	3264.3375
3331.26248	1.9375
3333.49143	1.1375
3335.71905	0.7375
