Data from AgNPs_APTES_FTO_UA_100uM_CRN_0uM_R6G_10uM_Scan_RamanShift__34__12-43-43-547.txt Node

Date: Thu Jun 23 12:43:43 BST 2022
User: TCL
Spectrometer: QEP01345
Trigger mode: 4
Integration Time (sec): 7.000000E0
Scans to average: 10
Electric dark correction enabled: true
Nonlinearity correction enabled: false
Boxcar width: 0
XAxis mode: Raman Shifts
Number of Pixels in Spectrum: 1044
>>>>>Begin Spectral Data<<<<<
46.04893	-1.9625
50.45542	-1.6625
54.85868	-1.5625
59.25871	-0.8625
63.6555	63.8375
68.04907	71.9375
72.43941	77.4375
76.82654	84.7375
81.21044	85.2375
85.59113	87.1375
89.96862	92.4375
94.34289	93.0375
98.71396	96.1375
103.08183	98.9375
107.4465	100.6375
111.80798	100.9375
116.16626	101.2375
120.52136	99.8375
124.87327	98.5375
129.222	96.7375
133.56755	100.0375
137.90993	103.2375
142.24913	100.7375
146.58517	102.2375
150.91804	104.7375
155.24774	110.5375
159.57429	115.8375
163.89768	128.5375
168.21792	154.6375
172.53501	189.2375
176.84895	228.8375
181.15975	310.1375
185.46741	411.9375
189.77193	548.4375
194.07331	718.6375
198.37157	909.0375
202.6667	1111.7375
206.9587	1308.6375
211.24758	1494.2375
215.53334	1667.1375
219.81599	1859.3375
224.09553	2064.0375
228.37195	2277.5375
232.64527	2521.8375
236.91549	2799.7375
241.18261	3075.9375
245.44663	3379.4375
249.70755	3648.3375
253.96539	3923.5375
258.22014	4137.2375
262.4718	4314.6375
266.72039	4428.3375
270.96589	4477.1375
275.20832	4502.3375
279.44768	4494.4375
283.68397	4456.0375
287.91719	4406.4375
292.14735	4366.0375
296.37445	4306.0375
300.59849	4294.7375
304.81948	4278.1375
309.03742	4291.7375
313.25231	4286.3375
317.46415	4286.5375
321.67296	4305.4375
325.87872	4363.2375
330.08145	4383.2375
334.28114	4461.2375
338.47781	4495.5375
342.67145	4560.3375
346.86207	4628.1375
351.04966	4710.4375
355.23424	4777.8375
359.4158	4847.6375
363.59435	4931.4375
367.76989	5016.6375
371.94243	5050.2375
376.11196	5133.1375
380.27849	5222.3375
384.44203	5288.2375
388.60257	5353.1375
392.76012	5420.4375
396.91468	5489.1375
401.06626	5535.9375
405.21485	5634.7375
409.36047	5676.4375
413.50311	5769.5375
417.64277	5835.1375
421.77947	5906.6375
425.9132	5984.3375
430.04396	6056.8375
434.17176	6127.2375
438.2966	6171.9375
442.41849	6241.8375
446.53742	6297.2375
450.6534	6358.4375
454.76644	6416.6375
458.87653	6475.0375
462.98368	6517.3375
467.08789	6539.6375
471.18916	6592.7375
475.2875	6639.9375
479.38291	6679.5375
483.4754	6722.0375
487.56496	6785.2375
491.6516	6817.3375
495.73531	6855.5375
499.81612	6875.5375
503.89401	6917.2375
507.96899	6958.7375
512.04106	6991.9375
516.11023	7032.3375
520.1765	7065.3375
524.23987	7120.2375
528.30034	7201.1375
532.35792	7254.9375
536.41261	7345.9375
540.46441	7408.2375
544.51333	7479.5375
548.55936	7571.2375
552.60252	7638.9375
556.64279	7691.1375
560.6802	7723.1375
564.71473	7782.1375
568.7464	7802.4375
572.7752	7838.9375
576.80114	7858.5375
580.82422	7884.5375
584.84444	7915.2375
588.86181	7956.0375
592.87633	7975.5375
596.888	8051.2375
600.89682	8048.0375
604.9028	8113.7375
608.90594	8150.7375
612.90624	8179.4375
616.90371	8228.4375
620.89834	8212.2375
624.89015	8236.9375
628.87913	8258.2375
632.86528	8308.8375
636.84862	8339.8375
640.82913	8392.0375
644.80683	8388.5375
648.78172	8431.1375
652.75379	8467.9375
656.72306	8520.1375
660.68952	8530.3375
664.65319	8575.1375
668.61405	8627.6375
672.57211	8661.0375
676.52738	8687.6375
680.47986	8749.4375
684.42955	8806.6375
688.37646	8841.3375
692.32058	8909.6375
696.26192	8945.8375
700.20048	8978.2375
704.13626	9063.1375
708.06928	9107.8375
711.99952	9143.8375
715.927	9171.6375
719.85171	9214.7375
723.77365	9234.2375
727.69284	9266.3375
731.60928	9308.2375
735.52295	9356.2375
739.43388	9395.8375
743.34206	9440.8375
747.24749	9473.5375
751.15017	9545.5375
755.05012	9582.8375
758.94733	9652.1375
762.8418	9692.1375
766.73354	9747.7375
770.62254	9835.7375
774.50882	9860.4375
778.39237	9916.1375
782.27321	9946.6375
786.15132	9992.7375
790.02671	9996.1375
793.89938	10000.3375
797.76935	10059.8375
801.6366	10124.4375
805.50115	10152.6375
809.36299	10172.7375
813.22213	10226.6375
817.07857	10304.3375
820.93231	10350.2375
824.78336	10387.6375
828.63172	10427.4375
832.47738	10478.2375
836.32036	10502.3375
840.16066	10553.0375
843.99827	10600.8375
847.8332	10630.2375
851.66546	10701.2375
855.49504	10740.1375
859.32195	10794.2375
863.1462	10874.5375
866.96777	10945.8375
870.78668	11000.4375
874.60293	11055.8375
878.41652	11157.1375
882.22745	11200.3375
886.03573	11204.5375
889.84136	11279.8375
893.64433	11321.4375
897.44466	11342.8375
901.24235	11369.3375
905.0374	11409.9375
908.8298	11451.8375
912.61957	11472.8375
916.40671	11545.2375
920.19121	11618.1375
923.97308	11640.5375
927.75233	11690.8375
931.52895	11741.2375
935.30295	11795.2375
939.07433	11827.6375
942.84309	11875.8375
946.60924	11921.8375
950.37278	11925.9375
954.13371	12000.9375
957.89203	12030.1375
961.64774	12036.2375
965.40086	12070.8375
969.15137	12096.1375
972.89929	12124.9375
976.64461	12183.2375
980.38733	12218.2375
984.12747	12244.8375
987.86502	12311.8375
991.59999	12388.6375
995.33237	12422.5375
999.06217	12482.9375
1002.78939	12567.3375
1006.51404	12619.1375
1010.23611	12685.1375
1013.95561	12720.0375
1017.67255	12809.9375
1021.38692	12862.6375
1025.09872	12931.2375
1028.80796	12979.5375
1032.51465	13071.2375
1036.21877	13144.3375
1039.92035	13223.4375
1043.61937	13295.4375
1047.31584	13397.5375
1051.00976	13476.7375
1054.70114	13550.6375
1058.38998	13625.7375
1062.07627	13734.6375
1065.76003	13838.8375
1069.44126	13938.7375
1073.11995	14015.3375
1076.79611	14108.6375
1080.46974	14190.6375
1084.14085	14262.4375
1087.80943	14328.5375
1091.47549	14376.0375
1095.13903	14450.5375
1098.80005	14512.1375
1102.45857	14551.3375
1106.11456	14584.7375
1109.76805	14642.7375
1113.41903	14679.6375
1117.06751	14677.9375
1120.71348	14737.2375
1124.35696	14769.6375
1127.99793	14804.2375
1131.63641	14848.8375
1135.2724	14884.9375
1138.90589	14892.3375
1142.5369	14932.4375
1146.16542	14932.8375
1149.79145	14946.2375
1153.415	14965.4375
1157.03607	15004.5375
1160.65467	15090.6375
1164.27079	15078.4375
1167.88443	15160.6375
1171.49561	15189.8375
1175.10432	15296.9375
1178.71056	15397.9375
1182.31434	15484.0375
1185.91565	15512.5375
1189.51451	15568.1375
1193.11091	15645.4375
1196.70485	15671.3375
1200.29634	15695.5375
1203.88538	15745.8375
1207.47197	15798.1375
1211.05612	15854.5375
1214.63782	15896.4375
1218.21708	15956.5375
1221.79391	15974.2375
1225.36829	16019.6375
1228.94024	16044.0375
1232.50976	16128.4375
1236.07685	16198.9375
1239.6415	16294.7375
1243.20374	16338.4375
1246.76355	16426.9375
1250.32093	16507.8375
1253.8759	16567.1375
1257.42845	16639.0375
1260.97859	16659.4375
1264.52631	16681.0375
1268.07163	16695.5375
1271.61453	16737.5375
1275.15503	16759.8375
1278.69312	16762.2375
1282.22882	16773.6375
1285.76211	16816.4375
1289.29301	16864.8375
1292.82151	16906.2375
1296.34761	16950.9375
1299.87133	17050.5375
1303.39266	17099.7375
1306.9116	17163.9375
1310.42815	17227.4375
1313.94233	17246.4375
1317.45412	17264.0375
1320.96354	17302.5375
1324.47058	17298.9375
1327.97525	17266.1375
1331.47754	17196.7375
1334.97747	17223.3375
1338.47502	17207.4375
1341.97022	17208.5375
1345.46305	17209.0375
1348.95352	17245.6375
1352.44163	17308.6375
1355.92738	17357.1375
1359.41078	17393.6375
1362.89183	17392.7375
1366.37053	17432.6375
1369.84688	17384.3375
1373.32088	17343.8375
1376.79254	17354.5375
1380.26186	17304.4375
1383.72883	17289.7375
1387.19347	17349.4375
1390.65578	17268.3375
1394.11575	17212.3375
1397.57339	17203.2375
1401.0287	17157.0375
1404.48168	17212.0375
1407.93234	17217.9375
1411.38068	17239.4375
1414.82669	17268.2375
1418.27039	17293.9375
1421.71177	17287.7375
1425.15083	17302.6375
1428.58758	17297.1375
1432.02203	17330.2375
1435.45416	17335.2375
1438.88399	17373.5375
1442.31151	17373.8375
1445.73673	17390.4375
1449.15965	17406.7375
1452.58027	17418.7375
1455.9986	17441.3375
1459.41463	17483.4375
1462.82837	17547.6375
1466.23982	17585.0375
1469.64898	17659.3375
1473.05586	17727.1375
1476.46045	17775.7375
1479.86276	17874.3375
1483.26279	17945.0375
1486.66054	18011.6375
1490.05602	18130.5375
1493.44922	18159.7375
1496.84016	18249.3375
1500.22882	18294.3375
1503.61521	18391.7375
1506.99934	18461.3375
1510.38121	18558.0375
1513.76081	18606.0375
1517.13816	18690.0375
1520.51324	18724.3375
1523.88607	18833.0375
1527.25665	18895.2375
1530.62498	18955.3375
1533.99105	19067.2375
1537.35488	19186.1375
1540.71647	19252.6375
1544.07581	19368.8375
1547.4329	19441.7375
1550.78776	19519.2375
1554.14038	19587.3375
1557.49077	19668.9375
1560.83892	19696.2375
1564.18484	19731.2375
1567.52853	19766.8375
1570.86999	19811.6375
1574.20922	19867.0375
1577.54624	19891.7375
1580.88103	20004.6375
1584.2136	20056.1375
1587.54395	20104.7375
1590.87208	20142.7375
1594.19801	20166.7375
1597.52172	20262.4375
1600.84321	20283.9375
1604.16251	20395.5375
1607.47959	20451.2375
1610.79447	20467.9375
1614.10715	20448.6375
1617.41763	20503.9375
1620.7259	20529.6375
1624.03199	20557.3375
1627.33587	20592.7375
1630.63757	20594.5375
1633.93707	20595.9375
1637.23439	20662.4375
1640.52951	20640.2375
1643.82246	20761.1375
1647.11321	20778.2375
1650.40179	20830.3375
1653.68819	20919.7375
1656.97241	20951.7375
1660.25446	21001.6375
1663.53433	21022.9375
1666.81203	21037.6375
1670.08756	20985.1375
1673.36092	20988.3375
1676.63211	21008.4375
1679.90115	21035.7375
1683.16801	21044.4375
1686.43272	21064.3375
1689.69527	21070.5375
1692.95567	21113.9375
1696.2139	21206.1375
1699.46999	21323.1375
1702.72392	21349.5375
1705.97571	21366.1375
1709.22535	21377.8375
1712.47284	21413.3375
1715.71819	21431.5375
1718.96139	21468.1375
1722.20246	21523.4375
1725.44139	21530.0375
1728.67818	21559.7375
1731.91284	21590.0375
1735.14537	21606.1375
1738.37576	21617.8375
1741.60403	21678.2375
1744.83017	21643.2375
1748.05418	21690.6375
1751.27607	21729.9375
1754.49584	21760.0375
1757.71349	21876.8375
1760.92903	21967.3375
1764.14244	22014.8375
1767.35375	22046.6375
1770.56294	22106.2375
1773.77002	22107.0375
1776.97499	22118.9375
1780.17785	22127.7375
1783.37861	22179.1375
1786.57727	22173.4375
1789.77382	22198.9375
1792.96828	22223.6375
1796.16064	22252.9375
1799.3509	22279.9375
1802.53907	22324.1375
1805.72514	22316.0375
1808.90913	22311.6375
1812.09102	22350.8375
1815.27083	22337.5375
1818.44856	22390.2375
1821.6242	22424.4375
1824.79776	22450.1375
1827.96924	22456.4375
1831.13864	22480.9375
1834.30597	22523.6375
1837.47122	22576.5375
1840.6344	22569.0375
1843.7955	22603.7375
1846.95454	22639.3375
1850.11151	22708.5375
1853.26642	22749.8375
1856.41926	22792.5375
1859.57004	22863.1375
1862.71876	22887.8375
1865.86542	22913.3375
1869.01003	22935.6375
1872.15258	22981.0375
1875.29308	23079.7375
1878.43152	23042.5375
1881.56792	23061.2375
1884.70227	23067.0375
1887.83457	23050.1375
1890.96482	23093.0375
1894.09304	23103.0375
1897.21921	23077.3375
1900.34335	23109.4375
1903.46544	23177.9375
1906.58551	23153.2375
1909.70353	23221.0375
1912.81953	23302.7375
1915.93349	23293.1375
1919.04543	23313.4375
1922.15534	23416.6375
1925.26322	23405.9375
1928.36908	23439.4375
1931.47292	23426.8375
1934.57473	23389.3375
1937.67453	23395.6375
1940.77232	23458.1375
1943.86808	23428.6375
1946.96184	23452.3375
1950.05358	23467.2375
1953.14331	23476.1375
1956.23103	23410.5375
1959.31675	23342.6375
1962.40046	23392.7375
1965.48217	23362.7375
1968.56188	23344.4375
1971.63959	23336.8375
1974.7153	23361.6375
1977.78901	23348.4375
1980.86073	23351.5375
1983.93046	23335.0375
1986.99819	23343.2375
1990.06394	23329.3375
1993.1277	23314.4375
1996.18947	23307.6375
1999.24925	23316.0375
2002.30706	23285.2375
2005.36288	23261.9375
2008.41672	23259.2375
2011.46859	23257.7375
2014.51848	23320.7375
2017.56639	23279.0375
2020.61233	23274.4375
2023.6563	23202.2375
2026.6983	23167.6375
2029.73833	23148.1375
2032.7764	23156.6375
2035.8125	23179.1375
2038.84664	23206.0375
2041.87881	23167.5375
2044.90903	23191.4375
2047.93729	23224.9375
2050.96359	23255.1375
2053.98794	23251.7375
2057.01034	23307.5375
2060.03078	23321.1375
2063.04927	23356.2375
2066.06582	23438.1375
2069.08042	23474.5375
2072.09307	23478.5375
2075.10378	23552.6375
2078.11255	23540.5375
2081.11938	23594.0375
2084.12426	23682.3375
2087.12722	23687.1375
2090.12824	23692.5375
2093.12732	23756.8375
2096.12447	23820.7375
2099.11969	23856.8375
2102.11299	23862.0375
2105.10435	23966.1375
2108.09379	24029.2375
2111.08131	24090.5375
2114.0669	24166.8375
2117.05057	24263.7375
2120.03233	24344.6375
2123.01216	24407.7375
2125.99008	24485.1375
2128.96609	24540.2375
2131.94018	24629.6375
2134.91236	24692.1375
2137.88263	24790.8375
2140.851	24854.1375
2143.81746	24869.6375
2146.78201	24913.2375
2149.74466	24986.5375
2152.7054	25080.4375
2155.66425	25188.6375
2158.6212	25184.9375
2161.57625	25197.6375
2164.52941	25219.1375
2167.48067	25260.0375
2170.43004	25348.2375
2173.37752	25442.0375
2176.32311	25509.6375
2179.26681	25554.9375
2182.20863	25560.7375
2185.14856	25608.1375
2188.08661	25680.3375
2191.02278	25736.0375
2193.95707	25768.1375
2196.88948	25782.0375
2199.82001	25846.5375
2202.74867	25832.7375
2205.67545	25820.6375
2208.60037	25839.4375
2211.52341	25846.3375
2214.44458	25864.5375
2217.36388	25837.5375
2220.28132	25873.3375
2223.1969	25872.9375
2226.11061	25877.1375
2229.02246	25867.6375
2231.93245	25898.7375
2234.84058	25888.8375
2237.74686	25927.7375
2240.65128	25989.8375
2243.55385	25965.1375
2246.45456	26026.7375
2249.35343	26033.2375
2252.25044	26028.0375
2255.14561	26072.6375
2258.03893	26126.0375
2260.93041	26158.4375
2263.82004	26141.1375
2266.70783	26133.5375
2269.59378	26077.0375
2272.4779	26090.3375
2275.36017	26091.8375
2278.24061	26106.7375
2281.11922	26040.0375
2283.996	26087.7375
2286.87094	26121.9375
2289.74405	26141.6375
2292.61534	26151.9375
2295.4848	26141.8375
2298.35243	26199.1375
2301.21824	26199.4375
2304.08223	26244.2375
2306.94439	26314.2375
2309.80474	26311.9375
2312.66327	26357.9375
2315.51999	26427.3375
2318.37489	26396.5375
2321.22797	26393.3375
2324.07925	26414.8375
2326.92871	26378.1375
2329.77637	26397.6375
2332.62222	26411.5375
2335.46626	26432.3375
2338.3085	26379.9375
2341.14893	26432.2375
2343.98756	26473.9375
2346.8244	26479.4375
2349.65943	26484.8375
2352.49267	26473.4375
2355.32411	26541.8375
2358.15376	26525.2375
2360.98161	26615.5375
2363.80768	26605.5375
2366.63195	26680.1375
2369.45444	26694.6375
2372.27514	26685.5375
2375.09405	26723.7375
2377.91118	26776.3375
2380.72652	26763.9375
2383.54009	26739.3375
2386.35187	26732.0375
2389.16188	26694.3375
2391.97011	26669.4375
2394.77657	26689.4375
2397.58125	26672.3375
2400.38416	26654.3375
2403.18529	26654.1375
2405.98466	26711.1375
2408.78226	26739.1375
2411.57809	26789.5375
2414.37216	26842.7375
2417.16446	26878.4375
2419.955	26848.5375
2422.74378	26862.4375
2425.5308	26887.1375
2428.31606	26945.1375
2431.09956	26993.9375
2433.88131	26968.4375
2436.6613	27000.8375
2439.43954	27001.4375
2442.21603	27005.7375
2444.99077	26968.9375
2447.76377	27007.7375
2450.53501	27061.7375
2453.30451	27061.7375
2456.07226	27040.5375
2458.83827	27067.9375
2461.60254	27068.9375
2464.36507	27078.9375
2467.12586	27081.2375
2469.88492	27098.7375
2472.64224	27101.8375
2475.39782	27091.6375
2478.15167	27169.8375
2480.90379	27192.8375
2483.65417	27234.2375
2486.40283	27260.0375
2489.14976	27311.7375
2491.89497	27360.0375
2494.63845	27425.8375
2497.3802	27405.4375
2500.12024	27394.9375
2502.85855	27391.0375
2505.59514	27390.5375
2508.33002	27379.2375
2511.06318	27410.3375
2513.79462	27367.9375
2516.52435	27378.5375
2519.25237	27369.5375
2521.97867	27360.7375
2524.70327	27427.0375
2527.42616	27433.7375
2530.14734	27470.0375
2532.86681	27513.0375
2535.58458	27559.5375
2538.30065	27615.3375
2541.01501	27573.3375
2543.72768	27637.2375
2546.43864	27631.2375
2549.14791	27614.8375
2551.85548	27628.1375
2554.56136	27579.3375
2557.26554	27541.7375
2559.96803	27506.5375
2562.66883	27490.9375
2565.36794	27511.1375
2568.06536	27473.7375
2570.7611	27424.2375
2573.45514	27418.9375
2576.14751	27443.8375
2578.83819	27440.9375
2581.52719	27431.2375
2584.21451	27415.7375
2586.90015	27434.7375
2589.58411	27377.1375
2592.2664	27372.8375
2594.94701	27392.4375
2597.62594	27380.3375
2600.30321	27408.7375
2602.9788	27352.8375
2605.65273	27360.7375
2608.32498	27396.8375
2610.99557	27459.3375
2613.66449	27494.3375
2616.33175	27442.0375
2618.99734	27388.4375
2621.66128	27352.0375
2624.32355	27382.9375
2626.98416	27361.5375
2629.64311	27329.8375
2632.30041	27290.4375
2634.95605	27228.4375
2637.61004	27253.6375
2640.26238	27255.8375
2642.91306	27331.5375
2645.56209	27255.1375
2648.20948	27330.1375
2650.85521	27311.1375
2653.4993	27375.3375
2656.14175	27361.8375
2658.78255	27432.7375
2661.42171	27485.5375
2664.05923	27483.1375
2666.6951	27529.4375
2669.32934	27546.7375
2671.96194	27606.7375
2674.59291	27651.9375
2677.22224	27653.4375
2679.84993	27658.2375
2682.476	27667.3375
2685.10043	27698.4375
2687.72324	27723.5375
2690.34441	27779.2375
2692.96396	27801.9375
2695.58188	27811.1375
2698.19818	27835.1375
2700.81285	27874.2375
2703.4259	27897.3375
2706.03733	27996.6375
2708.64714	27940.7375
2711.25533	27949.1375
2713.86191	28007.4375
2716.46687	28156.6375
2719.07021	28113.8375
2721.67194	28205.6375
2724.27206	28244.9375
2726.87057	28286.4375
2729.46747	28314.9375
2732.06276	28374.3375
2734.65644	28380.2375
2737.24852	28383.1375
2739.83899	28342.0375
2742.42786	28457.7375
2745.01513	28387.6375
2747.60079	28441.8375
2750.18486	28427.6375
2752.76733	28424.0375
2755.3482	28398.6375
2757.92747	28415.9375
2760.50515	28374.6375
2763.08123	28342.2375
2765.65573	28354.2375
2768.22863	28290.5375
2770.79994	28293.7375
2773.36967	28346.5375
2775.9378	28326.4375
2778.50435	28328.7375
2781.06932	28312.9375
2783.6327	28369.8375
2786.1945	28498.3375
2788.75471	28502.5375
2791.31335	28406.1375
2793.87041	28381.7375
2796.42589	28319.5375
2798.97979	28312.2375
2801.53212	28279.1375
2804.08288	28260.6375
2806.63206	28184.9375
2809.17967	28171.1375
2811.72571	28121.0375
2814.27018	28082.1375
2816.81308	28004.9375
2819.35442	28021.1375
2821.89419	27945.6375
2824.43239	27945.6375
2826.96904	27912.4375
2829.50412	27955.1375
2832.03763	27959.4375
2834.56959	27952.1375
2837.1	27940.2375
2839.62884	27967.3375
2842.15613	27971.8375
2844.68186	28039.5375
2847.20604	28018.1375
2849.72867	28037.0375
2852.24974	28001.7375
2854.76927	28024.7375
2857.28724	27974.9375
2859.80367	27913.5375
2862.31855	27905.9375
2864.83189	27877.9375
2867.34368	27873.4375
2869.85393	27887.9375
2872.36264	27877.6375
2874.8698	27911.6375
2877.37543	27925.7375
2879.87952	27956.6375
2882.38207	27910.8375
2884.88308	27906.7375
2887.38256	27943.1375
2889.88051	27928.4375
2892.37692	27981.1375
2894.8718	28064.1375
2897.36515	28141.2375
2899.85698	28146.8375
2902.34727	28159.1375
2904.83604	28215.0375
2907.32328	28322.5375
2909.809	28357.0375
2912.29319	28397.7375
2914.77587	28415.1375
2917.25702	28420.1375
2919.73665	28413.9375
2922.21476	28471.0375
2924.69136	28448.8375
2927.16644	28482.8375
2929.64	28492.1375
2932.11205	28489.4375
2934.58258	28424.5375
2937.05161	28454.8375
2939.51912	28493.2375
2941.98513	28527.0375
2944.44962	28534.4375
2946.91261	28463.7375
2949.37409	28556.2375
2951.83407	28592.5375
2954.29254	28582.1375
2956.74951	28702.3375
2959.20498	28752.1375
2961.65895	28706.9375
2964.11142	28819.2375
2966.56239	28823.4375
2969.01186	28896.2375
2971.45984	28891.4375
2973.90632	28931.7375
2976.35131	28939.5375
2978.7948	28928.2375
2981.23681	28868.4375
2983.67732	28942.8375
2986.11635	28911.7375
2988.55388	28825.6375
2990.98993	28773.0375
2993.4245	28767.4375
2995.85758	28785.7375
2998.28917	28750.4375
3000.71928	28684.6375
3003.14791	28651.2375
3005.57506	28679.1375
3008.00073	28607.0375
3010.42493	28593.9375
3012.84764	28603.5375
3015.26888	28647.7375
3017.68865	28558.1375
3020.10694	28561.2375
3022.52376	28528.1375
3024.9391	28553.9375
3027.35298	28569.4375
3029.76539	28559.1375
3032.17632	28646.2375
3034.5858	28631.7375
3036.9938	28645.3375
3039.40034	28687.5375
3041.80542	28626.5375
3044.20903	28671.5375
3046.61118	28694.7375
3049.01187	28709.2375
3051.4111	28725.0375
3053.80888	28680.5375
3056.20519	28653.9375
3058.60005	28508.7375
3060.99345	28511.7375
3063.3854	28540.1375
3065.7759	28480.8375
3068.16494	28465.2375
3070.55254	28405.2375
3072.93868	28378.3375
3075.32338	28328.9375
3077.70662	28325.1375
3080.08842	28326.8375
3082.46878	28293.6375
3084.84769	28273.8375
3087.22515	28254.9375
3089.60118	28305.1375
3091.97576	28418.4375
3094.3489	28444.7375
3096.72061	28499.7375
3099.09087	28541.7375
3101.4597	28582.2375
3103.82709	28708.1375
3106.19305	28731.8375
3108.55757	28732.9375
3110.92066	28686.3375
3113.28232	28772.0375
3115.64255	28736.3375
3118.00134	28780.7375
3120.35871	28768.3375
3122.71466	28718.5375
3125.06917	28637.4375
3127.42226	28599.6375
3129.77393	28654.2375
3132.12417	28606.7375
3134.47299	28693.6375
3136.82039	28622.8375
3139.16636	28637.8375
3141.51092	28664.7375
3143.85406	28741.9375
3146.19579	28749.4375
3148.53609	28809.6375
3150.87499	28886.7375
3153.21246	28961.9375
3155.54853	29023.2375
3157.88318	29062.9375
3160.21642	29137.9375
3162.54826	29207.1375
3164.87868	29212.3375
3167.2077	29282.4375
3169.5353	29345.0375
3171.86151	29401.6375
3174.18631	29430.6375
3176.5097	29490.8375
3178.83169	29442.6375
3181.15228	29493.7375
3183.47147	29407.3375
3185.78926	29462.8375
3188.10565	29396.4375
3190.42065	29379.2375
3192.73424	29344.3375
3195.04645	29331.6375
3197.35725	29330.2375
3199.66667	29352.5375
3201.97469	29392.4375
3204.28132	29380.3375
3206.58656	29433.3375
3208.8904	29494.3375
3211.19287	29554.6375
3213.49394	29565.2375
3215.79363	29625.1375
3218.09193	29724.4375
3220.38884	29783.7375
3222.68438	29847.7375
3224.97853	29841.7375
3227.2713	29849.6375
3229.56269	29817.3375
3231.8527	29813.1375
3234.14133	29746.7375
3236.42858	29704.7375
3238.71446	29730.7375
3240.99896	29657.4375
3243.28209	29623.0375
3245.56384	29583.6375
3247.84423	29509.2375
3250.12324	29560.5375
3252.40088	29526.4375
3254.67715	29542.9375
3256.95205	29514.3375
3259.22558	29579.2375
3261.49775	29554.4375
3263.76855	29628.3375
3266.03799	29628.2375
3268.30606	29693.6375
3270.57277	29641.1375
3272.83812	29480.6375
3275.10211	29445.7375
3277.36474	29358.2375
3279.62601	29318.9375
3281.88593	29269.1375
3284.14448	29282.5375
3286.40168	29294.1375
3288.65753	29287.6375
3290.91202	29319.2375
3293.16516	29265.7375
3295.41695	29254.9375
3297.66738	29127.7375
3299.91647	29019.4375
3302.16421	28761.8375
3304.4106	28581.7375
3306.65564	28381.5375
3308.89933	28140.4375
3311.14169	27896.6375
3313.38269	27695.2375
3315.62236	27558.5375
3317.86068	27339.1375
3320.09766	27200.8375
3322.3333	26998.2375
3324.5676	26766.3375
3326.80056	26438.3375
3329.03219	26207.1375
3331.26248	5.6375
3333.49143	1.2375
3335.71905	-0.3625
