Data from AgNPs_APTES_FTO_UA_100uM_CRN_0uM_R6G_10uM_Scan_RamanShift__21__12-28-33-529.txt Node

Date: Thu Jun 23 12:28:33 BST 2022
User: TCL
Spectrometer: QEP01345
Trigger mode: 4
Integration Time (sec): 7.000000E0
Scans to average: 10
Electric dark correction enabled: true
Nonlinearity correction enabled: false
Boxcar width: 0
XAxis mode: Raman Shifts
Number of Pixels in Spectrum: 1044
>>>>>Begin Spectral Data<<<<<
46.04893	-0.3
50.45542	0.4
54.85868	-0.3
59.25871	-0.2
63.6555	28.9
68.04907	29.9
72.43941	33.4
76.82654	38.7
81.21044	39.3
85.59113	40.3
89.96862	42.7
94.34289	46.4
98.71396	45.9
103.08183	45
107.4465	49.5
111.80798	48.3
116.16626	47.5
120.52136	51
124.87327	48.9
129.222	44.3
133.56755	49.1
137.90993	47.2
142.24913	49.5
146.58517	48.9
150.91804	45.6
155.24774	53.1
159.57429	56.1
163.89768	62.4
168.21792	76.1
172.53501	91.2
176.84895	108
181.15975	143.4
185.46741	190.1
189.77193	257.4
194.07331	334.8
198.37157	422.9
202.6667	524.3
206.9587	616.1
211.24758	715.8
215.53334	811.9
219.81599	916.2
224.09553	1024.5
228.37195	1145.4
232.64527	1280.3
236.91549	1407.9
241.18261	1519.6
245.44663	1646
249.70755	1731.4
253.96539	1812
258.22014	1879.2
262.4718	1924.6
266.72039	1936.2
270.96589	1947.2
275.20832	1924
279.44768	1895.1
283.68397	1849
287.91719	1821.4
292.14735	1777.6
296.37445	1781.5
300.59849	1779
304.81948	1791.4
309.03742	1805.3
313.25231	1804.1
317.46415	1771.1
321.67296	1716.8
325.87872	1659.2
330.08145	1633.4
334.28114	1619.9
338.47781	1631.3
342.67145	1642.6
346.86207	1667
351.04966	1714.3
355.23424	1753.2
359.4158	1800.1
363.59435	1820.6
367.76989	1833.6
371.94243	1853
376.11196	1857.3
380.27849	1864.4
384.44203	1872.9
388.60257	1864.7
392.76012	1873.1
396.91468	1892.8
401.06626	1914.4
405.21485	1907.9
409.36047	1902.2
413.50311	1864
417.64277	1810.6
421.77947	1792.6
425.9132	1768.8
430.04396	1785.4
434.17176	1786.2
438.2966	1800.1
442.41849	1827.2
446.53742	1857.1
450.6534	1872.2
454.76644	1904.7
458.87653	1904.6
462.98368	1908.1
467.08789	1895.8
471.18916	1872.8
475.2875	1867.8
479.38291	1867.4
483.4754	1866.6
487.56496	1873.8
491.6516	1901.9
495.73531	1918.7
499.81612	1932.3
503.89401	1915.8
507.96899	1920.2
512.04106	1923.4
516.11023	1919.1
520.1765	1928.4
524.23987	1946.4
528.30034	1949.9
532.35792	1926.3
536.41261	1910.5
540.46441	1875.6
544.51333	1871.8
548.55936	1860.8
552.60252	1862.4
556.64279	1869.5
560.6802	1868.2
564.71473	1876
568.7464	1894.8
572.7752	1903.5
576.80114	1887.5
580.82422	1886.9
584.84444	1895.7
588.86181	1915.2
592.87633	1942.1
596.888	1965.6
600.89682	2006.3
604.9028	2124
608.90594	2412.2
612.90624	2771.3
616.90371	2713.6
620.89834	2329
624.89015	2138.7
628.87913	2141.9
632.86528	2207.9
636.84862	2244.8
640.82913	2208.7
644.80683	2117.1
648.78172	2035
652.75379	1977.5
656.72306	1977.8
660.68952	1986
664.65319	1963.6
668.61405	1936.8
672.57211	1921
676.52738	1944.8
680.47986	1967
684.42955	2018
688.37646	2025.2
692.32058	1999.6
696.26192	1951.4
700.20048	1928.4
704.13626	1907.5
708.06928	1894.3
711.99952	1885.6
715.927	1878.6
719.85171	1887.4
723.77365	1901.2
727.69284	1903.8
731.60928	1902.7
735.52295	1889.2
739.43388	1881.6
743.34206	1874.1
747.24749	1877
751.15017	1870.6
755.05012	1879.1
758.94733	1899.2
762.8418	1981.5
766.73354	2145.5
770.62254	2306.9
774.50882	2400.2
778.39237	2362.2
782.27321	2197.6
786.15132	2034
790.02671	1946.1
793.89938	1904.5
797.76935	1902.2
801.6366	1921.9
805.50115	1948
809.36299	1979.5
813.22213	1980.8
817.07857	1961.1
820.93231	1921.9
824.78336	1892.8
828.63172	1864.8
832.47738	1850.1
836.32036	1847.5
840.16066	1840
843.99827	1844.3
847.8332	1846.8
851.66546	1848.5
855.49504	1834.4
859.32195	1841.3
863.1462	1837.3
866.96777	1857.4
870.78668	1866.9
874.60293	1892.9
878.41652	1936.6
882.22745	1970.4
886.03573	1989.7
889.84136	2023.6
893.64433	2011
897.44466	1989.5
901.24235	1964.2
905.0374	1942.6
908.8298	1934.4
912.61957	1951.5
916.40671	1978.8
920.19121	2010.4
923.97308	2050
927.75233	2074.3
931.52895	2083.6
935.30295	2050.2
939.07433	1986.2
942.84309	1948.7
946.60924	1893.9
950.37278	1862.9
954.13371	1816.2
957.89203	1793.2
961.64774	1777.9
965.40086	1747.4
969.15137	1705.1
972.89929	1695.9
976.64461	1693.7
980.38733	1676.6
984.12747	1671.6
987.86502	1668.6
991.59999	1663.9
995.33237	1666.4
999.06217	1681.6
1002.78939	1695.8
1006.51404	1733
1010.23611	1760.3
1013.95561	1820.1
1017.67255	1831.8
1021.38692	1780
1025.09872	1756.8
1028.80796	1738.6
1032.51465	1715.9
1036.21877	1705.3
1039.92035	1694.1
1043.61937	1692.6
1047.31584	1700
1051.00976	1696.3
1054.70114	1684.5
1058.38998	1671.2
1062.07627	1677.7
1065.76003	1688.8
1069.44126	1689.4
1073.11995	1707.6
1076.79611	1704.3
1080.46974	1724.7
1084.14085	1717.9
1087.80943	1715.8
1091.47549	1712.6
1095.13903	1691.9
1098.80005	1658.9
1102.45857	1646.3
1106.11456	1633.7
1109.76805	1639.9
1113.41903	1667.5
1117.06751	1707.9
1120.71348	1765.5
1124.35696	1855.8
1127.99793	1948.1
1131.63641	2011
1135.2724	2019.5
1138.90589	1975.9
1142.5369	1911.4
1146.16542	1825.9
1149.79145	1762.9
1153.415	1703.2
1157.03607	1678.3
1160.65467	1655.4
1164.27079	1670.8
1167.88443	1699
1171.49561	1760.8
1175.10432	1848.4
1178.71056	1985
1182.31434	2111.8
1185.91565	2155.4
1189.51451	2126.6
1193.11091	2059.7
1196.70485	2012.6
1200.29634	1963.5
1203.88538	1911.7
1207.47197	1862.6
1211.05612	1786.2
1214.63782	1734.6
1218.21708	1698.5
1221.79391	1675.8
1225.36829	1677.1
1228.94024	1659.8
1232.50976	1655.5
1236.07685	1645.8
1239.6415	1651.6
1243.20374	1658.8
1246.76355	1661.6
1250.32093	1663.3
1253.8759	1680.3
1257.42845	1703.8
1260.97859	1719.4
1264.52631	1750
1268.07163	1792.1
1271.61453	1817.9
1275.15503	1840
1278.69312	1854.4
1282.22882	1861.1
1285.76211	1873.1
1289.29301	1922.9
1292.82151	1966.7
1296.34761	2018
1299.87133	2081
1303.39266	2180.7
1306.9116	2329.3
1310.42815	2467.4
1313.94233	2555.5
1317.45412	2515.1
1320.96354	2415.2
1324.47058	2276.2
1327.97525	2156.4
1331.47754	2107.5
1334.97747	2051.2
1338.47502	2082.6
1341.97022	2100.2
1345.46305	2181.8
1348.95352	2315.8
1352.44163	2474.5
1355.92738	2690.2
1359.41078	2946.9
1362.89183	3187.4
1366.37053	3179.9
1369.84688	2887.3
1373.32088	2568.3
1376.79254	2354.8
1380.26186	2225.2
1383.72883	2155.6
1387.19347	2091.5
1390.65578	2037
1394.11575	2003.1
1397.57339	1969.8
1401.0287	1945.4
1404.48168	1912.8
1407.93234	1874.7
1411.38068	1847
1414.82669	1816.1
1418.27039	1788.8
1421.71177	1767.3
1425.15083	1727.1
1428.58758	1698.6
1432.02203	1684
1435.45416	1675.9
1438.88399	1667.3
1442.31151	1664.8
1445.73673	1646.2
1449.15965	1639.7
1452.58027	1646.5
1455.9986	1630.8
1459.41463	1630.1
1462.82837	1634.4
1466.23982	1642
1469.64898	1662.7
1473.05586	1673.1
1476.46045	1682.4
1479.86276	1693.7
1483.26279	1708.4
1486.66054	1728.9
1490.05602	1759.8
1493.44922	1814.2
1496.84016	1901.1
1500.22882	2038.6
1503.61521	2206.4
1506.99934	2419.7
1510.38121	2599.5
1513.76081	2660.9
1517.13816	2550.2
1520.51324	2318.1
1523.88607	2089.8
1527.25665	1941.6
1530.62498	1844.2
1533.99105	1789.1
1537.35488	1758.1
1540.71647	1739.2
1544.07581	1718.5
1547.4329	1724.5
1550.78776	1720
1554.14038	1738
1557.49077	1752.4
1560.83892	1765.9
1564.18484	1791.5
1567.52853	1827.8
1570.86999	1866.2
1574.20922	1894.4
1577.54624	1884.2
1580.88103	1829.9
1584.2136	1741.6
1587.54395	1672.5
1590.87208	1642.4
1594.19801	1652.5
1597.52172	1685.8
1600.84321	1695.4
1604.16251	1690.4
1607.47959	1650.1
1610.79447	1609.2
1614.10715	1559.7
1617.41763	1533.1
1620.7259	1522.2
1624.03199	1503
1627.33587	1506.7
1630.63757	1499.6
1633.93707	1519.2
1637.23439	1548.6
1640.52951	1618.8
1643.82246	1729.1
1647.11321	1863.5
1650.40179	1960.7
1653.68819	1948.5
1656.97241	1818.4
1660.25446	1628.1
1663.53433	1486.1
1666.81203	1397.2
1670.08756	1336
1673.36092	1318.9
1676.63211	1299.6
1679.90115	1287.3
1683.16801	1269.5
1686.43272	1266
1689.69527	1248.5
1692.95567	1219.5
1696.2139	1193.5
1699.46999	1151.8
1702.72392	1125.2
1705.97571	1129.1
1709.22535	1116.5
1712.47284	1114.3
1715.71819	1116.6
1718.96139	1093.9
1722.20246	1092.8
1725.44139	1066.2
1728.67818	1050
1731.91284	1036.8
1735.14537	1026.6
1738.37576	1003.4
1741.60403	999.4
1744.83017	984.8
1748.05418	980.5
1751.27607	961.5
1754.49584	948.5
1757.71349	922.9
1760.92903	904.3
1764.14244	902.3
1767.35375	904
1770.56294	902.2
1773.77002	905.6
1776.97499	912.5
1780.17785	926.3
1783.37861	935.2
1786.57727	936
1789.77382	931.8
1792.96828	935
1796.16064	934.4
1799.3509	929.6
1802.53907	923.3
1805.72514	926.8
1808.90913	921.4
1812.09102	908.1
1815.27083	910.4
1818.44856	907.4
1821.6242	911.5
1824.79776	908.1
1827.96924	900.6
1831.13864	902.1
1834.30597	898.8
1837.47122	890.4
1840.6344	888.8
1843.7955	891
1846.95454	881.3
1850.11151	881.9
1853.26642	884.6
1856.41926	885.5
1859.57004	881
1862.71876	875.9
1865.86542	880.3
1869.01003	879.9
1872.15258	873.2
1875.29308	867.4
1878.43152	864.8
1881.56792	861.1
1884.70227	858.4
1887.83457	861.5
1890.96482	851.6
1894.09304	853.2
1897.21921	853.4
1900.34335	843.9
1903.46544	847
1906.58551	849.2
1909.70353	840.2
1912.81953	830.3
1915.93349	826.6
1919.04543	839.6
1922.15534	835.1
1925.26322	831.6
1928.36908	825.1
1931.47292	818.5
1934.57473	821.9
1937.67453	840.1
1940.77232	807.8
1943.86808	797.2
1946.96184	808.7
1950.05358	802.3
1953.14331	798
1956.23103	795.9
1959.31675	791.5
1962.40046	782.8
1965.48217	787.5
1968.56188	778
1971.63959	780
1974.7153	780.2
1977.78901	776
1980.86073	773.8
1983.93046	770.5
1986.99819	760.4
1990.06394	765.5
1993.1277	765.2
1996.18947	755.7
1999.24925	757.7
2002.30706	751
2005.36288	744.2
2008.41672	749.2
2011.46859	742.1
2014.51848	749.6
2017.56639	736.5
2020.61233	729.9
2023.6563	720.5
2026.6983	725.9
2029.73833	721.3
2032.7764	713.4
2035.8125	723.1
2038.84664	716
2041.87881	720.4
2044.90903	712.6
2047.93729	713.7
2050.96359	712.6
2053.98794	707.5
2057.01034	705.8
2060.03078	707.5
2063.04927	713.1
2066.06582	705.9
2069.08042	706.6
2072.09307	707
2075.10378	700.2
2078.11255	695.9
2081.11938	701.4
2084.12426	693.7
2087.12722	692.2
2090.12824	699.5
2093.12732	702.9
2096.12447	692.7
2099.11969	691.7
2102.11299	687.2
2105.10435	688.5
2108.09379	689.7
2111.08131	694.8
2114.0669	688.4
2117.05057	683.3
2120.03233	687.3
2123.01216	687.9
2125.99008	690.9
2128.96609	692.9
2131.94018	691.5
2134.91236	686.6
2137.88263	678.3
2140.851	685.7
2143.81746	679
2146.78201	675
2149.74466	678.2
2152.7054	679.4
2155.66425	682.4
2158.6212	677.3
2161.57625	677.5
2164.52941	668.5
2167.48067	670.7
2170.43004	665.1
2173.37752	669.2
2176.32311	664.2
2179.26681	661.6
2182.20863	667
2185.14856	664
2188.08661	664.8
2191.02278	658.3
2193.95707	660.5
2196.88948	664.8
2199.82001	655.5
2202.74867	657.5
2205.67545	651.2
2208.60037	650.3
2211.52341	648.7
2214.44458	645.7
2217.36388	640.7
2220.28132	641.4
2223.1969	638.2
2226.11061	628.9
2229.02246	633.1
2231.93245	627.1
2234.84058	631.2
2237.74686	627.2
2240.65128	624
2243.55385	625.5
2246.45456	629.1
2249.35343	622.5
2252.25044	618.9
2255.14561	619.2
2258.03893	617.6
2260.93041	611.8
2263.82004	612.9
2266.70783	610.9
2269.59378	616.4
2272.4779	608.4
2275.36017	609.7
2278.24061	604.1
2281.11922	604.8
2283.996	600
2286.87094	601.2
2289.74405	590.8
2292.61534	594.3
2295.4848	595.8
2298.35243	593.5
2301.21824	593.3
2304.08223	587.6
2306.94439	594
2309.80474	589.4
2312.66327	587.1
2315.51999	583.9
2318.37489	585.3
2321.22797	583.8
2324.07925	580.2
2326.92871	580.3
2329.77637	581.6
2332.62222	576.4
2335.46626	566.1
2338.3085	565.6
2341.14893	571.9
2343.98756	566.5
2346.8244	560.1
2349.65943	564.9
2352.49267	562.5
2355.32411	565.1
2358.15376	565.8
2360.98161	561.9
2363.80768	562.5
2366.63195	559.1
2369.45444	556
2372.27514	559.6
2375.09405	564.1
2377.91118	561.7
2380.72652	547
2383.54009	559.1
2386.35187	549.8
2389.16188	554
2391.97011	552
2394.77657	547.9
2397.58125	541.9
2400.38416	540.6
2403.18529	544.1
2405.98466	535.4
2408.78226	536
2411.57809	536.5
2414.37216	531.6
2417.16446	528.4
2419.955	527.4
2422.74378	531.6
2425.5308	526.3
2428.31606	527.2
2431.09956	521.3
2433.88131	530.8
2436.6613	532.1
2439.43954	524.5
2442.21603	520.5
2444.99077	524
2447.76377	514.8
2450.53501	515.6
2453.30451	516.3
2456.07226	521.7
2458.83827	512.9
2461.60254	516.2
2464.36507	511.9
2467.12586	508.9
2469.88492	514
2472.64224	512.5
2475.39782	504
2478.15167	504.4
2480.90379	503.6
2483.65417	501.6
2486.40283	509.1
2489.14976	502.8
2491.89497	511.9
2494.63845	500.3
2497.3802	494.1
2500.12024	497.3
2502.85855	499.2
2505.59514	495.2
2508.33002	497
2511.06318	494.7
2513.79462	498.3
2516.52435	492.6
2519.25237	488
2521.97867	479.6
2524.70327	488.6
2527.42616	490.8
2530.14734	486
2532.86681	484
2535.58458	485.6
2538.30065	482.3
2541.01501	482.9
2543.72768	479
2546.43864	479.3
2549.14791	476.7
2551.85548	479
2554.56136	477.7
2557.26554	475.3
2559.96803	471.8
2562.66883	466.9
2565.36794	470.9
2568.06536	466.6
2570.7611	472.1
2573.45514	463.9
2576.14751	466.8
2578.83819	465.4
2581.52719	466.7
2584.21451	463.4
2586.90015	462.2
2589.58411	457.8
2592.2664	460.9
2594.94701	457.4
2597.62594	455.4
2600.30321	453.6
2602.9788	456.9
2605.65273	455.6
2608.32498	453
2610.99557	451.9
2613.66449	449.1
2616.33175	453.7
2618.99734	443.8
2621.66128	446.2
2624.32355	450.4
2626.98416	445.9
2629.64311	440.9
2632.30041	445
2634.95605	436.1
2637.61004	441.9
2640.26238	440.4
2642.91306	440.1
2645.56209	436
2648.20948	438.4
2650.85521	433.3
2653.4993	440.2
2656.14175	442.6
2658.78255	437.5
2661.42171	435
2664.05923	436.3
2666.6951	441.2
2669.32934	437.3
2671.96194	435.7
2674.59291	437.5
2677.22224	437.5
2679.84993	433.9
2682.476	432.5
2685.10043	433.7
2687.72324	433.4
2690.34441	436.3
2692.96396	435.7
2695.58188	435.5
2698.19818	433.8
2700.81285	431.7
2703.4259	412.7
2706.03733	375
2708.64714	398.1
2711.25533	420.8
2713.86191	419.4
2716.46687	422.1
2719.07021	426.6
2721.67194	434.3
2724.27206	433.3
2726.87057	424.8
2729.46747	434.8
2732.06276	435.5
2734.65644	429.4
2737.24852	428.1
2739.83899	433.7
2742.42786	431.6
2745.01513	430.6
2747.60079	427.5
2750.18486	429.7
2752.76733	432.5
2755.3482	427.4
2757.92747	425.4
2760.50515	422.2
2763.08123	426.2
2765.65573	423.8
2768.22863	424.8
2770.79994	421.3
2773.36967	418.5
2775.9378	419.1
2778.50435	416.9
2781.06932	416.6
2783.6327	414.6
2786.1945	417.6
2788.75471	416.9
2791.31335	412.5
2793.87041	419
2796.42589	410.9
2798.97979	411.4
2801.53212	414.2
2804.08288	411.2
2806.63206	409.8
2809.17967	414
2811.72571	409.1
2814.27018	414.1
2816.81308	407.4
2819.35442	411.7
2821.89419	412.9
2824.43239	408.9
2826.96904	401.6
2829.50412	407.9
2832.03763	406.2
2834.56959	407.1
2837.1	408.1
2839.62884	411.2
2842.15613	408.4
2844.68186	417.2
2847.20604	415.6
2849.72867	417.4
2852.24974	419.7
2854.76927	409.6
2857.28724	400.5
2859.80367	412.8
2862.31855	416.7
2864.83189	412.7
2867.34368	411.3
2869.85393	414
2872.36264	414.7
2874.8698	422.7
2877.37543	419.5
2879.87952	419.8
2882.38207	420.5
2884.88308	420.2
2887.38256	421.2
2889.88051	424.9
2892.37692	421.4
2894.8718	427.1
2897.36515	431.2
2899.85698	426.5
2902.34727	430.3
2904.83604	438.3
2907.32328	440.3
2909.809	439.7
2912.29319	440.8
2914.77587	448.4
2917.25702	450.8
2919.73665	450.7
2922.21476	451.6
2924.69136	450.2
2927.16644	452.6
2929.64	456
2932.11205	453.6
2934.58258	455
2937.05161	453.5
2939.51912	451.6
2941.98513	447.2
2944.44962	442.6
2946.91261	442.1
2949.37409	441.3
2951.83407	437.2
2954.29254	435.5
2956.74951	433.5
2959.20498	432.8
2961.65895	428.1
2964.11142	422.8
2966.56239	430.2
2969.01186	426.5
2971.45984	424.7
2973.90632	420.6
2976.35131	426.1
2978.7948	422.7
2981.23681	422.8
2983.67732	419.8
2986.11635	422
2988.55388	417.9
2990.98993	424.4
2993.4245	419.6
2995.85758	414.7
2998.28917	419.1
3000.71928	417.5
3003.14791	416.6
3005.57506	421
3008.00073	419.4
3010.42493	424
3012.84764	416
3015.26888	423.5
3017.68865	421
3020.10694	423.8
3022.52376	427.8
3024.9391	430.4
3027.35298	423.7
3029.76539	422.9
3032.17632	429.3
3034.5858	429.4
3036.9938	437.7
3039.40034	436.5
3041.80542	439.1
3044.20903	436.8
3046.61118	440.9
3049.01187	443.9
3051.4111	442.7
3053.80888	453.6
3056.20519	449.4
3058.60005	450.7
3060.99345	456.6
3063.3854	452.8
3065.7759	455.8
3068.16494	458.2
3070.55254	457.7
3072.93868	464.2
3075.32338	462.9
3077.70662	466.3
3080.08842	474.2
3082.46878	469.1
3084.84769	476.4
3087.22515	486.1
3089.60118	484.5
3091.97576	488
3094.3489	492.1
3096.72061	498.1
3099.09087	498.1
3101.4597	504.9
3103.82709	514.6
3106.19305	511.2
3108.55757	515.4
3110.92066	522.5
3113.28232	525.8
3115.64255	527.5
3118.00134	533.2
3120.35871	536.8
3122.71466	545.1
3125.06917	544.9
3127.42226	549.1
3129.77393	552.5
3132.12417	562.8
3134.47299	569.8
3136.82039	569.5
3139.16636	577.5
3141.51092	580.5
3143.85406	586.6
3146.19579	593.2
3148.53609	597.9
3150.87499	602.5
3153.21246	608.7
3155.54853	620.6
3157.88318	626.4
3160.21642	639
3162.54826	638.8
3164.87868	646.3
3167.2077	648.4
3169.5353	657.5
3171.86151	664.2
3174.18631	666.9
3176.5097	673.3
3178.83169	678.9
3181.15228	681
3183.47147	688.3
3185.78926	690.6
3188.10565	696.6
3190.42065	691.1
3192.73424	698.7
3195.04645	708.9
3197.35725	714
3199.66667	715.3
3201.97469	718.6
3204.28132	723.5
3206.58656	735.3
3208.8904	734
3211.19287	739.1
3213.49394	737.8
3215.79363	749.3
3218.09193	743.7
3220.38884	742.5
3222.68438	733.1
3224.97853	746.8
3227.2713	753.9
3229.56269	754.7
3231.8527	764
3234.14133	759.2
3236.42858	761.2
3238.71446	769.3
3240.99896	767
3243.28209	762.6
3245.56384	772.1
3247.84423	770.5
3250.12324	772.3
3252.40088	766.4
3254.67715	768.7
3256.95205	768
3259.22558	772.2
3261.49775	772
3263.76855	778.9
3266.03799	767.9
3268.30606	776.5
3270.57277	773.4
3272.83812	770.7
3275.10211	777.5
3277.36474	774.8
3279.62601	772.7
3281.88593	763.2
3284.14448	765.3
3286.40168	770
3288.65753	772.9
3290.91202	768.2
3293.16516	765.3
3295.41695	765.5
3297.66738	765.2
3299.91647	762.2
3302.16421	767.2
3304.4106	753.6
3306.65564	752.8
3308.89933	754.1
3311.14169	749.4
3313.38269	737.7
3315.62236	734.1
3317.86068	731.5
3320.09766	725.6
3322.3333	719.9
3324.5676	716.3
3326.80056	687.2
3329.03219	694.3
3331.26248	-0.1
3333.49143	0.8
3335.71905	0.4
