Data from AgNPs_APTES_FTO_UA_100uM_CRN_0uM_R6G_10uM_Scan_RamanShift__12__12-18-03-516.txt Node

Date: Thu Jun 23 12:18:03 BST 2022
User: TCL
Spectrometer: QEP01345
Trigger mode: 4
Integration Time (sec): 7.000000E0
Scans to average: 10
Electric dark correction enabled: true
Nonlinearity correction enabled: false
Boxcar width: 0
XAxis mode: Raman Shifts
Number of Pixels in Spectrum: 1044
>>>>>Begin Spectral Data<<<<<
46.04893	-0.7625
50.45542	-0.8625
54.85868	-0.7625
59.25871	-0.8625
63.6555	30.7375
68.04907	33.9375
72.43941	39.3375
76.82654	43.1375
81.21044	42.3375
85.59113	45.5375
89.96862	50.7375
94.34289	48.5375
98.71396	48.8375
103.08183	48.8375
107.4465	49.1375
111.80798	48.9375
116.16626	51.6375
120.52136	55.5375
124.87327	52.0375
129.222	51.9375
133.56755	52.6375
137.90993	51.7375
142.24913	51.8375
146.58517	52.5375
150.91804	54.9375
155.24774	61.3375
159.57429	65.4375
163.89768	76.3375
168.21792	88.7375
172.53501	113.3375
176.84895	135.7375
181.15975	182.8375
185.46741	243.0375
189.77193	327.1375
194.07331	432.6375
198.37157	546.3375
202.6667	678.3375
206.9587	810.9375
211.24758	932.1375
215.53334	1070.6375
219.81599	1220.0375
224.09553	1368.1375
228.37195	1536.4375
232.64527	1718.4375
236.91549	1902.5375
241.18261	2077.9375
245.44663	2225.4375
249.70755	2335.3375
253.96539	2441.1375
258.22014	2512.1375
262.4718	2590.4375
266.72039	2608.1375
270.96589	2598.6375
275.20832	2571.1375
279.44768	2503.8375
283.68397	2436.3375
287.91719	2371.7375
292.14735	2333.7375
296.37445	2326.8375
300.59849	2361.4375
304.81948	2415.0375
309.03742	2470.2375
313.25231	2490.8375
317.46415	2434.4375
321.67296	2320.4375
325.87872	2211.3375
330.08145	2148.5375
334.28114	2135.6375
338.47781	2156.4375
342.67145	2185.0375
346.86207	2250.9375
351.04966	2337.4375
355.23424	2434.2375
359.4158	2489.7375
363.59435	2492.3375
367.76989	2487.0375
371.94243	2470.8375
376.11196	2448.1375
380.27849	2446.1375
384.44203	2422.1375
388.60257	2416.3375
392.76012	2409.5375
396.91468	2434.5375
401.06626	2465.5375
405.21485	2475.5375
409.36047	2452.7375
413.50311	2365.8375
417.64277	2294.1375
421.77947	2239.2375
425.9132	2229.6375
430.04396	2220.1375
434.17176	2237.2375
438.2966	2268.1375
442.41849	2301.4375
446.53742	2351.1375
450.6534	2371.2375
454.76644	2391.8375
458.87653	2384.8375
462.98368	2391.6375
467.08789	2368.9375
471.18916	2354.9375
475.2875	2328.4375
479.38291	2303.7375
483.4754	2298.7375
487.56496	2300.2375
491.6516	2315.1375
495.73531	2325.1375
499.81612	2328.1375
503.89401	2353.5375
507.96899	2372.3375
512.04106	2385.4375
516.11023	2397.2375
520.1765	2396.6375
524.23987	2417.9375
528.30034	2403.7375
532.35792	2378.0375
536.41261	2353.6375
540.46441	2310.6375
544.51333	2273.1375
548.55936	2277.7375
552.60252	2288.3375
556.64279	2328.6375
560.6802	2349.2375
564.71473	2374.7375
568.7464	2435.1375
572.7752	2453.3375
576.80114	2391.7375
580.82422	2343.8375
584.84444	2328.9375
588.86181	2353.8375
592.87633	2391.9375
596.888	2428.1375
600.89682	2503.4375
604.9028	2721.2375
608.90594	3322.6375
612.90624	4069.2375
616.90371	3974.3375
620.89834	3113.9375
624.89015	2665.0375
628.87913	2570.5375
632.86528	2578.6375
636.84862	2591.3375
640.82913	2539.9375
644.80683	2440.0375
648.78172	2359.9375
652.75379	2355.6375
656.72306	2383.9375
660.68952	2455.8375
664.65319	2436.6375
668.61405	2356.7375
672.57211	2348.2375
676.52738	2375.0375
680.47986	2438.9375
684.42955	2499.3375
688.37646	2526.9375
692.32058	2497.7375
696.26192	2438.6375
700.20048	2391.9375
704.13626	2372.9375
708.06928	2358.6375
711.99952	2348.1375
715.927	2326.0375
719.85171	2343.2375
723.77365	2351.1375
727.69284	2340.5375
731.60928	2321.5375
735.52295	2312.3375
739.43388	2324.5375
743.34206	2316.8375
747.24749	2318.8375
751.15017	2312.4375
755.05012	2317.6375
758.94733	2387.9375
762.8418	2568.6375
766.73354	2867.2375
770.62254	3160.1375
774.50882	3294.8375
778.39237	3171.8375
782.27321	2891.7375
786.15132	2621.7375
790.02671	2454.8375
793.89938	2374.3375
797.76935	2356.9375
801.6366	2349.7375
805.50115	2370.6375
809.36299	2394.6375
813.22213	2382.0375
817.07857	2367.8375
820.93231	2342.2375
824.78336	2326.4375
828.63172	2303.0375
832.47738	2310.1375
836.32036	2295.5375
840.16066	2288.2375
843.99827	2290.6375
847.8332	2292.1375
851.66546	2284.2375
855.49504	2283.2375
859.32195	2273.8375
863.1462	2283.5375
866.96777	2305.3375
870.78668	2300.5375
874.60293	2342.4375
878.41652	2375.0375
882.22745	2429.4375
886.03573	2470.6375
889.84136	2503.9375
893.64433	2520.8375
897.44466	2520.5375
901.24235	2527.6375
905.0374	2515.5375
908.8298	2536.1375
912.61957	2567.6375
916.40671	2631.3375
920.19121	2701.0375
923.97308	2752.7375
927.75233	2812.7375
931.52895	2830.4375
935.30295	2769.8375
939.07433	2661.3375
942.84309	2582.8375
946.60924	2480.7375
950.37278	2403.2375
954.13371	2345.7375
957.89203	2301.6375
961.64774	2245.0375
965.40086	2221.7375
969.15137	2181.8375
972.89929	2155.7375
976.64461	2131.2375
980.38733	2098.3375
984.12747	2098.8375
987.86502	2094.4375
991.59999	2098.6375
995.33237	2097.4375
999.06217	2101.6375
1002.78939	2129.0375
1006.51404	2151.1375
1010.23611	2170.2375
1013.95561	2199.3375
1017.67255	2198.2375
1021.38692	2195.2375
1025.09872	2178.5375
1028.80796	2160.4375
1032.51465	2140.8375
1036.21877	2137.2375
1039.92035	2131.7375
1043.61937	2129.5375
1047.31584	2122.1375
1051.00976	2121.8375
1054.70114	2126.9375
1058.38998	2118.4375
1062.07627	2100.2375
1065.76003	2113.3375
1069.44126	2095.1375
1073.11995	2110.6375
1076.79611	2123.0375
1080.46974	2146.0375
1084.14085	2156.5375
1087.80943	2206.0375
1091.47549	2210.7375
1095.13903	2159.3375
1098.80005	2109.3375
1102.45857	2059.8375
1106.11456	2057.0375
1109.76805	2058.0375
1113.41903	2089.6375
1117.06751	2153.6375
1120.71348	2240.6375
1124.35696	2350.6375
1127.99793	2460.9375
1131.63641	2497.7375
1135.2724	2442.2375
1138.90589	2352.9375
1142.5369	2276.0375
1146.16542	2193.3375
1149.79145	2157.7375
1153.415	2109.5375
1157.03607	2079.5375
1160.65467	2097.1375
1164.27079	2129.5375
1167.88443	2203.0375
1171.49561	2298.4375
1175.10432	2471.1375
1178.71056	2747.1375
1182.31434	2951.5375
1185.91565	3006.0375
1189.51451	2912.5375
1193.11091	2743.3375
1196.70485	2598.8375
1200.29634	2493.5375
1203.88538	2413.3375
1207.47197	2306.5375
1211.05612	2203.7375
1214.63782	2142.0375
1218.21708	2093.0375
1221.79391	2097.2375
1225.36829	2098.4375
1228.94024	2114.1375
1232.50976	2104.3375
1236.07685	2093.2375
1239.6415	2103.8375
1243.20374	2115.2375
1246.76355	2133.9375
1250.32093	2151.0375
1253.8759	2173.3375
1257.42845	2206.6375
1260.97859	2256.1375
1264.52631	2317.0375
1268.07163	2377.9375
1271.61453	2441.1375
1275.15503	2458.4375
1278.69312	2461.0375
1282.22882	2496.1375
1285.76211	2528.6375
1289.29301	2605.1375
1292.82151	2705.4375
1296.34761	2768.5375
1299.87133	2903.7375
1303.39266	3074.5375
1306.9116	3372.2375
1310.42815	3695.6375
1313.94233	3897.6375
1317.45412	3807.0375
1320.96354	3534.3375
1324.47058	3227.2375
1327.97525	2961.3375
1331.47754	2792.1375
1334.97747	2716.9375
1338.47502	2710.4375
1341.97022	2768.1375
1345.46305	2929.5375
1348.95352	3163.4375
1352.44163	3476.1375
1355.92738	3829.2375
1359.41078	4342.8375
1362.89183	4917.2375
1366.37053	4987.0375
1369.84688	4358.7375
1373.32088	3658.7375
1376.79254	3223.9375
1380.26186	3025.1375
1383.72883	2919.1375
1387.19347	2824.8375
1390.65578	2751.6375
1394.11575	2695.9375
1397.57339	2666.0375
1401.0287	2636.7375
1404.48168	2602.6375
1407.93234	2558.8375
1411.38068	2515.7375
1414.82669	2495.1375
1418.27039	2482.4375
1421.71177	2448.9375
1425.15083	2406.9375
1428.58758	2374.0375
1432.02203	2349.4375
1435.45416	2328.3375
1438.88399	2330.6375
1442.31151	2298.2375
1445.73673	2264.1375
1449.15965	2255.7375
1452.58027	2245.3375
1455.9986	2217.5375
1459.41463	2207.5375
1462.82837	2218.5375
1466.23982	2233.5375
1469.64898	2264.7375
1473.05586	2302.4375
1476.46045	2301.3375
1479.86276	2324.0375
1483.26279	2351.7375
1486.66054	2394.8375
1490.05602	2461.4375
1493.44922	2556.2375
1496.84016	2705.6375
1500.22882	2966.3375
1503.61521	3331.9375
1506.99934	3782.2375
1510.38121	4199.7375
1513.76081	4419.7375
1517.13816	4199.5375
1520.51324	3725.6375
1523.88607	3211.7375
1527.25665	2828.9375
1530.62498	2604.7375
1533.99105	2470.3375
1537.35488	2379.3375
1540.71647	2323.0375
1544.07581	2292.6375
1547.4329	2281.0375
1550.78776	2297.9375
1554.14038	2299.0375
1557.49077	2325.2375
1560.83892	2362.0375
1564.18484	2428.9375
1567.52853	2517.4375
1570.86999	2606.0375
1574.20922	2660.7375
1577.54624	2660.6375
1580.88103	2530.5375
1584.2136	2336.2375
1587.54395	2197.8375
1590.87208	2130.8375
1594.19801	2160.6375
1597.52172	2213.6375
1600.84321	2229.8375
1604.16251	2194.1375
1607.47959	2111.8375
1610.79447	2041.3375
1614.10715	1969.7375
1617.41763	1918.2375
1620.7259	1877.4375
1624.03199	1849.0375
1627.33587	1866.1375
1630.63757	1867.9375
1633.93707	1918.0375
1637.23439	1993.2375
1640.52951	2113.8375
1643.82246	2328.2375
1647.11321	2627.7375
1650.40179	2889.4375
1653.68819	2893.2375
1656.97241	2650.5375
1660.25446	2259.4375
1663.53433	1968.4375
1666.81203	1793.3375
1670.08756	1689.3375
1673.36092	1634.4375
1676.63211	1600.5375
1679.90115	1579.3375
1683.16801	1548.6375
1686.43272	1526.3375
1689.69527	1513.6375
1692.95567	1482.2375
1696.2139	1442.7375
1699.46999	1414.3375
1702.72392	1378.5375
1705.97571	1386.4375
1709.22535	1393.6375
1712.47284	1388.9375
1715.71819	1387.7375
1718.96139	1375.2375
1722.20246	1352.3375
1725.44139	1331.7375
1728.67818	1317.4375
1731.91284	1306.2375
1735.14537	1293.6375
1738.37576	1272.6375
1741.60403	1266.8375
1744.83017	1252.5375
1748.05418	1231.8375
1751.27607	1211.9375
1754.49584	1202.9375
1757.71349	1176.3375
1760.92903	1155.8375
1764.14244	1165.2375
1767.35375	1144.5375
1770.56294	1141.2375
1773.77002	1149.7375
1776.97499	1157.3375
1780.17785	1171.0375
1783.37861	1179.5375
1786.57727	1166.6375
1789.77382	1179.5375
1792.96828	1176.5375
1796.16064	1166.3375
1799.3509	1171.7375
1802.53907	1159.2375
1805.72514	1156.0375
1808.90913	1152.6375
1812.09102	1140.9375
1815.27083	1140.8375
1818.44856	1146.5375
1821.6242	1132.1375
1824.79776	1140.6375
1827.96924	1136.5375
1831.13864	1129.5375
1834.30597	1129.3375
1837.47122	1120.3375
1840.6344	1121.0375
1843.7955	1125.8375
1846.95454	1113.5375
1850.11151	1110.6375
1853.26642	1108.8375
1856.41926	1103.0375
1859.57004	1115.8375
1862.71876	1101.8375
1865.86542	1095.8375
1869.01003	1095.3375
1872.15258	1097.0375
1875.29308	1085.3375
1878.43152	1081.5375
1881.56792	1087.3375
1884.70227	1075.7375
1887.83457	1073.3375
1890.96482	1069.2375
1894.09304	1076.7375
1897.21921	1073.3375
1900.34335	1064.2375
1903.46544	1054.9375
1906.58551	1058.5375
1909.70353	1062.1375
1912.81953	1059.1375
1915.93349	1049.7375
1919.04543	1050.6375
1922.15534	1045.3375
1925.26322	1041.5375
1928.36908	1040.9375
1931.47292	1034.2375
1934.57473	1026.5375
1937.67453	1016.6375
1940.77232	1018.1375
1943.86808	1014.8375
1946.96184	1011.0375
1950.05358	1009.2375
1953.14331	1004.7375
1956.23103	1001.4375
1959.31675	1000.0375
1962.40046	988.2375
1965.48217	987.2375
1968.56188	984.9375
1971.63959	983.8375
1974.7153	987.9375
1977.78901	978.2375
1980.86073	971.0375
1983.93046	968.6375
1986.99819	964.5375
1990.06394	959.9375
1993.1277	961.4375
1996.18947	950.0375
1999.24925	941.4375
2002.30706	940.5375
2005.36288	934.1375
2008.41672	936.2375
2011.46859	926.4375
2014.51848	929.3375
2017.56639	926.6375
2020.61233	922.4375
2023.6563	919.5375
2026.6983	918.2375
2029.73833	903.4375
2032.7764	908.1375
2035.8125	898.7375
2038.84664	904.8375
2041.87881	910.3375
2044.90903	898.8375
2047.93729	899.6375
2050.96359	901.7375
2053.98794	892.8375
2057.01034	888.9375
2060.03078	897.4375
2063.04927	898.1375
2066.06582	893.5375
2069.08042	895.7375
2072.09307	893.5375
2075.10378	893.3375
2078.11255	903.0375
2081.11938	904.0375
2084.12426	892.5375
2087.12722	897.7375
2090.12824	900.9375
2093.12732	899.4375
2096.12447	895.9375
2099.11969	896.5375
2102.11299	890.2375
2105.10435	899.3375
2108.09379	895.5375
2111.08131	898.9375
2114.0669	895.4375
2117.05057	897.0375
2120.03233	894.2375
2123.01216	884.0375
2125.99008	880.1375
2128.96609	883.3375
2131.94018	883.0375
2134.91236	880.0375
2137.88263	880.9375
2140.851	873.4375
2143.81746	866.8375
2146.78201	867.4375
2149.74466	867.4375
2152.7054	860.2375
2155.66425	853.0375
2158.6212	847.8375
2161.57625	845.1375
2164.52941	848.3375
2167.48067	845.5375
2170.43004	842.5375
2173.37752	844.1375
2176.32311	837.9375
2179.26681	839.8375
2182.20863	840.9375
2185.14856	840.4375
2188.08661	831.1375
2191.02278	831.4375
2193.95707	824.9375
2196.88948	830.7375
2199.82001	833.1375
2202.74867	822.2375
2205.67545	826.8375
2208.60037	820.3375
2211.52341	820.9375
2214.44458	817.0375
2217.36388	811.5375
2220.28132	812.9375
2223.1969	807.9375
2226.11061	805.5375
2229.02246	799.3375
2231.93245	795.9375
2234.84058	801.3375
2237.74686	794.6375
2240.65128	790.8375
2243.55385	789.0375
2246.45456	785.6375
2249.35343	787.0375
2252.25044	780.3375
2255.14561	786.9375
2258.03893	779.0375
2260.93041	776.1375
2263.82004	774.6375
2266.70783	776.9375
2269.59378	773.8375
2272.4779	776.3375
2275.36017	766.1375
2278.24061	769.2375
2281.11922	760.2375
2283.996	763.9375
2286.87094	763.6375
2289.74405	759.3375
2292.61534	761.6375
2295.4848	750.3375
2298.35243	754.7375
2301.21824	748.2375
2304.08223	743.4375
2306.94439	747.5375
2309.80474	749.4375
2312.66327	750.0375
2315.51999	735.3375
2318.37489	734.7375
2321.22797	734.6375
2324.07925	735.5375
2326.92871	734.0375
2329.77637	737.4375
2332.62222	731.2375
2335.46626	729.8375
2338.3085	722.9375
2341.14893	724.1375
2343.98756	718.2375
2346.8244	715.2375
2349.65943	711.5375
2352.49267	722.3375
2355.32411	721.5375
2358.15376	719.2375
2360.98161	714.9375
2363.80768	720.1375
2366.63195	718.3375
2369.45444	718.5375
2372.27514	717.0375
2375.09405	719.5375
2377.91118	717.1375
2380.72652	716.3375
2383.54009	712.8375
2386.35187	702.8375
2389.16188	700.4375
2391.97011	699.1375
2394.77657	692.1375
2397.58125	687.8375
2400.38416	688.6375
2403.18529	684.6375
2405.98466	682.1375
2408.78226	678.1375
2411.57809	682.9375
2414.37216	669.3375
2417.16446	676.1375
2419.955	675.9375
2422.74378	666.8375
2425.5308	674.2375
2428.31606	673.0375
2431.09956	671.2375
2433.88131	672.7375
2436.6613	669.3375
2439.43954	668.8375
2442.21603	668.9375
2444.99077	667.1375
2447.76377	664.8375
2450.53501	658.2375
2453.30451	665.2375
2456.07226	657.8375
2458.83827	656.6375
2461.60254	659.2375
2464.36507	653.6375
2467.12586	658.8375
2469.88492	653.8375
2472.64224	653.5375
2475.39782	649.6375
2478.15167	643.0375
2480.90379	644.2375
2483.65417	652.1375
2486.40283	653.3375
2489.14976	646.5375
2491.89497	649.6375
2494.63845	641.6375
2497.3802	640.7375
2500.12024	641.2375
2502.85855	646.4375
2505.59514	639.6375
2508.33002	639.9375
2511.06318	639.0375
2513.79462	636.7375
2516.52435	632.9375
2519.25237	625.2375
2521.97867	617.0375
2524.70327	620.6375
2527.42616	622.9375
2530.14734	614.0375
2532.86681	616.5375
2535.58458	608.7375
2538.30065	612.0375
2541.01501	611.9375
2543.72768	611.6375
2546.43864	613.7375
2549.14791	613.6375
2551.85548	608.9375
2554.56136	603.8375
2557.26554	610.8375
2559.96803	607.8375
2562.66883	599.6375
2565.36794	601.1375
2568.06536	600.7375
2570.7611	601.6375
2573.45514	596.6375
2576.14751	595.4375
2578.83819	590.9375
2581.52719	591.4375
2584.21451	594.8375
2586.90015	592.2375
2589.58411	584.2375
2592.2664	589.8375
2594.94701	589.3375
2597.62594	583.7375
2600.30321	580.4375
2602.9788	584.8375
2605.65273	577.8375
2608.32498	581.8375
2610.99557	579.5375
2613.66449	577.7375
2616.33175	581.6375
2618.99734	576.0375
2621.66128	572.2375
2624.32355	575.7375
2626.98416	570.5375
2629.64311	567.0375
2632.30041	573.2375
2634.95605	561.4375
2637.61004	565.4375
2640.26238	561.2375
2642.91306	564.5375
2645.56209	564.1375
2648.20948	557.2375
2650.85521	554.6375
2653.4993	560.2375
2656.14175	560.9375
2658.78255	559.0375
2661.42171	561.5375
2664.05923	560.7375
2666.6951	556.8375
2669.32934	560.8375
2671.96194	560.8375
2674.59291	558.2375
2677.22224	561.1375
2679.84993	554.3375
2682.476	557.8375
2685.10043	551.6375
2687.72324	556.0375
2690.34441	557.9375
2692.96396	556.7375
2695.58188	554.8375
2698.19818	559.5375
2700.81285	555.8375
2703.4259	534.7375
2706.03733	494.7375
2708.64714	520.3375
2711.25533	535.5375
2713.86191	542.1375
2716.46687	544.4375
2719.07021	545.9375
2721.67194	554.8375
2724.27206	553.1375
2726.87057	553.3375
2729.46747	557.0375
2732.06276	548.5375
2734.65644	560.9375
2737.24852	554.2375
2739.83899	556.9375
2742.42786	553.3375
2745.01513	546.7375
2747.60079	549.4375
2750.18486	547.8375
2752.76733	549.4375
2755.3482	544.3375
2757.92747	543.5375
2760.50515	544.8375
2763.08123	544.1375
2765.65573	540.5375
2768.22863	544.3375
2770.79994	539.2375
2773.36967	538.0375
2775.9378	539.9375
2778.50435	533.4375
2781.06932	533.9375
2783.6327	532.2375
2786.1945	533.8375
2788.75471	531.6375
2791.31335	524.4375
2793.87041	532.7375
2796.42589	529.2375
2798.97979	528.5375
2801.53212	523.5375
2804.08288	526.9375
2806.63206	522.6375
2809.17967	520.2375
2811.72571	520.2375
2814.27018	525.7375
2816.81308	523.3375
2819.35442	520.4375
2821.89419	519.4375
2824.43239	522.0375
2826.96904	518.6375
2829.50412	519.2375
2832.03763	518.7375
2834.56959	521.7375
2837.1	522.4375
2839.62884	516.6375
2842.15613	515.5375
2844.68186	520.5375
2847.20604	526.2375
2849.72867	523.1375
2852.24974	529.7375
2854.76927	520.2375
2857.28724	510.8375
2859.80367	526.4375
2862.31855	522.1375
2864.83189	528.1375
2867.34368	526.3375
2869.85393	529.6375
2872.36264	536.0375
2874.8698	531.2375
2877.37543	535.2375
2879.87952	535.9375
2882.38207	539.6375
2884.88308	526.6375
2887.38256	528.8375
2889.88051	533.2375
2892.37692	537.2375
2894.8718	537.6375
2897.36515	541.6375
2899.85698	544.7375
2902.34727	547.0375
2904.83604	557.1375
2907.32328	562.2375
2909.809	561.7375
2912.29319	564.0375
2914.77587	573.1375
2917.25702	578.0375
2919.73665	575.9375
2922.21476	577.8375
2924.69136	577.2375
2927.16644	580.5375
2929.64	579.2375
2932.11205	577.7375
2934.58258	581.9375
2937.05161	576.4375
2939.51912	570.5375
2941.98513	568.7375
2944.44962	560.7375
2946.91261	562.5375
2949.37409	551.2375
2951.83407	551.9375
2954.29254	547.8375
2956.74951	546.7375
2959.20498	542.5375
2961.65895	536.1375
2964.11142	531.3375
2966.56239	534.1375
2969.01186	530.8375
2971.45984	527.3375
2973.90632	524.6375
2976.35131	526.3375
2978.7948	520.0375
2981.23681	519.0375
2983.67732	519.4375
2986.11635	525.1375
2988.55388	518.0375
2990.98993	519.2375
2993.4245	518.4375
2995.85758	517.7375
2998.28917	516.7375
3000.71928	519.1375
3003.14791	517.1375
3005.57506	520.6375
3008.00073	518.6375
3010.42493	520.5375
3012.84764	520.5375
3015.26888	513.7375
3017.68865	520.8375
3020.10694	514.1375
3022.52376	525.6375
3024.9391	522.7375
3027.35298	520.3375
3029.76539	518.9375
3032.17632	521.5375
3034.5858	521.6375
3036.9938	527.3375
3039.40034	525.8375
3041.80542	527.6375
3044.20903	517.8375
3046.61118	528.2375
3049.01187	533.8375
3051.4111	536.4375
3053.80888	539.2375
3056.20519	535.3375
3058.60005	532.3375
3060.99345	537.8375
3063.3854	535.2375
3065.7759	535.1375
3068.16494	543.8375
3070.55254	540.5375
3072.93868	548.7375
3075.32338	554.6375
3077.70662	551.4375
3080.08842	555.2375
3082.46878	554.1375
3084.84769	558.2375
3087.22515	564.8375
3089.60118	561.6375
3091.97576	567.9375
3094.3489	569.8375
3096.72061	573.1375
3099.09087	577.3375
3101.4597	581.4375
3103.82709	586.7375
3106.19305	592.0375
3108.55757	588.6375
3110.92066	600.2375
3113.28232	600.8375
3115.64255	605.9375
3118.00134	602.1375
3120.35871	614.7375
3122.71466	617.3375
3125.06917	621.0375
3127.42226	614.9375
3129.77393	630.6375
3132.12417	631.7375
3134.47299	640.8375
3136.82039	636.5375
3139.16636	646.5375
3141.51092	648.5375
3143.85406	660.4375
3146.19579	666.1375
3148.53609	667.8375
3150.87499	671.2375
3153.21246	674.4375
3155.54853	684.5375
3157.88318	696.2375
3160.21642	694.7375
3162.54826	707.0375
3164.87868	712.0375
3167.2077	717.1375
3169.5353	722.9375
3171.86151	732.1375
3174.18631	735.0375
3176.5097	738.4375
3178.83169	745.5375
3181.15228	746.2375
3183.47147	744.7375
3185.78926	748.4375
3188.10565	752.4375
3190.42065	763.1375
3192.73424	768.5375
3195.04645	767.3375
3197.35725	780.6375
3199.66667	775.9375
3201.97469	775.1375
3204.28132	785.9375
3206.58656	788.9375
3208.8904	793.7375
3211.19287	799.5375
3213.49394	800.0375
3215.79363	804.5375
3218.09193	803.4375
3220.38884	797.2375
3222.68438	792.4375
3224.97853	804.3375
3227.2713	813.1375
3229.56269	812.5375
3231.8527	812.7375
3234.14133	819.4375
3236.42858	824.4375
3238.71446	823.5375
3240.99896	826.8375
3243.28209	820.4375
3245.56384	822.2375
3247.84423	818.6375
3250.12324	827.5375
3252.40088	818.5375
3254.67715	823.3375
3256.95205	830.9375
3259.22558	827.0375
3261.49775	830.2375
3263.76855	822.5375
3266.03799	832.3375
3268.30606	825.0375
3270.57277	831.7375
3272.83812	830.3375
3275.10211	822.7375
3277.36474	823.4375
3279.62601	824.0375
3281.88593	815.1375
3284.14448	827.8375
3286.40168	821.5375
3288.65753	827.6375
3290.91202	826.3375
3293.16516	822.8375
3295.41695	826.7375
3297.66738	815.3375
3299.91647	817.5375
3302.16421	815.3375
3304.4106	811.6375
3306.65564	805.8375
3308.89933	807.7375
3311.14169	797.1375
3313.38269	785.7375
3315.62236	780.6375
3317.86068	782.8375
3320.09766	780.0375
3322.3333	781.5375
3324.5676	762.2375
3326.80056	745.4375
3329.03219	746.5375
3331.26248	0.1375
3333.49143	0.8375
3335.71905	0.9375
