Data from AgNPs_APTES_FTO_UA_50uM_CRN_0uM_R6G_10uM_Scan_RamanShift__34__11-50-43-695.txt Node

Date: Tue Jul 05 11:50:43 BST 2022
User: TCL
Spectrometer: QEP01345
Trigger mode: 4
Integration Time (sec): 7.000000E0
Scans to average: 10
Electric dark correction enabled: true
Nonlinearity correction enabled: false
Boxcar width: 0
XAxis mode: Raman Shifts
Number of Pixels in Spectrum: 1044
>>>>>Begin Spectral Data<<<<<
46.04893	0.5
50.45542	0.1
54.85868	-0.2
59.25871	-0.3
63.6555	35.9
68.04907	40.5
72.43941	40.7
76.82654	45.4
81.21044	47.9
85.59113	52.3
89.96862	54.6
94.34289	53.2
98.71396	58.3
103.08183	58
107.4465	59.1
111.80798	60.9
116.16626	59
120.52136	59.6
124.87327	64.7
129.222	64.6
133.56755	64.4
137.90993	63.2
142.24913	68.1
146.58517	74.3
150.91804	79.5
155.24774	89.8
159.57429	104
163.89768	126.9
168.21792	164.4
172.53501	213.2
176.84895	290
181.15975	391.8
185.46741	543.8
189.77193	737.9
194.07331	977.8
198.37157	1246.9
202.6667	1531.3
206.9587	1808.2
211.24758	2090.6
215.53334	2359.4
219.81599	2652.6
224.09553	2978.3
228.37195	3319.8
232.64527	3681.2
236.91549	4065.1
241.18261	4397.5
245.44663	4719.7
249.70755	4971.4
253.96539	5171.6
258.22014	5335.1
262.4718	5484.2
266.72039	5573.9
270.96589	5606.4
275.20832	5593.7
279.44768	5517.4
283.68397	5422.8
287.91719	5347.3
292.14735	5309.8
296.37445	5371.8
300.59849	5479.5
304.81948	5599.9
309.03742	5701.1
313.25231	5674.8
317.46415	5512.9
321.67296	5228
325.87872	4973.4
330.08145	4832.4
334.28114	4801
338.47781	4843.2
342.67145	4928.3
346.86207	5062.3
351.04966	5265.2
355.23424	5489.2
359.4158	5702.5
363.59435	5817.6
367.76989	5911.5
371.94243	5932.7
376.11196	5962.2
380.27849	6002.5
384.44203	5995.2
388.60257	5981.5
392.76012	5950
396.91468	5967.3
401.06626	6058.8
405.21485	6135.5
409.36047	6029.8
413.50311	5804.5
417.64277	5559.6
421.77947	5427.2
425.9132	5374.6
430.04396	5370.2
434.17176	5393.7
438.2966	5474.2
442.41849	5612.5
446.53742	5736.4
450.6534	5886.7
454.76644	5939.8
458.87653	5918.3
462.98368	5843.1
467.08789	5807.8
471.18916	5741.4
475.2875	5689.3
479.38291	5676.4
483.4754	5714.8
487.56496	5811.5
491.6516	5959.7
495.73531	6038.5
499.81612	6027.9
503.89401	5932.9
507.96899	5876.3
512.04106	5874
516.11023	5952.2
520.1765	6061.4
524.23987	6125
528.30034	6135.5
532.35792	6047.7
536.41261	5912.7
540.46441	5748.5
544.51333	5612.7
548.55936	5543.1
552.60252	5544.9
556.64279	5596.3
560.6802	5625.2
564.71473	5611.4
568.7464	5749.8
572.7752	5821
576.80114	5734.9
580.82422	5682.1
584.84444	5740.1
588.86181	5940.2
592.87633	6119.7
596.888	6198.9
600.89682	6214.1
604.9028	6575.6
608.90594	7812.8
612.90624	9441.1
616.90371	9325.1
620.89834	7628.5
624.89015	7054.6
628.87913	7408.5
632.86528	7892.7
636.84862	8203.6
640.82913	8063.4
644.80683	7545.8
648.78172	6949.9
652.75379	6502.1
656.72306	6288.9
660.68952	6187.3
664.65319	5967.1
668.61405	5693.6
672.57211	5581.2
676.52738	5575.5
680.47986	5576.3
684.42955	5550.9
688.37646	5503.8
692.32058	5485
696.26192	5475.7
700.20048	5485.1
704.13626	5509.5
708.06928	5469.6
711.99952	5443.8
715.927	5473
719.85171	5545.4
723.77365	5635.2
727.69284	5644.1
731.60928	5596
735.52295	5523.6
739.43388	5471.1
743.34206	5489.7
747.24749	5456.3
751.15017	5461.6
755.05012	5473.4
758.94733	5622.4
762.8418	6009.2
766.73354	6692.9
770.62254	7445.1
774.50882	7863.3
778.39237	7636.5
782.27321	6860.7
786.15132	6070
790.02671	5642.6
793.89938	5453
797.76935	5424.2
801.6366	5555.2
805.50115	5804.9
809.36299	6039.1
813.22213	6126.1
817.07857	6009.9
820.93231	5762.9
824.78336	5522.9
828.63172	5319.2
832.47738	5208
836.32036	5149.3
840.16066	5129.2
843.99827	5090.3
847.8332	5082.4
851.66546	5086.8
855.49504	5052
859.32195	5068.7
863.1462	5082.2
866.96777	5138.5
870.78668	5243.4
874.60293	5434.7
878.41652	5632.2
882.22745	5835.4
886.03573	5947
889.84136	5918.1
893.64433	5773
897.44466	5564.7
901.24235	5331.8
905.0374	5139
908.8298	5028.3
912.61957	4951.9
916.40671	4907.4
920.19121	4890.8
923.97308	4911.3
927.75233	4929.9
931.52895	4956.4
935.30295	4900.8
939.07433	4819.1
942.84309	4713.5
946.60924	4625.1
950.37278	4581.8
954.13371	4545
957.89203	4529.4
961.64774	4500.5
965.40086	4468.6
969.15137	4452.5
972.89929	4430.1
976.64461	4407.1
980.38733	4423.7
984.12747	4401.7
987.86502	4421.6
991.59999	4425.4
995.33237	4527.1
999.06217	4619
1002.78939	4758.2
1006.51404	4873.5
1010.23611	5011.6
1013.95561	5097.5
1017.67255	5116.7
1021.38692	5056.2
1025.09872	4935.3
1028.80796	4808.1
1032.51465	4673.6
1036.21877	4616.8
1039.92035	4602.7
1043.61937	4559.9
1047.31584	4554.7
1051.00976	4582.9
1054.70114	4589.8
1058.38998	4643.4
1062.07627	4687.6
1065.76003	4772.1
1069.44126	4811.8
1073.11995	4844.9
1076.79611	4875.4
1080.46974	4907.2
1084.14085	4928
1087.80943	4954.1
1091.47549	4920.3
1095.13903	4811.5
1098.80005	4666.8
1102.45857	4548.5
1106.11456	4532.3
1109.76805	4607.6
1113.41903	4768.5
1117.06751	5019.1
1120.71348	5394.2
1124.35696	5886.8
1127.99793	6450
1131.63641	6884.5
1135.2724	6966.1
1138.90589	6823.4
1142.5369	6524.3
1146.16542	6108.3
1149.79145	5663.9
1153.415	5260.2
1157.03607	4965.7
1160.65467	4787.8
1164.27079	4776.7
1167.88443	4885.2
1171.49561	5154.4
1175.10432	5666.5
1178.71056	6384.3
1182.31434	6997.2
1185.91565	7293.6
1189.51451	7264.4
1193.11091	7139.2
1196.70485	7017.3
1200.29634	6971.4
1203.88538	6848.7
1207.47197	6563.4
1211.05612	6202
1214.63782	5865.5
1218.21708	5587.6
1221.79391	5354.2
1225.36829	5174.6
1228.94024	5022.3
1232.50976	4888.1
1236.07685	4830
1239.6415	4793.7
1243.20374	4834.2
1246.76355	4852.1
1250.32093	4911.6
1253.8759	4981.4
1257.42845	5079.3
1260.97859	5219
1264.52631	5329
1268.07163	5428.1
1271.61453	5503.6
1275.15503	5536.3
1278.69312	5512.1
1282.22882	5486.7
1285.76211	5563.4
1289.29301	5707.5
1292.82151	5909.8
1296.34761	6140.7
1299.87133	6409.1
1303.39266	6862.4
1306.9116	7543
1310.42815	8371.2
1313.94233	8875.8
1317.45412	8812.7
1320.96354	8234
1324.47058	7593.8
1327.97525	6987.2
1331.47754	6631.9
1334.97747	6526.5
1338.47502	6608.5
1341.97022	6785.5
1345.46305	7046.8
1348.95352	7544.7
1352.44163	8260.5
1355.92738	9221.4
1359.41078	10432.7
1362.89183	11584.3
1366.37053	11527.2
1369.84688	10096.2
1373.32088	8481.5
1376.79254	7393.2
1380.26186	6799.3
1383.72883	6498.4
1387.19347	6225.8
1390.65578	5905.3
1394.11575	5652.3
1397.57339	5481.2
1401.0287	5377.2
1404.48168	5302.1
1407.93234	5201.8
1411.38068	5102.8
1414.82669	5006
1418.27039	4911.7
1421.71177	4811.3
1425.15083	4712
1428.58758	4660.4
1432.02203	4676.7
1435.45416	4723.6
1438.88399	4752.5
1442.31151	4742
1445.73673	4740.8
1449.15965	4748
1452.58027	4688.1
1455.9986	4624.1
1459.41463	4565.5
1462.82837	4589
1466.23982	4666.8
1469.64898	4775.5
1473.05586	4880.8
1476.46045	4976.2
1479.86276	5083.6
1483.26279	5252.1
1486.66054	5398.4
1490.05602	5582.5
1493.44922	5817.6
1496.84016	6186
1500.22882	6714.2
1503.61521	7478.9
1506.99934	8335.5
1510.38121	9172.1
1513.76081	9556.5
1517.13816	9121.4
1520.51324	8090.6
1523.88607	6985.4
1527.25665	6256.8
1530.62498	5871.7
1533.99105	5721
1537.35488	5666.7
1540.71647	5627.1
1544.07581	5638.8
1547.4329	5708.3
1550.78776	5734.8
1554.14038	5744
1557.49077	5786.7
1560.83892	5833.7
1564.18484	5935.5
1567.52853	6096.6
1570.86999	6261.3
1574.20922	6400.2
1577.54624	6391.7
1580.88103	6158.5
1584.2136	5782.9
1587.54395	5522.4
1590.87208	5450.1
1594.19801	5609.3
1597.52172	5967.6
1600.84321	6208.1
1604.16251	6210.3
1607.47959	6006.1
1610.79447	5719.4
1614.10715	5429.7
1617.41763	5238.3
1620.7259	5138.7
1624.03199	5099.5
1627.33587	5149.5
1630.63757	5286.5
1633.93707	5475.2
1637.23439	5842.1
1640.52951	6364
1643.82246	7128.5
1647.11321	7984.6
1650.40179	8631.2
1653.68819	8600.7
1656.97241	7806.8
1660.25446	6759.3
1663.53433	5909
1666.81203	5293.2
1670.08756	4803.3
1673.36092	4480.2
1676.63211	4235.8
1679.90115	4060.8
1683.16801	3903.4
1686.43272	3780.7
1689.69527	3683.2
1692.95567	3593.7
1696.2139	3520.4
1699.46999	3436.1
1702.72392	3356.2
1705.97571	3253.9
1709.22535	3190.9
1712.47284	3142.2
1715.71819	3087.9
1718.96139	3057.4
1722.20246	3021.9
1725.44139	2972
1728.67818	2942.5
1731.91284	2906.8
1735.14537	2865.9
1738.37576	2849.4
1741.60403	2804.1
1744.83017	2810.3
1748.05418	2788.8
1751.27607	2776.2
1754.49584	2766.6
1757.71349	2748.7
1760.92903	2732.2
1764.14244	2711.5
1767.35375	2705.4
1770.56294	2693.8
1773.77002	2686.2
1776.97499	2655.4
1780.17785	2665.6
1783.37861	2645.8
1786.57727	2641.9
1789.77382	2619.1
1792.96828	2619.1
1796.16064	2602.5
1799.3509	2598.3
1802.53907	2574.7
1805.72514	2563.1
1808.90913	2557.4
1812.09102	2546.3
1815.27083	2530.9
1818.44856	2506.6
1821.6242	2516.9
1824.79776	2508.1
1827.96924	2507
1831.13864	2486.7
1834.30597	2488.4
1837.47122	2481.7
1840.6344	2466.4
1843.7955	2466.9
1846.95454	2442.9
1850.11151	2442.3
1853.26642	2433.3
1856.41926	2440.3
1859.57004	2431.8
1862.71876	2419
1865.86542	2416.9
1869.01003	2416
1872.15258	2407.9
1875.29308	2416.5
1878.43152	2388
1881.56792	2397
1884.70227	2390.1
1887.83457	2375.2
1890.96482	2373
1894.09304	2370.5
1897.21921	2356.7
1900.34335	2351
1903.46544	2343.3
1906.58551	2335.9
1909.70353	2338.2
1912.81953	2338
1915.93349	2328.8
1919.04543	2318.5
1922.15534	2328
1925.26322	2306.6
1928.36908	2296.5
1931.47292	2282
1934.57473	2271.5
1937.67453	2260.7
1940.77232	2254.1
1943.86808	2248.8
1946.96184	2237.2
1950.05358	2221.7
1953.14331	2224.5
1956.23103	2219
1959.31675	2201.1
1962.40046	2197.9
1965.48217	2186.9
1968.56188	2180.5
1971.63959	2178.9
1974.7153	2165
1977.78901	2161.1
1980.86073	2156.8
1983.93046	2132.1
1986.99819	2123.8
1990.06394	2123.5
1993.1277	2112
1996.18947	2102.9
1999.24925	2088.2
2002.30706	2072.5
2005.36288	2072.7
2008.41672	2063.2
2011.46859	2063.1
2014.51848	2052.7
2017.56639	2050.5
2020.61233	2041.6
2023.6563	2026.4
2026.6983	2023.1
2029.73833	2005.3
2032.7764	2005.3
2035.8125	1994.8
2038.84664	1992.3
2041.87881	1981.9
2044.90903	1982
2047.93729	1978.8
2050.96359	1975.5
2053.98794	1971.7
2057.01034	1961.1
2060.03078	1952.7
2063.04927	1959.3
2066.06582	1962.4
2069.08042	1946.4
2072.09307	1942.9
2075.10378	1937.8
2078.11255	1943.1
2081.11938	1937.2
2084.12426	1940.8
2087.12722	1938
2090.12824	1933.1
2093.12732	1918
2096.12447	1925.6
2099.11969	1924.7
2102.11299	1917
2105.10435	1908.4
2108.09379	1910.1
2111.08131	1918
2114.0669	1914.3
2117.05057	1919.8
2120.03233	1912
2123.01216	1913.2
2125.99008	1922.7
2128.96609	1924.4
2131.94018	1904.4
2134.91236	1910.9
2137.88263	1908
2140.851	1905.7
2143.81746	1905.2
2146.78201	1901.9
2149.74466	1892.3
2152.7054	1883.7
2155.66425	1879.3
2158.6212	1879.3
2161.57625	1873.7
2164.52941	1875.9
2167.48067	1870.7
2170.43004	1881.9
2173.37752	1869.8
2176.32311	1874.6
2179.26681	1862.7
2182.20863	1854.2
2185.14856	1856.4
2188.08661	1859.3
2191.02278	1848.1
2193.95707	1846.2
2196.88948	1842
2199.82001	1850.4
2202.74867	1841.5
2205.67545	1822.1
2208.60037	1824.7
2211.52341	1819.1
2214.44458	1821.5
2217.36388	1809.7
2220.28132	1797.5
2223.1969	1794.8
2226.11061	1790.5
2229.02246	1789.5
2231.93245	1773.7
2234.84058	1780
2237.74686	1775.1
2240.65128	1770
2243.55385	1764.2
2246.45456	1750.2
2249.35343	1753.1
2252.25044	1766.8
2255.14561	1755.4
2258.03893	1752
2260.93041	1746.3
2263.82004	1747.9
2266.70783	1736.8
2269.59378	1733.1
2272.4779	1721.4
2275.36017	1720.9
2278.24061	1711.1
2281.11922	1708.5
2283.996	1711.9
2286.87094	1699.1
2289.74405	1689.8
2292.61534	1688.9
2295.4848	1681.1
2298.35243	1674.5
2301.21824	1672.1
2304.08223	1663.4
2306.94439	1669.8
2309.80474	1665.9
2312.66327	1664.7
2315.51999	1655.4
2318.37489	1660.5
2321.22797	1651.5
2324.07925	1641.1
2326.92871	1639.7
2329.77637	1637.1
2332.62222	1635.7
2335.46626	1623.3
2338.3085	1617.4
2341.14893	1616.5
2343.98756	1610.7
2346.8244	1616.1
2349.65943	1607.4
2352.49267	1610.6
2355.32411	1605.6
2358.15376	1615.9
2360.98161	1624.9
2363.80768	1609.3
2366.63195	1621
2369.45444	1622.6
2372.27514	1623.4
2375.09405	1630.6
2377.91118	1611.1
2380.72652	1605
2383.54009	1602.2
2386.35187	1597.4
2389.16188	1584.9
2391.97011	1568.1
2394.77657	1565.8
2397.58125	1555.3
2400.38416	1560.2
2403.18529	1545
2405.98466	1550
2408.78226	1557.1
2411.57809	1535.8
2414.37216	1539.9
2417.16446	1536.1
2419.955	1526
2422.74378	1520.6
2425.5308	1529.3
2428.31606	1526
2431.09956	1519.6
2433.88131	1513.2
2436.6613	1517.2
2439.43954	1507.6
2442.21603	1513.6
2444.99077	1514
2447.76377	1499.1
2450.53501	1509.2
2453.30451	1502.9
2456.07226	1498.6
2458.83827	1498
2461.60254	1493.8
2464.36507	1491
2467.12586	1487.2
2469.88492	1489.3
2472.64224	1489.3
2475.39782	1485.4
2478.15167	1487
2480.90379	1485.9
2483.65417	1488.9
2486.40283	1488.6
2489.14976	1490.8
2491.89497	1494.7
2494.63845	1495.6
2497.3802	1485.5
2500.12024	1476.8
2502.85855	1482.5
2505.59514	1477.6
2508.33002	1476.8
2511.06318	1457.7
2513.79462	1453.2
2516.52435	1446.2
2519.25237	1435.5
2521.97867	1438.5
2524.70327	1424.5
2527.42616	1420.3
2530.14734	1412.1
2532.86681	1404.1
2535.58458	1413.3
2538.30065	1411.2
2541.01501	1408
2543.72768	1412.3
2546.43864	1392.1
2549.14791	1394.2
2551.85548	1394.3
2554.56136	1400.4
2557.26554	1402.8
2559.96803	1392
2562.66883	1384
2565.36794	1380.5
2568.06536	1383.2
2570.7611	1374.9
2573.45514	1371
2576.14751	1367.1
2578.83819	1360.9
2581.52719	1363.8
2584.21451	1363.5
2586.90015	1353.1
2589.58411	1352.8
2592.2664	1358
2594.94701	1342.7
2597.62594	1339.4
2600.30321	1332.8
2602.9788	1335.6
2605.65273	1334.3
2608.32498	1330.3
2610.99557	1327.3
2613.66449	1330.9
2616.33175	1331.3
2618.99734	1320.4
2621.66128	1318.9
2624.32355	1325.9
2626.98416	1323.6
2629.64311	1307.1
2632.30041	1309.8
2634.95605	1312.3
2637.61004	1309.1
2640.26238	1299
2642.91306	1289
2645.56209	1285.3
2648.20948	1298.2
2650.85521	1301.6
2653.4993	1294.3
2656.14175	1293.1
2658.78255	1291.9
2661.42171	1286.6
2664.05923	1293.4
2666.6951	1291
2669.32934	1300.8
2671.96194	1296.9
2674.59291	1299.2
2677.22224	1293.7
2679.84993	1299.7
2682.476	1293.3
2685.10043	1302.3
2687.72324	1298.3
2690.34441	1293.4
2692.96396	1301.3
2695.58188	1295.9
2698.19818	1294.4
2700.81285	1295.5
2703.4259	1302.9
2706.03733	1312.3
2708.64714	1304.6
2711.25533	1308.5
2713.86191	1303.9
2716.46687	1310
2719.07021	1311.5
2721.67194	1316.1
2724.27206	1312.9
2726.87057	1313.1
2729.46747	1312.3
2732.06276	1311.4
2734.65644	1309.5
2737.24852	1307
2739.83899	1300.8
2742.42786	1300.5
2745.01513	1302.3
2747.60079	1298.4
2750.18486	1288.1
2752.76733	1298
2755.3482	1286.3
2757.92747	1284.7
2760.50515	1288.4
2763.08123	1284.4
2765.65573	1292.5
2768.22863	1280.9
2770.79994	1282.9
2773.36967	1275.8
2775.9378	1282.9
2778.50435	1278.1
2781.06932	1285.8
2783.6327	1282.8
2786.1945	1282.9
2788.75471	1293.8
2791.31335	1286.9
2793.87041	1292.2
2796.42589	1291
2798.97979	1283.4
2801.53212	1286.2
2804.08288	1282.9
2806.63206	1285.4
2809.17967	1283.1
2811.72571	1290.4
2814.27018	1281.3
2816.81308	1285.4
2819.35442	1280
2821.89419	1283.7
2824.43239	1287.9
2826.96904	1293.5
2829.50412	1287.9
2832.03763	1298.1
2834.56959	1297.1
2837.1	1303.4
2839.62884	1303.4
2842.15613	1311
2844.68186	1341.5
2847.20604	1347.5
2849.72867	1357.1
2852.24974	1357.2
2854.76927	1366.2
2857.28724	1365
2859.80367	1363.9
2862.31855	1355.6
2864.83189	1364.1
2867.34368	1360.2
2869.85393	1355.2
2872.36264	1349.6
2874.8698	1353.4
2877.37543	1350.8
2879.87952	1353
2882.38207	1347.6
2884.88308	1342.9
2887.38256	1344.5
2889.88051	1337
2892.37692	1337.1
2894.8718	1345
2897.36515	1345.1
2899.85698	1351.1
2902.34727	1352.3
2904.83604	1351.5
2907.32328	1365.7
2909.809	1364.7
2912.29319	1364.4
2914.77587	1362.7
2917.25702	1361.3
2919.73665	1361
2922.21476	1363.7
2924.69136	1353.1
2927.16644	1355.7
2929.64	1350.4
2932.11205	1349.6
2934.58258	1334.6
2937.05161	1333.7
2939.51912	1327.5
2941.98513	1315.2
2944.44962	1299.9
2946.91261	1290.6
2949.37409	1281.5
2951.83407	1267.1
2954.29254	1259
2956.74951	1250
2959.20498	1248.7
2961.65895	1248.8
2964.11142	1241.2
2966.56239	1230.7
2969.01186	1196.4
2971.45984	1223
2973.90632	1232.5
2976.35131	1217
2978.7948	1219
2981.23681	1213.2
2983.67732	1204.5
2986.11635	1190.1
2988.55388	1202.6
2990.98993	1200.5
2993.4245	1197.5
2995.85758	1200.8
2998.28917	1188.3
3000.71928	1191.4
3003.14791	1192.5
3005.57506	1190.7
3008.00073	1190.2
3010.42493	1186
3012.84764	1193.5
3015.26888	1193.1
3017.68865	1196.4
3020.10694	1192.2
3022.52376	1195.5
3024.9391	1192.5
3027.35298	1192.6
3029.76539	1187
3032.17632	1196.1
3034.5858	1199.8
3036.9938	1193.3
3039.40034	1194.3
3041.80542	1198
3044.20903	1197.3
3046.61118	1202.1
3049.01187	1197.2
3051.4111	1198.9
3053.80888	1200.8
3056.20519	1209.9
3058.60005	1210.3
3060.99345	1210.6
3063.3854	1220.5
3065.7759	1223.9
3068.16494	1214.2
3070.55254	1211.5
3072.93868	1209.5
3075.32338	1220
3077.70662	1218.8
3080.08842	1224.5
3082.46878	1224.9
3084.84769	1229.1
3087.22515	1223.6
3089.60118	1233.1
3091.97576	1238.4
3094.3489	1246.5
3096.72061	1243.2
3099.09087	1250.8
3101.4597	1257.6
3103.82709	1268.7
3106.19305	1272.2
3108.55757	1273.2
3110.92066	1271.7
3113.28232	1274.5
3115.64255	1283.8
3118.00134	1279.8
3120.35871	1296.3
3122.71466	1294.9
3125.06917	1295.4
3127.42226	1311.9
3129.77393	1321.6
3132.12417	1320.1
3134.47299	1328.2
3136.82039	1338.4
3139.16636	1341.7
3141.51092	1350.3
3143.85406	1363.1
3146.19579	1365
3148.53609	1376.5
3150.87499	1391.4
3153.21246	1387.7
3155.54853	1397.9
3157.88318	1402.5
3160.21642	1418.9
3162.54826	1425.4
3164.87868	1432.9
3167.2077	1446.3
3169.5353	1453.8
3171.86151	1452.6
3174.18631	1469.2
3176.5097	1456.4
3178.83169	1471.7
3181.15228	1488.1
3183.47147	1482.6
3185.78926	1489.4
3188.10565	1494.4
3190.42065	1497
3192.73424	1507.9
3195.04645	1514.5
3197.35725	1519.8
3199.66667	1531.2
3201.97469	1530.4
3204.28132	1536.3
3206.58656	1542.3
3208.8904	1549.4
3211.19287	1553.1
3213.49394	1568.7
3215.79363	1573
3218.09193	1569.7
3220.38884	1580.2
3222.68438	1596.1
3224.97853	1582.5
3227.2713	1591
3229.56269	1594
3231.8527	1588.7
3234.14133	1603.1
3236.42858	1597.3
3238.71446	1589.5
3240.99896	1597.1
3243.28209	1589.2
3245.56384	1588.1
3247.84423	1595.3
3250.12324	1593.9
3252.40088	1592.1
3254.67715	1585.4
3256.95205	1590.3
3259.22558	1595
3261.49775	1591.1
3263.76855	1592
3266.03799	1587.2
3268.30606	1591.4
3270.57277	1589.1
3272.83812	1584.5
3275.10211	1578.7
3277.36474	1582.9
3279.62601	1587.4
3281.88593	1577.6
3284.14448	1575.6
3286.40168	1576.8
3288.65753	1576
3290.91202	1578.2
3293.16516	1568.6
3295.41695	1574.7
3297.66738	1575.6
3299.91647	1565
3302.16421	1550.9
3304.4106	1553.3
3306.65564	1543.8
3308.89933	1533.5
3311.14169	1530.4
3313.38269	1521.5
3315.62236	1506.5
3317.86068	1495.8
3320.09766	1481.4
3322.3333	1471.3
3324.5676	1468.1
3326.80056	1453.9
3329.03219	1443.2
3331.26248	0.6
3333.49143	-0.4
3335.71905	-0.3
