Data from AgNPs_APTES_FTO_UA_50uM_CRN_0uM_R6G_10uM_Scan_RamanShift__45__12-03-33-710.txt Node

Date: Tue Jul 05 12:03:33 BST 2022
User: TCL
Spectrometer: QEP01345
Trigger mode: 4
Integration Time (sec): 7.000000E0
Scans to average: 10
Electric dark correction enabled: true
Nonlinearity correction enabled: false
Boxcar width: 0
XAxis mode: Raman Shifts
Number of Pixels in Spectrum: 1044
>>>>>Begin Spectral Data<<<<<
46.04893	-0.5
50.45542	-0.3
54.85868	-2.7
59.25871	0.3
63.6555	55.6
68.04907	62.3
72.43941	62.8
76.82654	68.2
81.21044	70.8
85.59113	75.2
89.96862	77.1
94.34289	78.7
98.71396	84.1
103.08183	88
107.4465	85.1
111.80798	87.8
116.16626	88.7
120.52136	89
124.87327	93
129.222	96.2
133.56755	97.3
137.90993	104.7
142.24913	106.8
146.58517	124.4
150.91804	135.9
155.24774	161
159.57429	191.5
163.89768	241.5
168.21792	313.3
172.53501	423.8
176.84895	584
181.15975	815.1
185.46741	1149.6
189.77193	1583.9
194.07331	2103.9
198.37157	2714.1
202.6667	3344.7
206.9587	3954.5
211.24758	4561.6
215.53334	5183.8
219.81599	5827
224.09553	6539.6
228.37195	7348.3
232.64527	8201.6
236.91549	9126.4
241.18261	10039.1
245.44663	10883.3
249.70755	11647.8
253.96539	12288.5
258.22014	12736.8
262.4718	13128.6
266.72039	13394.3
270.96589	13475
275.20832	13415.3
279.44768	13260.4
283.68397	13025.5
287.91719	12801.2
292.14735	12680.7
296.37445	12646.8
300.59849	12655.6
304.81948	12732.8
309.03742	12812.5
313.25231	12794.7
317.46415	12647.5
321.67296	12456.6
325.87872	12265.5
330.08145	12170
334.28114	12159.5
338.47781	12254.3
342.67145	12397.8
346.86207	12598.5
351.04966	12834.8
355.23424	13111.8
359.4158	13331.3
363.59435	13483.2
367.76989	13610.2
371.94243	13702.1
376.11196	13740.7
380.27849	13779.4
384.44203	13840.7
388.60257	13937.7
392.76012	14012.3
396.91468	14116.9
401.06626	14285
405.21485	14419.7
409.36047	14417.4
413.50311	14269.1
417.64277	14182.3
421.77947	14145.1
425.9132	14179.7
430.04396	14206.7
434.17176	14268.4
438.2966	14372.4
442.41849	14528.9
446.53742	14828.7
450.6534	15076.1
454.76644	15252.8
458.87653	15291.4
462.98368	15246.4
467.08789	15182.1
471.18916	15045.8
475.2875	14891.5
479.38291	14777.2
483.4754	14709.1
487.56496	14686.2
491.6516	14740.4
495.73531	14820.6
499.81612	14884.6
503.89401	15008.7
507.96899	15083.5
512.04106	15070.8
516.11023	15016.3
520.1765	14987.1
524.23987	14939.9
528.30034	14874.3
532.35792	14831.5
536.41261	14682.6
540.46441	14545.7
544.51333	14475
548.55936	14522.5
552.60252	14644.9
556.64279	14851.8
560.6802	15028.4
564.71473	15082.5
568.7464	15170.9
572.7752	15335
576.80114	15433.3
580.82422	15581.9
584.84444	15947.3
588.86181	16497.3
592.87633	16966.1
596.888	17036.6
600.89682	16703.4
604.9028	16838.8
608.90594	17988.7
612.90624	19353.4
616.90371	18587.2
620.89834	16446.6
624.89015	15480.8
628.87913	15429.8
632.86528	15637.7
636.84862	15832.9
640.82913	15790.1
644.80683	15548.2
648.78172	15343
652.75379	15256.5
656.72306	15283.7
660.68952	15391.9
664.65319	15283.6
668.61405	15046.1
672.57211	14974
676.52738	15045.4
680.47986	15067.7
684.42955	15000.6
688.37646	14930.8
692.32058	14919.9
696.26192	15014.7
700.20048	15102.9
704.13626	15148.2
708.06928	15135.5
711.99952	15067.4
715.927	15049.9
719.85171	15088.8
723.77365	15061.7
727.69284	14970.5
731.60928	14904.2
735.52295	14874.9
739.43388	14910.9
743.34206	14983.9
747.24749	15048
751.15017	15129.4
755.05012	15225.9
758.94733	15503
762.8418	15996.4
766.73354	16838.7
770.62254	17642.2
774.50882	17896.6
778.39237	17449.1
782.27321	16605.5
786.15132	15867.1
790.02671	15405.8
793.89938	15148.2
797.76935	15062.2
801.6366	15089.2
805.50115	15145.6
809.36299	15160.8
813.22213	15087.1
817.07857	15037.1
820.93231	14920.7
824.78336	14829.7
828.63172	14786.5
832.47738	14756.8
836.32036	14745.8
840.16066	14767.8
843.99827	14801.2
847.8332	14819.8
851.66546	14808.9
855.49504	14793.1
859.32195	14782.8
863.1462	14783
866.96777	14768.5
870.78668	14785.5
874.60293	14863.1
878.41652	14938.4
882.22745	15039.9
886.03573	15112.9
889.84136	15133.7
893.64433	15104.7
897.44466	15056.4
901.24235	14951.9
905.0374	14874.2
908.8298	14855.2
912.61957	14796.7
916.40671	14823.4
920.19121	14864.5
923.97308	14940.9
927.75233	14996.8
931.52895	14989.1
935.30295	14895.6
939.07433	14698.4
942.84309	14562.1
946.60924	14466.6
950.37278	14453.3
954.13371	14417.6
957.89203	14395.9
961.64774	14372.8
965.40086	14344.2
969.15137	14335.4
972.89929	14328.7
976.64461	14311
980.38733	14358.4
984.12747	14367.7
987.86502	14362.9
991.59999	14464.2
995.33237	14549.1
999.06217	14727.5
1002.78939	14909.6
1006.51404	15128.9
1010.23611	15270.7
1013.95561	15409.6
1017.67255	15447.6
1021.38692	15367.3
1025.09872	15222.9
1028.80796	15124.2
1032.51465	15141
1036.21877	15210.5
1039.92035	15231.6
1043.61937	15210.9
1047.31584	15167.2
1051.00976	15073.6
1054.70114	15023
1058.38998	15073.9
1062.07627	15130.1
1065.76003	15271.5
1069.44126	15334.4
1073.11995	15497.7
1076.79611	15764.6
1080.46974	15927.2
1084.14085	15974.5
1087.80943	16096.9
1091.47549	16117.3
1095.13903	16081.8
1098.80005	15860.5
1102.45857	15630
1106.11456	15468.2
1109.76805	15448.4
1113.41903	15462
1117.06751	15606.1
1120.71348	15852.5
1124.35696	16121.3
1127.99793	16412
1131.63641	16635.7
1135.2724	16634.6
1138.90589	16575.5
1142.5369	16470.1
1146.16542	16314.9
1149.79145	16171.6
1153.415	15971.1
1157.03607	15898.5
1160.65467	15969.2
1164.27079	16214.1
1167.88443	16615.3
1171.49561	17140.1
1175.10432	17890.5
1178.71056	18874.6
1182.31434	19750.4
1185.91565	20213.9
1189.51451	20129.6
1193.11091	19734.8
1196.70485	19316.8
1200.29634	18913.2
1203.88538	18609.3
1207.47197	18283
1211.05612	18007
1214.63782	17768
1218.21708	17511.8
1221.79391	17312.5
1225.36829	17216.3
1228.94024	17170.5
1232.50976	17054.3
1236.07685	16888.1
1239.6415	16752.7
1243.20374	16751.7
1246.76355	16848.1
1250.32093	16981.7
1253.8759	17210.6
1257.42845	17501.9
1260.97859	17787.4
1264.52631	18158.5
1268.07163	18482.4
1271.61453	18810.6
1275.15503	19020
1278.69312	19243.4
1282.22882	19416.1
1285.76211	19754.7
1289.29301	20113.2
1292.82151	20601.6
1296.34761	21190.8
1299.87133	21951.1
1303.39266	22817.8
1306.9116	23733.6
1310.42815	24729.8
1313.94233	25188.6
1317.45412	24964.4
1320.96354	24299.7
1324.47058	23541.8
1327.97525	22945.4
1331.47754	22537.6
1334.97747	22244.6
1338.47502	22156
1341.97022	22120.1
1345.46305	22286.7
1348.95352	22689.2
1352.44163	23235.5
1355.92738	23988.4
1359.41078	25135.8
1362.89183	26245.1
1366.37053	26165.8
1369.84688	24412.2
1373.32088	22221.7
1376.79254	20652
1380.26186	19961.5
1383.72883	19663.6
1387.19347	19411.4
1390.65578	19091.4
1394.11575	18832.2
1397.57339	18704.3
1401.0287	18679
1404.48168	18620.4
1407.93234	18490.6
1411.38068	18367.4
1414.82669	18181
1418.27039	17881.3
1421.71177	17595.8
1425.15083	17394.2
1428.58758	17337.8
1432.02203	17420.3
1435.45416	17683
1438.88399	17845.1
1442.31151	17994.2
1445.73673	18016.1
1449.15965	17987.7
1452.58027	17902.5
1455.9986	17856.2
1459.41463	17885.5
1462.82837	18064.4
1466.23982	18322.5
1469.64898	18565.2
1473.05586	18704.4
1476.46045	18801.2
1479.86276	18836.5
1483.26279	18905.2
1486.66054	18970.7
1490.05602	19148.7
1493.44922	19381.8
1496.84016	19752.9
1500.22882	20256
1503.61521	20957.4
1506.99934	21816.7
1510.38121	22523.4
1513.76081	22690
1517.13816	22159.4
1520.51324	21192.9
1523.88607	20311.2
1527.25665	19723
1530.62498	19463
1533.99105	19325.1
1537.35488	19197.8
1540.71647	18974.3
1544.07581	18777.6
1547.4329	18526.4
1550.78776	18368.5
1554.14038	18251.1
1557.49077	18264
1560.83892	18281
1564.18484	18394.9
1567.52853	18565.9
1570.86999	18745.5
1574.20922	18873.7
1577.54624	18953.6
1580.88103	18813.2
1584.2136	18625.1
1587.54395	18631.5
1590.87208	19018.7
1594.19801	19648.6
1597.52172	20382.2
1600.84321	20631.7
1604.16251	20209.6
1607.47959	19323.4
1610.79447	18344
1614.10715	17457.1
1617.41763	16749
1620.7259	16309.7
1624.03199	16099.7
1627.33587	16102.7
1630.63757	16325.6
1633.93707	16815
1637.23439	17594.1
1640.52951	18883.2
1643.82246	20409.1
1647.11321	21840
1650.40179	22256.1
1653.68819	21305.9
1656.97241	19505.4
1660.25446	17704.5
1663.53433	16357.6
1666.81203	15556.7
1670.08756	15050.2
1673.36092	14789.8
1676.63211	14527.9
1679.90115	14367
1683.16801	14186.8
1686.43272	14071.2
1689.69527	13927
1692.95567	13833.4
1696.2139	13732
1699.46999	13665
1702.72392	13573
1705.97571	13513.7
1709.22535	13475.6
1712.47284	13444.3
1715.71819	13396
1718.96139	13357.4
1722.20246	13333.1
1725.44139	13258.2
1728.67818	13216.3
1731.91284	13162.3
1735.14537	13092.9
1738.37576	13010.7
1741.60403	12965.8
1744.83017	12966.8
1748.05418	12956.5
1751.27607	12940.2
1754.49584	12896
1757.71349	12896.6
1760.92903	12871.8
1764.14244	12863.2
1767.35375	12871.2
1770.56294	12815.7
1773.77002	12787.3
1776.97499	12796.3
1780.17785	12797.4
1783.37861	12788.4
1786.57727	12759
1789.77382	12720.9
1792.96828	12715.1
1796.16064	12659.1
1799.3509	12672.3
1802.53907	12645.8
1805.72514	12578
1808.90913	12586.1
1812.09102	12565.5
1815.27083	12550.4
1818.44856	12553.3
1821.6242	12532.5
1824.79776	12503.5
1827.96924	12478.9
1831.13864	12485.7
1834.30597	12482.1
1837.47122	12475.2
1840.6344	12453.4
1843.7955	12427.3
1846.95454	12405.6
1850.11151	12422.5
1853.26642	12399.8
1856.41926	12416.6
1859.57004	12416.1
1862.71876	12419.2
1865.86542	12396.2
1869.01003	12421.2
1872.15258	12410.9
1875.29308	12376.4
1878.43152	12363.2
1881.56792	12321.3
1884.70227	12317.7
1887.83457	12286.7
1890.96482	12298.1
1894.09304	12268.8
1897.21921	12235
1900.34335	12236.2
1903.46544	12223.2
1906.58551	12191
1909.70353	12209.8
1912.81953	12180.6
1915.93349	12178.9
1919.04543	12142.3
1922.15534	12120
1925.26322	12094.9
1928.36908	12073.5
1931.47292	12068.7
1934.57473	12051.2
1937.67453	12010.4
1940.77232	11987.5
1943.86808	11945.9
1946.96184	11920.5
1950.05358	11872.8
1953.14331	11883.8
1956.23103	11846.3
1959.31675	11798.9
1962.40046	11773.4
1965.48217	11723.9
1968.56188	11708.5
1971.63959	11655.1
1974.7153	11652.6
1977.78901	11612.5
1980.86073	11603
1983.93046	11551.4
1986.99819	11500
1990.06394	11464.5
1993.1277	11480.1
1996.18947	11436
1999.24925	11376.2
2002.30706	11344
2005.36288	11312.6
2008.41672	11296.3
2011.46859	11282.5
2014.51848	11236.7
2017.56639	11200.4
2020.61233	11189.5
2023.6563	11153.1
2026.6983	11128.2
2029.73833	11101.4
2032.7764	11067.3
2035.8125	11051
2038.84664	11011.2
2041.87881	11005
2044.90903	10998.9
2047.93729	10970
2050.96359	10962
2053.98794	10946.4
2057.01034	10933.6
2060.03078	10924.2
2063.04927	10921.2
2066.06582	10934
2069.08042	10880.4
2072.09307	10860.3
2075.10378	10869.7
2078.11255	10873.8
2081.11938	10904.4
2084.12426	10894.2
2087.12722	10898.5
2090.12824	10860.8
2093.12732	10878
2096.12447	10881.9
2099.11969	10868.1
2102.11299	10896.9
2105.10435	10876.1
2108.09379	10885
2111.08131	10911.2
2114.0669	10904.1
2117.05057	10925.4
2120.03233	10930.1
2123.01216	10932.2
2125.99008	10924.6
2128.96609	10950.7
2131.94018	10977
2134.91236	11001.8
2137.88263	10996.8
2140.851	11003.1
2143.81746	11008.7
2146.78201	10995.7
2149.74466	10990
2152.7054	10981.5
2155.66425	10974.7
2158.6212	10973.5
2161.57625	10973.5
2164.52941	10937
2167.48067	10979.2
2170.43004	10989.7
2173.37752	11003.6
2176.32311	10984.7
2179.26681	10992.1
2182.20863	10960.6
2185.14856	10975.6
2188.08661	10970
2191.02278	10952.4
2193.95707	10947.7
2196.88948	10959.3
2199.82001	10968.5
2202.74867	10931.4
2205.67545	10936.6
2208.60037	10876.9
2211.52341	10857.6
2214.44458	10861.4
2217.36388	10837
2220.28132	10805.6
2223.1969	10797.8
2226.11061	10808.6
2229.02246	10776
2231.93245	10746.8
2234.84058	10758.1
2237.74686	10712.1
2240.65128	10735.3
2243.55385	10680
2246.45456	10690.7
2249.35343	10648
2252.25044	10643.6
2255.14561	10638.1
2258.03893	10625.2
2260.93041	10618.9
2263.82004	10599.8
2266.70783	10554.3
2269.59378	10523.8
2272.4779	10492.5
2275.36017	10491.4
2278.24061	10457.3
2281.11922	10425.2
2283.996	10414
2286.87094	10421.2
2289.74405	10395
2292.61534	10387.2
2295.4848	10356.5
2298.35243	10367.9
2301.21824	10375.2
2304.08223	10372.2
2306.94439	10332.3
2309.80474	10372.9
2312.66327	10369.8
2315.51999	10354.1
2318.37489	10328.4
2321.22797	10321.6
2324.07925	10321.7
2326.92871	10266.7
2329.77637	10262.6
2332.62222	10255.8
2335.46626	10252.4
2338.3085	10221.9
2341.14893	10227.7
2343.98756	10216.8
2346.8244	10208.3
2349.65943	10205.1
2352.49267	10153.9
2355.32411	10178.9
2358.15376	10184.8
2360.98161	10195.4
2363.80768	10174.7
2366.63195	10204.9
2369.45444	10167.6
2372.27514	10184.7
2375.09405	10129.1
2377.91118	10113.5
2380.72652	10094.1
2383.54009	10057.5
2386.35187	10079.6
2389.16188	10046.3
2391.97011	10004.5
2394.77657	9980.4
2397.58125	9970.3
2400.38416	9976.2
2403.18529	9940.1
2405.98466	9917.5
2408.78226	9909.9
2411.57809	9913.8
2414.37216	9891.6
2417.16446	9862.6
2419.955	9858.8
2422.74378	9871.8
2425.5308	9871.6
2428.31606	9885.5
2431.09956	9863.9
2433.88131	9853.1
2436.6613	9837.6
2439.43954	9833.8
2442.21603	9814.7
2444.99077	9808.6
2447.76377	9814.3
2450.53501	9813
2453.30451	9791.2
2456.07226	9758.7
2458.83827	9774.4
2461.60254	9763.5
2464.36507	9751.9
2467.12586	9763.9
2469.88492	9746.1
2472.64224	9724
2475.39782	9724.8
2478.15167	9732.1
2480.90379	9750.1
2483.65417	9732.5
2486.40283	9734.8
2489.14976	9734.3
2491.89497	9713.8
2494.63845	9723.1
2497.3802	9714.8
2500.12024	9717.5
2502.85855	9662.2
2505.59514	9685.7
2508.33002	9666.6
2511.06318	9658.2
2513.79462	9651.4
2516.52435	9607
2519.25237	9621.4
2521.97867	9624.5
2524.70327	9604.8
2527.42616	9567.3
2530.14734	9547.6
2532.86681	9528.7
2535.58458	9539.8
2538.30065	9541.1
2541.01501	9516.3
2543.72768	9508.7
2546.43864	9445.6
2549.14791	9439.2
2551.85548	9448
2554.56136	9459.9
2557.26554	9449
2559.96803	9423.9
2562.66883	9423.5
2565.36794	9377.4
2568.06536	9354.2
2570.7611	9353.2
2573.45514	9370.2
2576.14751	9343.4
2578.83819	9317
2581.52719	9305.1
2584.21451	9281.4
2586.90015	9284
2589.58411	9283.1
2592.2664	9260.7
2594.94701	9233.8
2597.62594	9219.9
2600.30321	9203
2602.9788	9189.7
2605.65273	9176.6
2608.32498	9188
2610.99557	9182.1
2613.66449	9174.1
2616.33175	9165.9
2618.99734	9160.9
2621.66128	9150.8
2624.32355	9143
2626.98416	9127.5
2629.64311	9093.9
2632.30041	9094.8
2634.95605	9090.7
2637.61004	9091.4
2640.26238	9063.4
2642.91306	9068.4
2645.56209	9028.2
2648.20948	9037.3
2650.85521	9026.7
2653.4993	9041.5
2656.14175	9032.5
2658.78255	9048.7
2661.42171	9012.6
2664.05923	9061.4
2666.6951	9018.6
2669.32934	9052.1
2671.96194	9034.2
2674.59291	9054.2
2677.22224	9027.5
2679.84993	9005.6
2682.476	9011.6
2685.10043	9035.4
2687.72324	9038.3
2690.34441	9027.3
2692.96396	9012.9
2695.58188	9030.7
2698.19818	9018.5
2700.81285	8976.4
2703.4259	8995.5
2706.03733	9005.1
2708.64714	9005.3
2711.25533	9013.9
2713.86191	8997.9
2716.46687	9008.4
2719.07021	9028.2
2721.67194	9037.9
2724.27206	9015.2
2726.87057	9037.2
2729.46747	9029.9
2732.06276	9022.9
2734.65644	9038.5
2737.24852	9046.1
2739.83899	8974.9
2742.42786	9017.4
2745.01513	8994.2
2747.60079	8989.1
2750.18486	8983.3
2752.76733	8985
2755.3482	8960.3
2757.92747	8968.4
2760.50515	8944.3
2763.08123	8941.8
2765.65573	8929.2
2768.22863	8918.4
2770.79994	8898.3
2773.36967	8888.6
2775.9378	8865
2778.50435	8854.9
2781.06932	8844.8
2783.6327	8848.3
2786.1945	8850.4
2788.75471	8797.8
2791.31335	8793.4
2793.87041	8799.9
2796.42589	8776.9
2798.97979	8749.7
2801.53212	8731.2
2804.08288	8720.4
2806.63206	8656.6
2809.17967	8679.9
2811.72571	8691.8
2814.27018	8656.5
2816.81308	8622
2819.35442	8596.9
2821.89419	8585.1
2824.43239	8585.1
2826.96904	8575.2
2829.50412	8580.5
2832.03763	8572.8
2834.56959	8569.2
2837.1	8550.1
2839.62884	8549.8
2842.15613	8525.4
2844.68186	8547.8
2847.20604	8522.8
2849.72867	8538.9
2852.24974	8518
2854.76927	8509.2
2857.28724	8510.3
2859.80367	8526.5
2862.31855	8498.7
2864.83189	8485.2
2867.34368	8496.6
2869.85393	8475.2
2872.36264	8461.6
2874.8698	8461.3
2877.37543	8472.4
2879.87952	8502.5
2882.38207	8456.5
2884.88308	8468
2887.38256	8469.3
2889.88051	8422.8
2892.37692	8469.8
2894.8718	8449.5
2897.36515	8451
2899.85698	8443
2902.34727	8448.4
2904.83604	8446
2907.32328	8488.8
2909.809	8480.1
2912.29319	8478.5
2914.77587	8473.8
2917.25702	8488.7
2919.73665	8457.4
2922.21476	8450.7
2924.69136	8490.7
2927.16644	8446
2929.64	8430.7
2932.11205	8436.4
2934.58258	8427.7
2937.05161	8435
2939.51912	8408
2941.98513	8422.8
2944.44962	8413.6
2946.91261	8381
2949.37409	8384.6
2951.83407	8372.7
2954.29254	8339
2956.74951	8345.7
2959.20498	8327
2961.65895	8338.8
2964.11142	8360.8
2966.56239	8344.4
2969.01186	8316.5
2971.45984	8314.4
2973.90632	8342.1
2976.35131	8321.9
2978.7948	8287.4
2981.23681	8263
2983.67732	8253.1
2986.11635	8230.3
2988.55388	8230
2990.98993	8235.3
2993.4245	8225
2995.85758	8197.5
2998.28917	8184.8
3000.71928	8174.3
3003.14791	8136.1
3005.57506	8119.9
3008.00073	8100
3010.42493	8127.7
3012.84764	8100.5
3015.26888	8100.6
3017.68865	8082.5
3020.10694	8074.9
3022.52376	8063
3024.9391	8060.5
3027.35298	8047.9
3029.76539	8041.8
3032.17632	8035.7
3034.5858	8018.7
3036.9938	8024.3
3039.40034	8019.6
3041.80542	8021.8
3044.20903	7997
3046.61118	8020.4
3049.01187	7962
3051.4111	7977.2
3053.80888	7965.4
3056.20519	7972.3
3058.60005	7959.5
3060.99345	7954.4
3063.3854	7916.4
3065.7759	7894.4
3068.16494	7877.1
3070.55254	7859.3
3072.93868	7871.1
3075.32338	7817.4
3077.70662	7852.9
3080.08842	7817.9
3082.46878	7776.6
3084.84769	7785.8
3087.22515	7807.2
3089.60118	7802.6
3091.97576	7808.2
3094.3489	7795.4
3096.72061	7818.2
3099.09087	7813.7
3101.4597	7824.8
3103.82709	7822.7
3106.19305	7819.6
3108.55757	7824.9
3110.92066	7805.7
3113.28232	7792
3115.64255	7780.2
3118.00134	7757.1
3120.35871	7739.1
3122.71466	7756.3
3125.06917	7733.3
3127.42226	7736.7
3129.77393	7749
3132.12417	7730.2
3134.47299	7745.3
3136.82039	7742.2
3139.16636	7716.6
3141.51092	7734.3
3143.85406	7736.5
3146.19579	7738.1
3148.53609	7742.3
3150.87499	7764.5
3153.21246	7753.4
3155.54853	7748.5
3157.88318	7759.8
3160.21642	7783
3162.54826	7776.7
3164.87868	7796.1
3167.2077	7785.2
3169.5353	7826.4
3171.86151	7786.9
3174.18631	7801.3
3176.5097	7790.2
3178.83169	7784.9
3181.15228	7789.3
3183.47147	7759.5
3185.78926	7780.5
3188.10565	7738.8
3190.42065	7746.6
3192.73424	7760.1
3195.04645	7766
3197.35725	7750.3
3199.66667	7762.5
3201.97469	7748.5
3204.28132	7754.6
3206.58656	7748.9
3208.8904	7738.1
3211.19287	7758.1
3213.49394	7754.2
3215.79363	7803.4
3218.09193	7802
3220.38884	7753.1
3222.68438	7796
3224.97853	7779.8
3227.2713	7774.6
3229.56269	7784.2
3231.8527	7787.9
3234.14133	7780
3236.42858	7762.7
3238.71446	7747.4
3240.99896	7715.8
3243.28209	7713.1
3245.56384	7675.8
3247.84423	7676.6
3250.12324	7681.3
3252.40088	7691.9
3254.67715	7683.9
3256.95205	7641.9
3259.22558	7645.7
3261.49775	7641.5
3263.76855	7649
3266.03799	7639
3268.30606	7632.7
3270.57277	7616.7
3272.83812	7605.9
3275.10211	7595.8
3277.36474	7567.2
3279.62601	7577.3
3281.88593	7549.4
3284.14448	7554.4
3286.40168	7546.8
3288.65753	7544.6
3290.91202	7549.6
3293.16516	7519.3
3295.41695	7513.2
3297.66738	7484.7
3299.91647	7475.6
3302.16421	7395.5
3304.4106	7379
3306.65564	7351.1
3308.89933	7288.7
3311.14169	7279
3313.38269	7210.9
3315.62236	7162.3
3317.86068	7113.9
3320.09766	7071.1
3322.3333	7035.6
3324.5676	7009.4
3326.80056	6920.5
3329.03219	6883.2
3331.26248	3.8
3333.49143	-0.9
3335.71905	0.4
