Data from AgNPs_APTES_FTO_UA_50uM_CRN_0uM_R6G_10uM_Scan_RamanShift__12__11-25-03-663.txt Node

Date: Tue Jul 05 11:25:03 BST 2022
User: TCL
Spectrometer: QEP01345
Trigger mode: 4
Integration Time (sec): 7.000000E0
Scans to average: 10
Electric dark correction enabled: true
Nonlinearity correction enabled: false
Boxcar width: 0
XAxis mode: Raman Shifts
Number of Pixels in Spectrum: 1044
>>>>>Begin Spectral Data<<<<<
46.04893	0
50.45542	1.4
54.85868	0.3
59.25871	0.1
63.6555	40.2
68.04907	44.2
72.43941	44.3
76.82654	48.8
81.21044	51.1
85.59113	55
89.96862	53.1
94.34289	56.3
98.71396	62.1
103.08183	64.4
107.4465	61.8
111.80798	65.5
116.16626	61.4
120.52136	60.6
124.87327	63
129.222	66
133.56755	66
137.90993	67.8
142.24913	70.4
146.58517	74.7
150.91804	80.6
155.24774	90
159.57429	107.7
163.89768	132.7
168.21792	167.7
172.53501	215
176.84895	293.5
181.15975	397.7
185.46741	549.3
189.77193	750.7
194.07331	992.8
198.37157	1283.3
202.6667	1575.4
206.9587	1889.6
211.24758	2187.2
215.53334	2505.2
219.81599	2844.4
224.09553	3217.8
228.37195	3642.3
232.64527	4073.1
236.91549	4544.5
241.18261	4951.4
245.44663	5321.1
249.70755	5611.5
253.96539	5832.4
258.22014	6038.3
262.4718	6186.6
266.72039	6282.5
270.96589	6300.2
275.20832	6258.1
279.44768	6120.9
283.68397	5961.8
287.91719	5832.3
292.14735	5744.2
296.37445	5787.1
300.59849	5921.8
304.81948	6079.9
309.03742	6250.8
313.25231	6298.1
317.46415	6161.3
321.67296	5854.5
325.87872	5529.6
330.08145	5344.3
334.28114	5264
338.47781	5307.1
342.67145	5432.2
346.86207	5600.8
351.04966	5816.3
355.23424	6074.6
359.4158	6239.4
363.59435	6317
367.76989	6283.5
371.94243	6256.5
376.11196	6226.3
380.27849	6183.9
384.44203	6160
388.60257	6133.7
392.76012	6117
396.91468	6166
401.06626	6252.1
405.21485	6323
409.36047	6210.3
413.50311	6030.4
417.64277	5937.5
421.77947	5862.5
425.9132	5613.7
430.04396	5492.1
434.17176	5515.1
438.2966	5554.2
442.41849	5661.5
446.53742	5801
450.6534	5920.1
454.76644	5982.4
458.87653	5943.4
462.98368	5846.4
467.08789	5785.9
471.18916	5699.9
475.2875	5593.3
479.38291	5514.2
483.4754	5471.3
487.56496	5458.3
491.6516	5474.1
495.73531	5500
499.81612	5538.5
503.89401	5605.9
507.96899	5685.9
512.04106	5740.6
516.11023	5827.7
520.1765	5882.3
524.23987	5869.8
528.30034	5833.5
532.35792	5791.4
536.41261	5679
540.46441	5574.6
544.51333	5488.5
548.55936	5501.5
552.60252	5569.6
556.64279	5716
560.6802	5790.4
564.71473	5862.5
568.7464	5999.1
572.7752	6078.8
576.80114	5935.8
580.82422	5796.5
584.84444	5810.1
588.86181	5945.4
592.87633	6083.2
596.888	6197
600.89682	6286.1
604.9028	6789
608.90594	8379.1
612.90624	10495.8
616.90371	10244.3
620.89834	7636.7
624.89015	6254.1
628.87913	5954.8
632.86528	6006.8
636.84862	6115.5
640.82913	6017.7
644.80683	5756.1
648.78172	5554
652.75379	5515
656.72306	5620.4
660.68952	5835.2
664.65319	5764.5
668.61405	5545.7
672.57211	5427.5
676.52738	5507.4
680.47986	5687.8
684.42955	5838.4
688.37646	5899.8
692.32058	5815.7
696.26192	5695.4
700.20048	5600.6
704.13626	5558.8
708.06928	5535.3
711.99952	5487.3
715.927	5481.2
719.85171	5477
723.77365	5490.2
727.69284	5457.1
731.60928	5424
735.52295	5385.5
739.43388	5387.7
743.34206	5399.2
747.24749	5407
751.15017	5405.2
755.05012	5483.2
758.94733	5664.9
762.8418	6230.3
766.73354	7178
770.62254	8165.6
774.50882	8571.2
778.39237	8151.4
782.27321	7211.2
786.15132	6317.4
790.02671	5789.9
793.89938	5537.2
797.76935	5434.1
801.6366	5427.4
805.50115	5421.4
809.36299	5423.7
813.22213	5422.4
817.07857	5385.6
820.93231	5338.3
824.78336	5314.8
828.63172	5287.9
832.47738	5288.7
836.32036	5274.3
840.16066	5248.7
843.99827	5255.1
847.8332	5261.3
851.66546	5261.2
855.49504	5237.1
859.32195	5237.2
863.1462	5226.9
866.96777	5227.9
870.78668	5250.5
874.60293	5278.7
878.41652	5297.8
882.22745	5358.1
886.03573	5403.2
889.84136	5439.8
893.64433	5473.8
897.44466	5483.5
901.24235	5507.8
905.0374	5482.8
908.8298	5546.5
912.61957	5591.3
916.40671	5695.7
920.19121	5811.4
923.97308	5964.8
927.75233	6060.8
931.52895	6135.9
935.30295	6057.2
939.07433	5821.9
942.84309	5566.6
946.60924	5389.7
950.37278	5250.6
954.13371	5160.1
957.89203	5072.3
961.64774	4989.6
965.40086	4916.1
969.15137	4860
972.89929	4813.3
976.64461	4764
980.38733	4740.2
984.12747	4689.3
987.86502	4670.8
991.59999	4682.7
995.33237	4707.3
999.06217	4742.7
1002.78939	4806.2
1006.51404	4868.1
1010.23611	4974.8
1013.95561	5022.4
1017.67255	5056.1
1021.38692	5015.4
1025.09872	4933.3
1028.80796	4859.1
1032.51465	4809.4
1036.21877	4784
1039.92035	4775.5
1043.61937	4813.6
1047.31584	4807.8
1051.00976	4825.2
1054.70114	4833.6
1058.38998	4841.5
1062.07627	4849.4
1065.76003	4864
1069.44126	4845.6
1073.11995	4858.4
1076.79611	4910.6
1080.46974	4978.9
1084.14085	5064.7
1087.80943	5197
1091.47549	5258.4
1095.13903	5132.5
1098.80005	4959.7
1102.45857	4819.4
1106.11456	4749
1109.76805	4763.2
1113.41903	4860.1
1117.06751	5061.3
1120.71348	5265.4
1124.35696	5517.8
1127.99793	5818.8
1131.63641	5904
1135.2724	5687.7
1138.90589	5408.4
1142.5369	5194.5
1146.16542	5047.1
1149.79145	4904.9
1153.415	4826
1157.03607	4830.6
1160.65467	4874.8
1164.27079	5031.3
1167.88443	5251.8
1171.49561	5651.5
1175.10432	6293.2
1178.71056	7195.7
1182.31434	7987.9
1185.91565	8152.7
1189.51451	7841.1
1193.11091	7290.7
1196.70485	6745.9
1200.29634	6328.7
1203.88538	5986.2
1207.47197	5637.9
1211.05612	5294.5
1214.63782	5064.7
1218.21708	4955.1
1221.79391	4938.4
1225.36829	4969.4
1228.94024	4984.5
1232.50976	4966
1236.07685	4904.2
1239.6415	4868.5
1243.20374	4873.1
1246.76355	4905.9
1250.32093	4959.2
1253.8759	5025.8
1257.42845	5176.5
1260.97859	5357.7
1264.52631	5571.6
1268.07163	5781.9
1271.61453	5933.9
1275.15503	6033.7
1278.69312	6073.8
1282.22882	6107.2
1285.76211	6240.9
1289.29301	6486.5
1292.82151	6785.1
1296.34761	7093.5
1299.87133	7493
1303.39266	8103.8
1306.9116	9005.6
1310.42815	10119.6
1313.94233	10873.7
1317.45412	10685
1320.96354	9793.4
1324.47058	8839
1327.97525	7973.7
1331.47754	7354.2
1334.97747	7026.6
1338.47502	6949
1341.97022	7052.4
1345.46305	7449.6
1348.95352	8139.5
1352.44163	9077
1355.92738	10251.2
1359.41078	11939.5
1362.89183	13809.9
1366.37053	14175.5
1369.84688	12226.4
1373.32088	9708.9
1376.79254	8099.9
1380.26186	7354.3
1383.72883	6986.7
1387.19347	6698.2
1390.65578	6431.1
1394.11575	6205.6
1397.57339	6078.9
1401.0287	6021.4
1404.48168	5963
1407.93234	5833.4
1411.38068	5746.6
1414.82669	5661
1418.27039	5612
1421.71177	5576.3
1425.15083	5474.8
1428.58758	5359.5
1432.02203	5349.6
1435.45416	5414
1438.88399	5454.3
1442.31151	5437.3
1445.73673	5419.4
1449.15965	5387
1452.58027	5339.7
1455.9986	5283.2
1459.41463	5238.2
1462.82837	5260.2
1466.23982	5345
1469.64898	5459.7
1473.05586	5556.8
1476.46045	5608.6
1479.86276	5666.4
1483.26279	5775.8
1486.66054	5905.2
1490.05602	6121.6
1493.44922	6431.9
1496.84016	6926.8
1500.22882	7719
1503.61521	8881.8
1506.99934	10305.4
1510.38121	11737.6
1513.76081	12445.3
1517.13816	11904.8
1520.51324	10329.9
1523.88607	8644.8
1527.25665	7445.3
1530.62498	6757.2
1533.99105	6299.9
1537.35488	6032.9
1540.71647	5824.9
1544.07581	5697.7
1547.4329	5617.8
1550.78776	5604.3
1554.14038	5642.3
1557.49077	5716.6
1560.83892	5841.6
1564.18484	6055.5
1567.52853	6324.1
1570.86999	6578.4
1574.20922	6767.4
1577.54624	6781.8
1580.88103	6415.9
1584.2136	5902.3
1587.54395	5474.4
1590.87208	5357.8
1594.19801	5522.3
1597.52172	5895.5
1600.84321	6084.4
1604.16251	5887.1
1607.47959	5571.7
1610.79447	5230.3
1614.10715	4934.7
1617.41763	4688.2
1620.7259	4495.6
1624.03199	4429
1627.33587	4453.8
1630.63757	4541.5
1633.93707	4731.4
1637.23439	5058.9
1640.52951	5643.9
1643.82246	6541.8
1647.11321	7658.3
1650.40179	8584.8
1653.68819	8621.4
1656.97241	7609.4
1660.25446	6199.6
1663.53433	5160.7
1666.81203	4507.8
1670.08756	4135.9
1673.36092	3930.7
1676.63211	3792.5
1679.90115	3711.7
1683.16801	3650.6
1686.43272	3609
1689.69527	3573.5
1692.95567	3541
1696.2139	3527.3
1699.46999	3508.7
1702.72392	3469.6
1705.97571	3435.7
1709.22535	3397.8
1712.47284	3352.6
1715.71819	3316.1
1718.96139	3265.6
1722.20246	3220.1
1725.44139	3167.6
1728.67818	3141.9
1731.91284	3096.6
1735.14537	3049.1
1738.37576	3006.4
1741.60403	2982
1744.83017	2979.8
1748.05418	2946.4
1751.27607	2934.5
1754.49584	2925.9
1757.71349	2907.8
1760.92903	2883
1764.14244	2866
1767.35375	2864.5
1770.56294	2849.1
1773.77002	2825.4
1776.97499	2827.7
1780.17785	2804.2
1783.37861	2805.1
1786.57727	2801
1789.77382	2771.7
1792.96828	2768.5
1796.16064	2756.4
1799.3509	2747.9
1802.53907	2742.2
1805.72514	2718.4
1808.90913	2719.2
1812.09102	2689.3
1815.27083	2684.5
1818.44856	2669.9
1821.6242	2669.9
1824.79776	2657.3
1827.96924	2637.9
1831.13864	2630.6
1834.30597	2640.1
1837.47122	2631.1
1840.6344	2607
1843.7955	2611.2
1846.95454	2600.7
1850.11151	2590.8
1853.26642	2581.2
1856.41926	2579.7
1859.57004	2580.4
1862.71876	2563.3
1865.86542	2561
1869.01003	2568.4
1872.15258	2555.2
1875.29308	2549.9
1878.43152	2542.7
1881.56792	2527.5
1884.70227	2523.1
1887.83457	2510
1890.96482	2514.7
1894.09304	2510.8
1897.21921	2511.4
1900.34335	2497.2
1903.46544	2478.7
1906.58551	2486
1909.70353	2479.6
1912.81953	2450.2
1915.93349	2458.7
1919.04543	2459.7
1922.15534	2440.9
1925.26322	2437.6
1928.36908	2425.8
1931.47292	2428.4
1934.57473	2390.4
1937.67453	2398.9
1940.77232	2386.5
1943.86808	2368.9
1946.96184	2356.7
1950.05358	2355.9
1953.14331	2354.6
1956.23103	2348.6
1959.31675	2331.6
1962.40046	2323.3
1965.48217	2312.8
1968.56188	2320.8
1971.63959	2299.9
1974.7153	2306.1
1977.78901	2289
1980.86073	2286.4
1983.93046	2270.9
1986.99819	2263.1
1990.06394	2256.2
1993.1277	2245.3
1996.18947	2237.8
1999.24925	2227.6
2002.30706	2219.2
2005.36288	2210.1
2008.41672	2188.5
2011.46859	2190.7
2014.51848	2186.7
2017.56639	2170.7
2020.61233	2166.1
2023.6563	2152.7
2026.6983	2136
2029.73833	2139.1
2032.7764	2121.1
2035.8125	2116.1
2038.84664	2103.3
2041.87881	2105.1
2044.90903	2109.8
2047.93729	2105.2
2050.96359	2104.8
2053.98794	2096.4
2057.01034	2079.8
2060.03078	2083.5
2063.04927	2093.3
2066.06582	2084.6
2069.08042	2067.1
2072.09307	2062.3
2075.10378	2060.1
2078.11255	2070.1
2081.11938	2073.4
2084.12426	2073
2087.12722	2071.4
2090.12824	2061.5
2093.12732	2065.7
2096.12447	2066.5
2099.11969	2065.7
2102.11299	2069.1
2105.10435	2072.2
2108.09379	2069.4
2111.08131	2075.8
2114.0669	2054.3
2117.05057	2063.7
2120.03233	2059.1
2123.01216	2061.7
2125.99008	2058.6
2128.96609	2054.9
2131.94018	2051
2134.91236	2047.1
2137.88263	2041.5
2140.851	2043.6
2143.81746	2032.2
2146.78201	2017
2149.74466	2012.5
2152.7054	2018.4
2155.66425	2000.9
2158.6212	1996
2161.57625	1982.2
2164.52941	1969.4
2167.48067	1980.3
2170.43004	1986
2173.37752	1987
2176.32311	1963.4
2179.26681	1971.6
2182.20863	1960.1
2185.14856	1972.5
2188.08661	1967.7
2191.02278	1958.1
2193.95707	1949.4
2196.88948	1950.8
2199.82001	1948.2
2202.74867	1947.3
2205.67545	1945.2
2208.60037	1925.1
2211.52341	1923.2
2214.44458	1923.5
2217.36388	1915.1
2220.28132	1907.3
2223.1969	1896.9
2226.11061	1904.4
2229.02246	1885.9
2231.93245	1884.6
2234.84058	1881.3
2237.74686	1877.2
2240.65128	1878.1
2243.55385	1871.4
2246.45456	1862.5
2249.35343	1859.1
2252.25044	1855
2255.14561	1851.6
2258.03893	1854.9
2260.93041	1840.3
2263.82004	1843
2266.70783	1840.6
2269.59378	1831.1
2272.4779	1824.3
2275.36017	1816.7
2278.24061	1818.1
2281.11922	1809
2283.996	1795.6
2286.87094	1797.3
2289.74405	1789.9
2292.61534	1784.6
2295.4848	1780.2
2298.35243	1768.8
2301.21824	1767.2
2304.08223	1756.4
2306.94439	1754.1
2309.80474	1753.6
2312.66327	1746.7
2315.51999	1757.8
2318.37489	1730.4
2321.22797	1744.2
2324.07925	1738.2
2326.92871	1740.7
2329.77637	1730.4
2332.62222	1745.6
2335.46626	1722.4
2338.3085	1717
2341.14893	1711
2343.98756	1721.5
2346.8244	1712.7
2349.65943	1712.2
2352.49267	1713.4
2355.32411	1712.8
2358.15376	1718.2
2360.98161	1722.1
2363.80768	1713.5
2366.63195	1728.6
2369.45444	1730.6
2372.27514	1728
2375.09405	1725.3
2377.91118	1719.2
2380.72652	1709.3
2383.54009	1707.2
2386.35187	1691.6
2389.16188	1682.1
2391.97011	1672.1
2394.77657	1655.1
2397.58125	1653
2400.38416	1653.9
2403.18529	1644.5
2405.98466	1641.8
2408.78226	1630.2
2411.57809	1619
2414.37216	1624
2417.16446	1618.4
2419.955	1610.6
2422.74378	1615.6
2425.5308	1612.5
2428.31606	1605.6
2431.09956	1615.9
2433.88131	1600.7
2436.6613	1605.5
2439.43954	1609.9
2442.21603	1609.2
2444.99077	1605.9
2447.76377	1605.3
2450.53501	1597.4
2453.30451	1600
2456.07226	1595.7
2458.83827	1588
2461.60254	1585.3
2464.36507	1577.1
2467.12586	1590.1
2469.88492	1574.1
2472.64224	1572.8
2475.39782	1583.2
2478.15167	1587.8
2480.90379	1587.3
2483.65417	1582.8
2486.40283	1584.2
2489.14976	1593
2491.89497	1585.4
2494.63845	1582.4
2497.3802	1578.4
2500.12024	1579.4
2502.85855	1577
2505.59514	1567.1
2508.33002	1562.2
2511.06318	1538.4
2513.79462	1541.5
2516.52435	1529.8
2519.25237	1526.5
2521.97867	1516.8
2524.70327	1502.5
2527.42616	1491.7
2530.14734	1490.3
2532.86681	1493.1
2535.58458	1481.9
2538.30065	1484.7
2541.01501	1486.2
2543.72768	1476.4
2546.43864	1485.1
2549.14791	1470.9
2551.85548	1473.3
2554.56136	1464.8
2557.26554	1479.5
2559.96803	1470.4
2562.66883	1462.5
2565.36794	1463.6
2568.06536	1466.9
2570.7611	1458.5
2573.45514	1446.3
2576.14751	1446.1
2578.83819	1441.5
2581.52719	1440.8
2584.21451	1436.6
2586.90015	1433.9
2589.58411	1425
2592.2664	1427.3
2594.94701	1417.9
2597.62594	1411.9
2600.30321	1409.7
2602.9788	1417.1
2605.65273	1403.5
2608.32498	1409.2
2610.99557	1404.9
2613.66449	1399
2616.33175	1393.3
2618.99734	1400
2621.66128	1398.7
2624.32355	1397.7
2626.98416	1391.2
2629.64311	1377.3
2632.30041	1391.7
2634.95605	1383.1
2637.61004	1381.6
2640.26238	1376.7
2642.91306	1368.2
2645.56209	1370.9
2648.20948	1360.9
2650.85521	1365.7
2653.4993	1356.2
2656.14175	1370.1
2658.78255	1368.8
2661.42171	1366.1
2664.05923	1362.3
2666.6951	1366.2
2669.32934	1376.1
2671.96194	1367.3
2674.59291	1377.2
2677.22224	1368.7
2679.84993	1377.2
2682.476	1362.1
2685.10043	1371.4
2687.72324	1367.3
2690.34441	1364
2692.96396	1370.1
2695.58188	1356.8
2698.19818	1357.2
2700.81285	1369.6
2703.4259	1363.5
2706.03733	1348.2
2708.64714	1342.5
2711.25533	1360.6
2713.86191	1350.6
2716.46687	1372.2
2719.07021	1358.5
2721.67194	1362.3
2724.27206	1364
2726.87057	1365
2729.46747	1356.5
2732.06276	1359.7
2734.65644	1361.2
2737.24852	1357.6
2739.83899	1354.4
2742.42786	1352.5
2745.01513	1341.8
2747.60079	1344
2750.18486	1339.5
2752.76733	1333.2
2755.3482	1324.6
2757.92747	1332.7
2760.50515	1325.3
2763.08123	1326.4
2765.65573	1324.6
2768.22863	1319.9
2770.79994	1309.8
2773.36967	1312.2
2775.9378	1315.2
2778.50435	1304.9
2781.06932	1314
2783.6327	1309.2
2786.1945	1310.1
2788.75471	1306.4
2791.31335	1296.2
2793.87041	1296.7
2796.42589	1299.5
2798.97979	1296.1
2801.53212	1290
2804.08288	1288.9
2806.63206	1288
2809.17967	1273.4
2811.72571	1278.7
2814.27018	1266
2816.81308	1275.8
2819.35442	1277.3
2821.89419	1271
2824.43239	1277.6
2826.96904	1279
2829.50412	1282.8
2832.03763	1276.1
2834.56959	1277.6
2837.1	1285.6
2839.62884	1284.3
2842.15613	1288.7
2844.68186	1300.7
2847.20604	1309.9
2849.72867	1317.1
2852.24974	1321.3
2854.76927	1313.4
2857.28724	1316.5
2859.80367	1325
2862.31855	1319.1
2864.83189	1327.3
2867.34368	1330.3
2869.85393	1333.1
2872.36264	1320.7
2874.8698	1325.2
2877.37543	1338.3
2879.87952	1339.5
2882.38207	1325.5
2884.88308	1340.8
2887.38256	1329.3
2889.88051	1330.9
2892.37692	1331.5
2894.8718	1335.7
2897.36515	1335
2899.85698	1344.8
2902.34727	1349.1
2904.83604	1354.9
2907.32328	1365.5
2909.809	1380.1
2912.29319	1378.1
2914.77587	1385.9
2917.25702	1391.9
2919.73665	1390.7
2922.21476	1398
2924.69136	1406.3
2927.16644	1402.8
2929.64	1391.6
2932.11205	1387.4
2934.58258	1390.6
2937.05161	1388.1
2939.51912	1375.8
2941.98513	1374.6
2944.44962	1365.6
2946.91261	1355
2949.37409	1333.6
2951.83407	1325.9
2954.29254	1316
2956.74951	1308.9
2959.20498	1300.4
2961.65895	1299
2964.11142	1291.1
2966.56239	1278.3
2969.01186	1237.8
2971.45984	1254.2
2973.90632	1268.7
2976.35131	1258.8
2978.7948	1243.9
2981.23681	1245.2
2983.67732	1241.4
2986.11635	1225.1
2988.55388	1229
2990.98993	1219.4
2993.4245	1225.1
2995.85758	1216.8
2998.28917	1220.4
3000.71928	1223
3003.14791	1211.1
3005.57506	1218.5
3008.00073	1218
3010.42493	1208.8
3012.84764	1208.8
3015.26888	1205.4
3017.68865	1201.8
3020.10694	1205
3022.52376	1210.2
3024.9391	1210.3
3027.35298	1198.5
3029.76539	1202.9
3032.17632	1194
3034.5858	1200.2
3036.9938	1202.8
3039.40034	1198.9
3041.80542	1194.9
3044.20903	1190.4
3046.61118	1203.7
3049.01187	1186.5
3051.4111	1188.1
3053.80888	1194.6
3056.20519	1192.6
3058.60005	1197.7
3060.99345	1195.3
3063.3854	1186.8
3065.7759	1187.8
3068.16494	1195
3070.55254	1188.1
3072.93868	1197.9
3075.32338	1195.7
3077.70662	1196.3
3080.08842	1188.8
3082.46878	1190.3
3084.84769	1187.7
3087.22515	1185.1
3089.60118	1199.2
3091.97576	1199.1
3094.3489	1200.9
3096.72061	1201.7
3099.09087	1204.1
3101.4597	1212.1
3103.82709	1217.4
3106.19305	1218.8
3108.55757	1222.4
3110.92066	1221.1
3113.28232	1232.2
3115.64255	1226.3
3118.00134	1233.8
3120.35871	1232.2
3122.71466	1232
3125.06917	1244
3127.42226	1240.7
3129.77393	1245.3
3132.12417	1249.4
3134.47299	1255
3136.82039	1261.4
3139.16636	1265.2
3141.51092	1273.1
3143.85406	1277.9
3146.19579	1284.1
3148.53609	1294.7
3150.87499	1299.5
3153.21246	1311.8
3155.54853	1305.1
3157.88318	1307
3160.21642	1313.5
3162.54826	1325.7
3164.87868	1329.9
3167.2077	1338.2
3169.5353	1343.8
3171.86151	1345.7
3174.18631	1354.1
3176.5097	1364.7
3178.83169	1353.2
3181.15228	1363.5
3183.47147	1363.3
3185.78926	1360.8
3188.10565	1365.8
3190.42065	1374.5
3192.73424	1368.8
3195.04645	1390.7
3197.35725	1379.2
3199.66667	1387.9
3201.97469	1392.7
3204.28132	1394.4
3206.58656	1404.4
3208.8904	1401.3
3211.19287	1406.6
3213.49394	1414.9
3215.79363	1424.8
3218.09193	1426.1
3220.38884	1419.9
3222.68438	1430.6
3224.97853	1422.5
3227.2713	1434.6
3229.56269	1434.5
3231.8527	1432.6
3234.14133	1445
3236.42858	1433.7
3238.71446	1436.2
3240.99896	1433.9
3243.28209	1434
3245.56384	1430.8
3247.84423	1437.1
3250.12324	1419.6
3252.40088	1437.9
3254.67715	1427.2
3256.95205	1425
3259.22558	1432.8
3261.49775	1426
3263.76855	1437.7
3266.03799	1429.3
3268.30606	1429.8
3270.57277	1423
3272.83812	1427.6
3275.10211	1433.7
3277.36474	1422.8
3279.62601	1413.2
3281.88593	1413.6
3284.14448	1423.1
3286.40168	1421.6
3288.65753	1414.7
3290.91202	1418.6
3293.16516	1415.8
3295.41695	1422.1
3297.66738	1412.9
3299.91647	1415.4
3302.16421	1406.5
3304.4106	1406.5
3306.65564	1385.2
3308.89933	1386
3311.14169	1383.4
3313.38269	1365
3315.62236	1357
3317.86068	1344.4
3320.09766	1343.2
3322.3333	1338.6
3324.5676	1324.4
3326.80056	1319.3
3329.03219	1305.8
3331.26248	0.1
3333.49143	-1
3335.71905	-0.5
