Data from AgNPs_APTES_FTO_UA_50uM_CRN_0uM_R6G_10uM_Scan_RamanShift__35__11-51-53-698.txt Node

Date: Tue Jul 05 11:51:53 BST 2022
User: TCL
Spectrometer: QEP01345
Trigger mode: 4
Integration Time (sec): 7.000000E0
Scans to average: 10
Electric dark correction enabled: true
Nonlinearity correction enabled: false
Boxcar width: 0
XAxis mode: Raman Shifts
Number of Pixels in Spectrum: 1044
>>>>>Begin Spectral Data<<<<<
46.04893	-0.4125
50.45542	0.0875
54.85868	-0.6125
59.25871	0.2875
63.6555	38.9875
68.04907	41.1875
72.43941	42.8875
76.82654	46.3875
81.21044	48.2875
85.59113	52.8875
89.96862	54.1875
94.34289	53.4875
98.71396	59.3875
103.08183	59.2875
107.4465	56.5875
111.80798	60.5875
116.16626	62.3875
120.52136	57.1875
124.87327	60.2875
129.222	63.8875
133.56755	65.2875
137.90993	61.2875
142.24913	66.1875
146.58517	74.9875
150.91804	77.3875
155.24774	85.9875
159.57429	98.3875
163.89768	122.5875
168.21792	153.9875
172.53501	198.5875
176.84895	266.8875
181.15975	368.8875
185.46741	504.2875
189.77193	676.6875
194.07331	898.7875
198.37157	1142.1875
202.6667	1403.3875
206.9587	1653.0875
211.24758	1901.6875
215.53334	2149.4875
219.81599	2411.6875
224.09553	2694.6875
228.37195	3009.3875
232.64527	3337.5875
236.91549	3678.0875
241.18261	3967.5875
245.44663	4236.2875
249.70755	4438.7875
253.96539	4612.8875
258.22014	4731.7875
262.4718	4853.6875
266.72039	4922.6875
270.96589	4968.6875
275.20832	4942.5875
279.44768	4865.0875
283.68397	4795.4875
287.91719	4728.6875
292.14735	4709.5875
296.37445	4756.2875
300.59849	4860.7875
304.81948	5006.5875
309.03742	5109.3875
313.25231	5083.8875
317.46415	4905.2875
321.67296	4610.3875
325.87872	4335.8875
330.08145	4217.1875
334.28114	4162.8875
338.47781	4201.5875
342.67145	4278.1875
346.86207	4417.7875
351.04966	4624.1875
355.23424	4852.7875
359.4158	5056.2875
363.59435	5181.3875
367.76989	5249.5875
371.94243	5305.0875
376.11196	5324.4875
380.27849	5345.4875
384.44203	5339.8875
388.60257	5309.8875
392.76012	5266.3875
396.91468	5292.7875
401.06626	5381.9875
405.21485	5415.5875
409.36047	5328.1875
413.50311	5100.3875
417.64277	4856.1875
421.77947	4719.2875
425.9132	4631.8875
430.04396	4649.5875
434.17176	4667.8875
438.2966	4717.5875
442.41849	4853.1875
446.53742	5012.0875
450.6534	5132.7875
454.76644	5182.2875
458.87653	5172.1875
462.98368	5126.3875
467.08789	5071.1875
471.18916	5018.2875
475.2875	4970.4875
479.38291	4933.2875
483.4754	4956.9875
487.56496	5083.3875
491.6516	5229.5875
495.73531	5289.9875
499.81612	5261.5875
503.89401	5162.6875
507.96899	5088.0875
512.04106	5115.2875
516.11023	5201.9875
520.1765	5311.6875
524.23987	5396.2875
528.30034	5373.2875
532.35792	5292.5875
536.41261	5137.1875
540.46441	4966.7875
544.51333	4808.6875
548.55936	4748.8875
552.60252	4757.1875
556.64279	4792.2875
560.6802	4823.4875
564.71473	4840.7875
568.7464	4954.4875
572.7752	5038.7875
576.80114	4973.6875
580.82422	4870.2875
584.84444	4967.6875
588.86181	5125.1875
592.87633	5275.5875
596.888	5362.9875
600.89682	5367.6875
604.9028	5767.4875
608.90594	7029.6875
612.90624	8697.7875
616.90371	8591.8875
620.89834	6907.4875
624.89015	6379.8875
628.87913	6732.6875
632.86528	7254.1875
636.84862	7549.7875
640.82913	7376.0875
644.80683	6854.7875
648.78172	6200.7875
652.75379	5734.9875
656.72306	5506.6875
660.68952	5400.1875
664.65319	5196.8875
668.61405	4918.7875
672.57211	4784.8875
676.52738	4780.9875
680.47986	4771.4875
684.42955	4749.0875
688.37646	4722.3875
692.32058	4694.8875
696.26192	4699.3875
700.20048	4689.9875
704.13626	4730.9875
708.06928	4691.7875
711.99952	4669.4875
715.927	4693.0875
719.85171	4773.9875
723.77365	4892.8875
727.69284	4883.6875
731.60928	4838.9875
735.52295	4752.8875
739.43388	4695.9875
743.34206	4698.8875
747.24749	4688.8875
751.15017	4688.2875
755.05012	4721.2875
758.94733	4859.2875
762.8418	5263.9875
766.73354	5944.2875
770.62254	6711.4875
774.50882	7132.0875
778.39237	6917.1875
782.27321	6142.7875
786.15132	5330.9875
790.02671	4894.6875
793.89938	4702.6875
797.76935	4707.1875
801.6366	4837.6875
805.50115	5128.1875
809.36299	5392.5875
813.22213	5482.6875
817.07857	5323.9875
820.93231	5059.7875
824.78336	4806.7875
828.63172	4587.2875
832.47738	4480.4875
836.32036	4403.8875
840.16066	4385.8875
843.99827	4339.8875
847.8332	4352.6875
851.66546	4315.5875
855.49504	4315.0875
859.32195	4318.8875
863.1462	4346.4875
866.96777	4414.9875
870.78668	4544.9875
874.60293	4748.4875
878.41652	4950.2875
882.22745	5151.1875
886.03573	5294.2875
889.84136	5256.0875
893.64433	5082.7875
897.44466	4860.1875
901.24235	4640.7875
905.0374	4441.7875
908.8298	4317.4875
912.61957	4237.1875
916.40671	4198.4875
920.19121	4161.5875
923.97308	4182.4875
927.75233	4207.5875
931.52895	4239.3875
935.30295	4207.6875
939.07433	4101.8875
942.84309	3996.9875
946.60924	3923.0875
950.37278	3883.3875
954.13371	3850.5875
957.89203	3828.5875
961.64774	3816.8875
965.40086	3787.9875
969.15137	3767.6875
972.89929	3756.0875
976.64461	3747.2875
980.38733	3734.0875
984.12747	3726.6875
987.86502	3748.0875
991.59999	3787.0875
995.33237	3879.4875
999.06217	3961.9875
1002.78939	4107.1875
1006.51404	4247.2875
1010.23611	4399.9875
1013.95561	4493.9875
1017.67255	4508.8875
1021.38692	4448.1875
1025.09872	4304.6875
1028.80796	4177.6875
1032.51465	4058.6875
1036.21877	3997.9875
1039.92035	3963.0875
1043.61937	3957.3875
1047.31584	3951.4875
1051.00976	3951.6875
1054.70114	3964.1875
1058.38998	4026.1875
1062.07627	4098.3875
1065.76003	4164.4875
1069.44126	4222.3875
1073.11995	4261.1875
1076.79611	4299.5875
1080.46974	4318.5875
1084.14085	4344.8875
1087.80943	4363.8875
1091.47549	4331.7875
1095.13903	4197.0875
1098.80005	4046.9875
1102.45857	3934.9875
1106.11456	3929.3875
1109.76805	4011.4875
1113.41903	4170.7875
1117.06751	4459.2875
1120.71348	4839.2875
1124.35696	5345.8875
1127.99793	5914.6875
1131.63641	6351.1875
1135.2724	6434.1875
1138.90589	6314.4875
1142.5369	5992.0875
1146.16542	5569.3875
1149.79145	5112.2875
1153.415	4699.3875
1157.03607	4406.3875
1160.65467	4255.8875
1164.27079	4220.7875
1167.88443	4333.2875
1171.49561	4613.8875
1175.10432	5091.8875
1178.71056	5839.6875
1182.31434	6498.5875
1185.91565	6784.3875
1189.51451	6795.6875
1193.11091	6723.5875
1196.70485	6632.6875
1200.29634	6610.0875
1203.88538	6516.6875
1207.47197	6194.0875
1211.05612	5818.9875
1214.63782	5450.6875
1218.21708	5137.2875
1221.79391	4894.4875
1225.36829	4674.8875
1228.94024	4491.0875
1232.50976	4379.9875
1236.07685	4313.2875
1239.6415	4313.2875
1243.20374	4340.4875
1246.76355	4353.5875
1250.32093	4429.3875
1253.8759	4478.4875
1257.42845	4610.8875
1260.97859	4721.2875
1264.52631	4855.4875
1268.07163	4959.3875
1271.61453	5040.4875
1275.15503	5037.2875
1278.69312	5021.2875
1282.22882	4997.4875
1285.76211	5067.7875
1289.29301	5215.5875
1292.82151	5437.5875
1296.34761	5651.9875
1299.87133	5957.8875
1303.39266	6403.2875
1306.9116	7081.3875
1310.42815	7886.7875
1313.94233	8421.7875
1317.45412	8315.8875
1320.96354	7738.0875
1324.47058	7088.2875
1327.97525	6513.4875
1331.47754	6175.1875
1334.97747	6106.3875
1338.47502	6208.5875
1341.97022	6412.8875
1345.46305	6698.9875
1348.95352	7219.5875
1352.44163	7943.9875
1355.92738	8894.0875
1359.41078	10111.0875
1362.89183	11211.3875
1366.37053	11066.3875
1369.84688	9661.5875
1373.32088	8070.8875
1376.79254	6998.7875
1380.26186	6398.4875
1383.72883	6053.6875
1387.19347	5781.9875
1390.65578	5480.8875
1394.11575	5224.4875
1397.57339	5053.2875
1401.0287	4951.2875
1404.48168	4852.1875
1407.93234	4749.7875
1411.38068	4672.2875
1414.82669	4567.5875
1418.27039	4465.4875
1421.71177	4372.6875
1425.15083	4286.0875
1428.58758	4257.5875
1432.02203	4259.0875
1435.45416	4310.3875
1438.88399	4342.4875
1442.31151	4333.3875
1445.73673	4325.9875
1449.15965	4297.3875
1452.58027	4280.5875
1455.9986	4198.0875
1459.41463	4149.7875
1462.82837	4178.0875
1466.23982	4258.1875
1469.64898	4381.2875
1473.05586	4470.5875
1476.46045	4554.2875
1479.86276	4670.0875
1483.26279	4856.9875
1486.66054	5028.2875
1490.05602	5247.3875
1493.44922	5484.8875
1496.84016	5834.9875
1500.22882	6394.8875
1503.61521	7148.7875
1506.99934	8029.1875
1510.38121	8806.3875
1513.76081	9134.3875
1517.13816	8721.4875
1520.51324	7644.1875
1523.88607	6580.6875
1527.25665	5863.1875
1530.62498	5504.1875
1533.99105	5370.5875
1537.35488	5303.6875
1540.71647	5302.9875
1544.07581	5339.9875
1547.4329	5393.9875
1550.78776	5440.3875
1554.14038	5455.7875
1557.49077	5478.3875
1560.83892	5504.9875
1564.18484	5595.1875
1567.52853	5767.2875
1570.86999	5935.3875
1574.20922	6083.3875
1577.54624	6081.6875
1580.88103	5837.1875
1584.2136	5466.3875
1587.54395	5198.4875
1590.87208	5140.9875
1594.19801	5310.5875
1597.52172	5646.3875
1600.84321	5893.9875
1604.16251	5877.5875
1607.47959	5679.5875
1610.79447	5399.4875
1614.10715	5095.1875
1617.41763	4897.2875
1620.7259	4785.7875
1624.03199	4787.5875
1627.33587	4838.7875
1630.63757	4966.8875
1633.93707	5183.2875
1637.23439	5550.9875
1640.52951	6108.0875
1643.82246	6866.5875
1647.11321	7703.3875
1650.40179	8370.7875
1653.68819	8343.7875
1656.97241	7578.8875
1660.25446	6548.0875
1663.53433	5675.4875
1666.81203	5022.4875
1670.08756	4521.0875
1673.36092	4156.3875
1676.63211	3893.1875
1679.90115	3686.2875
1683.16801	3539.4875
1686.43272	3415.3875
1689.69527	3312.8875
1692.95567	3233.0875
1696.2139	3146.5875
1699.46999	3072.0875
1702.72392	2992.5875
1705.97571	2910.4875
1709.22535	2843.8875
1712.47284	2786.0875
1715.71819	2759.0875
1718.96139	2727.5875
1722.20246	2698.9875
1725.44139	2654.0875
1728.67818	2611.7875
1731.91284	2575.2875
1735.14537	2546.8875
1738.37576	2528.5875
1741.60403	2514.2875
1744.83017	2489.8875
1748.05418	2470.7875
1751.27607	2464.5875
1754.49584	2461.0875
1757.71349	2439.9875
1760.92903	2428.1875
1764.14244	2416.0875
1767.35375	2400.5875
1770.56294	2389.0875
1773.77002	2382.2875
1776.97499	2361.1875
1780.17785	2347.8875
1783.37861	2340.4875
1786.57727	2335.9875
1789.77382	2317.0875
1792.96828	2302.2875
1796.16064	2280.8875
1799.3509	2285.7875
1802.53907	2279.6875
1805.72514	2268.0875
1808.90913	2254.6875
1812.09102	2245.5875
1815.27083	2239.1875
1818.44856	2221.9875
1821.6242	2225.0875
1824.79776	2211.7875
1827.96924	2206.8875
1831.13864	2191.8875
1834.30597	2184.3875
1837.47122	2177.6875
1840.6344	2180.7875
1843.7955	2171.5875
1846.95454	2166.1875
1850.11151	2164.6875
1853.26642	2146.6875
1856.41926	2154.4875
1859.57004	2136.1875
1862.71876	2123.2875
1865.86542	2136.0875
1869.01003	2132.5875
1872.15258	2113.6875
1875.29308	2123.0875
1878.43152	2111.6875
1881.56792	2110.7875
1884.70227	2106.9875
1887.83457	2103.6875
1890.96482	2092.2875
1894.09304	2080.9875
1897.21921	2079.0875
1900.34335	2078.5875
1903.46544	2066.1875
1906.58551	2067.6875
1909.70353	2061.1875
1912.81953	2064.3875
1915.93349	2056.9875
1919.04543	2048.1875
1922.15534	2046.3875
1925.26322	2038.1875
1928.36908	2034.2875
1931.47292	2026.9875
1934.57473	2005.8875
1937.67453	1991.4875
1940.77232	1988.4875
1943.86808	1977.5875
1946.96184	1965.3875
1950.05358	1969.1875
1953.14331	1962.4875
1956.23103	1959.3875
1959.31675	1939.5875
1962.40046	1938.6875
1965.48217	1934.3875
1968.56188	1927.5875
1971.63959	1922.4875
1974.7153	1911.6875
1977.78901	1908.4875
1980.86073	1895.8875
1983.93046	1886.3875
1986.99819	1870.5875
1990.06394	1865.9875
1993.1277	1864.6875
1996.18947	1862.4875
1999.24925	1849.7875
2002.30706	1835.2875
2005.36288	1836.0875
2008.41672	1822.9875
2011.46859	1824.8875
2014.51848	1814.1875
2017.56639	1812.7875
2020.61233	1800.7875
2023.6563	1797.7875
2026.6983	1784.3875
2029.73833	1776.6875
2032.7764	1771.9875
2035.8125	1772.4875
2038.84664	1764.3875
2041.87881	1754.5875
2044.90903	1752.0875
2047.93729	1744.5875
2050.96359	1760.7875
2053.98794	1743.8875
2057.01034	1739.4875
2060.03078	1733.7875
2063.04927	1735.2875
2066.06582	1731.4875
2069.08042	1727.5875
2072.09307	1714.7875
2075.10378	1714.2875
2078.11255	1719.9875
2081.11938	1724.7875
2084.12426	1716.9875
2087.12722	1722.3875
2090.12824	1712.6875
2093.12732	1712.3875
2096.12447	1710.8875
2099.11969	1701.5875
2102.11299	1705.9875
2105.10435	1697.3875
2108.09379	1700.6875
2111.08131	1704.6875
2114.0669	1696.2875
2117.05057	1709.6875
2120.03233	1701.0875
2123.01216	1702.6875
2125.99008	1691.4875
2128.96609	1698.8875
2131.94018	1706.1875
2134.91236	1694.4875
2137.88263	1696.9875
2140.851	1700.2875
2143.81746	1702.7875
2146.78201	1695.5875
2149.74466	1682.6875
2152.7054	1683.9875
2155.66425	1673.0875
2158.6212	1670.2875
2161.57625	1662.5875
2164.52941	1667.8875
2167.48067	1663.6875
2170.43004	1659.9875
2173.37752	1661.5875
2176.32311	1648.4875
2179.26681	1657.0875
2182.20863	1655.2875
2185.14856	1648.1875
2188.08661	1646.9875
2191.02278	1641.5875
2193.95707	1637.0875
2196.88948	1641.3875
2199.82001	1643.6875
2202.74867	1631.9875
2205.67545	1629.5875
2208.60037	1616.6875
2211.52341	1619.1875
2214.44458	1613.3875
2217.36388	1604.6875
2220.28132	1597.6875
2223.1969	1604.3875
2226.11061	1594.2875
2229.02246	1583.7875
2231.93245	1589.7875
2234.84058	1570.1875
2237.74686	1582.2875
2240.65128	1576.6875
2243.55385	1572.2875
2246.45456	1569.5875
2249.35343	1569.8875
2252.25044	1569.3875
2255.14561	1569.4875
2258.03893	1565.8875
2260.93041	1565.7875
2263.82004	1548.3875
2266.70783	1550.7875
2269.59378	1546.0875
2272.4779	1546.9875
2275.36017	1527.0875
2278.24061	1536.3875
2281.11922	1530.3875
2283.996	1522.4875
2286.87094	1518.1875
2289.74405	1513.7875
2292.61534	1509.0875
2295.4848	1497.0875
2298.35243	1500.4875
2301.21824	1496.5875
2304.08223	1493.4875
2306.94439	1478.2875
2309.80474	1478.8875
2312.66327	1475.6875
2315.51999	1489.2875
2318.37489	1473.6875
2321.22797	1475.3875
2324.07925	1472.9875
2326.92871	1464.0875
2329.77637	1468.6875
2332.62222	1463.2875
2335.46626	1452.0875
2338.3085	1450.5875
2341.14893	1447.9875
2343.98756	1451.5875
2346.8244	1444.5875
2349.65943	1442.8875
2352.49267	1451.2875
2355.32411	1441.4875
2358.15376	1447.6875
2360.98161	1452.3875
2363.80768	1455.5875
2366.63195	1448.7875
2369.45444	1450.0875
2372.27514	1463.3875
2375.09405	1460.1875
2377.91118	1450.0875
2380.72652	1447.3875
2383.54009	1442.4875
2386.35187	1431.7875
2389.16188	1425.0875
2391.97011	1420.4875
2394.77657	1398.5875
2397.58125	1410.6875
2400.38416	1401.8875
2403.18529	1397.4875
2405.98466	1394.9875
2408.78226	1394.6875
2411.57809	1379.4875
2414.37216	1382.2875
2417.16446	1374.3875
2419.955	1368.7875
2422.74378	1373.1875
2425.5308	1367.8875
2428.31606	1374.7875
2431.09956	1362.9875
2433.88131	1355.8875
2436.6613	1366.5875
2439.43954	1367.1875
2442.21603	1357.7875
2444.99077	1363.0875
2447.76377	1352.7875
2450.53501	1357.9875
2453.30451	1355.3875
2456.07226	1353.6875
2458.83827	1353.1875
2461.60254	1349.7875
2464.36507	1349.5875
2467.12586	1348.4875
2469.88492	1342.4875
2472.64224	1329.6875
2475.39782	1347.2875
2478.15167	1338.3875
2480.90379	1338.6875
2483.65417	1340.1875
2486.40283	1347.6875
2489.14976	1349.6875
2491.89497	1353.7875
2494.63845	1347.0875
2497.3802	1340.6875
2500.12024	1337.5875
2502.85855	1335.2875
2505.59514	1334.5875
2508.33002	1324.8875
2511.06318	1322.0875
2513.79462	1314.8875
2516.52435	1307.4875
2519.25237	1300.7875
2521.97867	1289.7875
2524.70327	1289.6875
2527.42616	1281.2875
2530.14734	1284.1875
2532.86681	1270.3875
2535.58458	1284.0875
2538.30065	1281.7875
2541.01501	1275.4875
2543.72768	1273.2875
2546.43864	1265.2875
2549.14791	1260.2875
2551.85548	1272.1875
2554.56136	1260.6875
2557.26554	1267.8875
2559.96803	1261.4875
2562.66883	1256.2875
2565.36794	1258.4875
2568.06536	1246.2875
2570.7611	1254.2875
2573.45514	1252.3875
2576.14751	1245.3875
2578.83819	1242.1875
2581.52719	1241.6875
2584.21451	1229.0875
2586.90015	1231.7875
2589.58411	1226.9875
2592.2664	1222.5875
2594.94701	1225.8875
2597.62594	1217.7875
2600.30321	1214.4875
2602.9788	1219.5875
2605.65273	1214.0875
2608.32498	1212.8875
2610.99557	1206.6875
2613.66449	1212.9875
2616.33175	1215.5875
2618.99734	1207.3875
2621.66128	1199.9875
2624.32355	1205.9875
2626.98416	1206.6875
2629.64311	1190.5875
2632.30041	1199.7875
2634.95605	1194.3875
2637.61004	1187.7875
2640.26238	1190.5875
2642.91306	1189.3875
2645.56209	1180.9875
2648.20948	1181.5875
2650.85521	1177.5875
2653.4993	1174.9875
2656.14175	1179.4875
2658.78255	1184.6875
2661.42171	1189.8875
2664.05923	1192.5875
2666.6951	1187.1875
2669.32934	1183.1875
2671.96194	1184.0875
2674.59291	1183.3875
2677.22224	1185.1875
2679.84993	1191.7875
2682.476	1195.4875
2685.10043	1194.6875
2687.72324	1190.1875
2690.34441	1188.2875
2692.96396	1190.4875
2695.58188	1190.8875
2698.19818	1191.3875
2700.81285	1198.8875
2703.4259	1193.2875
2706.03733	1208.1875
2708.64714	1202.5875
2711.25533	1209.0875
2713.86191	1194.9875
2716.46687	1214.7875
2719.07021	1211.1875
2721.67194	1206.9875
2724.27206	1213.2875
2726.87057	1211.5875
2729.46747	1215.2875
2732.06276	1212.3875
2734.65644	1211.7875
2737.24852	1205.2875
2739.83899	1202.1875
2742.42786	1201.7875
2745.01513	1208.6875
2747.60079	1193.3875
2750.18486	1198.6875
2752.76733	1199.9875
2755.3482	1192.8875
2757.92747	1190.6875
2760.50515	1182.9875
2763.08123	1195.2875
2765.65573	1189.5875
2768.22863	1190.3875
2770.79994	1182.7875
2773.36967	1190.2875
2775.9378	1188.8875
2778.50435	1195.1875
2781.06932	1188.4875
2783.6327	1191.2875
2786.1945	1203.6875
2788.75471	1195.6875
2791.31335	1207.9875
2793.87041	1213.4875
2796.42589	1208.1875
2798.97979	1211.3875
2801.53212	1203.6875
2804.08288	1202.7875
2806.63206	1208.1875
2809.17967	1215.7875
2811.72571	1216.5875
2814.27018	1215.9875
2816.81308	1209.0875
2819.35442	1218.2875
2821.89419	1218.6875
2824.43239	1223.1875
2826.96904	1222.4875
2829.50412	1231.5875
2832.03763	1224.2875
2834.56959	1230.3875
2837.1	1240.1875
2839.62884	1237.3875
2842.15613	1257.2875
2844.68186	1277.7875
2847.20604	1282.2875
2849.72867	1304.8875
2852.24974	1305.7875
2854.76927	1317.7875
2857.28724	1311.8875
2859.80367	1306.3875
2862.31855	1307.9875
2864.83189	1307.1875
2867.34368	1308.6875
2869.85393	1295.8875
2872.36264	1295.1875
2874.8698	1290.2875
2877.37543	1296.0875
2879.87952	1287.6875
2882.38207	1293.5875
2884.88308	1284.8875
2887.38256	1285.4875
2889.88051	1288.9875
2892.37692	1287.2875
2894.8718	1291.7875
2897.36515	1288.1875
2899.85698	1284.5875
2902.34727	1304.8875
2904.83604	1293.8875
2907.32328	1298.8875
2909.809	1305.2875
2912.29319	1292.6875
2914.77587	1299.6875
2917.25702	1307.6875
2919.73665	1294.5875
2922.21476	1302.9875
2924.69136	1299.6875
2927.16644	1294.9875
2929.64	1281.3875
2932.11205	1282.7875
2934.58258	1261.1875
2937.05161	1268.3875
2939.51912	1252.9875
2941.98513	1243.5875
2944.44962	1233.1875
2946.91261	1213.9875
2949.37409	1204.4875
2951.83407	1189.4875
2954.29254	1190.7875
2956.74951	1175.6875
2959.20498	1173.3875
2961.65895	1174.4875
2964.11142	1178.4875
2966.56239	1161.2875
2969.01186	1122.8875
2971.45984	1144.7875
2973.90632	1146.3875
2976.35131	1154.5875
2978.7948	1139.3875
2981.23681	1141.3875
2983.67732	1137.7875
2986.11635	1126.1875
2988.55388	1124.2875
2990.98993	1124.7875
2993.4245	1128.2875
2995.85758	1121.3875
2998.28917	1116.9875
3000.71928	1123.9875
3003.14791	1116.6875
3005.57506	1117.6875
3008.00073	1116.0875
3010.42493	1119.7875
3012.84764	1126.1875
3015.26888	1117.0875
3017.68865	1124.4875
3020.10694	1123.8875
3022.52376	1123.2875
3024.9391	1128.8875
3027.35298	1125.0875
3029.76539	1125.1875
3032.17632	1130.8875
3034.5858	1117.9875
3036.9938	1130.8875
3039.40034	1135.5875
3041.80542	1128.4875
3044.20903	1134.8875
3046.61118	1137.0875
3049.01187	1137.9875
3051.4111	1139.1875
3053.80888	1142.1875
3056.20519	1135.9875
3058.60005	1139.9875
3060.99345	1156.1875
3063.3854	1152.5875
3065.7759	1160.2875
3068.16494	1157.1875
3070.55254	1155.4875
3072.93868	1156.0875
3075.32338	1164.3875
3077.70662	1153.0875
3080.08842	1160.7875
3082.46878	1158.7875
3084.84769	1163.8875
3087.22515	1166.3875
3089.60118	1172.0875
3091.97576	1178.0875
3094.3489	1176.6875
3096.72061	1188.2875
3099.09087	1194.5875
3101.4597	1200.6875
3103.82709	1198.8875
3106.19305	1214.7875
3108.55757	1215.1875
3110.92066	1218.5875
3113.28232	1223.4875
3115.64255	1231.7875
3118.00134	1223.5875
3120.35871	1231.2875
3122.71466	1243.2875
3125.06917	1253.4875
3127.42226	1244.7875
3129.77393	1264.5875
3132.12417	1263.5875
3134.47299	1270.6875
3136.82039	1289.3875
3139.16636	1296.0875
3141.51092	1294.4875
3143.85406	1312.7875
3146.19579	1315.4875
3148.53609	1322.7875
3150.87499	1336.1875
3153.21246	1346.7875
3155.54853	1347.2875
3157.88318	1349.5875
3160.21642	1364.7875
3162.54826	1372.0875
3164.87868	1381.6875
3167.2077	1383.8875
3169.5353	1404.8875
3171.86151	1412.7875
3174.18631	1425.3875
3176.5097	1430.4875
3178.83169	1427.4875
3181.15228	1426.0875
3183.47147	1439.1875
3185.78926	1451.7875
3188.10565	1440.0875
3190.42065	1461.1875
3192.73424	1471.7875
3195.04645	1467.0875
3197.35725	1486.9875
3199.66667	1493.1875
3201.97469	1498.7875
3204.28132	1492.6875
3206.58656	1509.2875
3208.8904	1507.6875
3211.19287	1511.6875
3213.49394	1529.8875
3215.79363	1532.4875
3218.09193	1529.8875
3220.38884	1550.2875
3222.68438	1555.3875
3224.97853	1554.6875
3227.2713	1550.3875
3229.56269	1551.0875
3231.8527	1554.6875
3234.14133	1568.3875
3236.42858	1564.2875
3238.71446	1552.4875
3240.99896	1560.2875
3243.28209	1559.7875
3245.56384	1558.1875
3247.84423	1562.8875
3250.12324	1552.5875
3252.40088	1561.9875
3254.67715	1561.0875
3256.95205	1552.2875
3259.22558	1553.6875
3261.49775	1564.4875
3263.76855	1560.4875
3266.03799	1559.8875
3268.30606	1566.5875
3270.57277	1557.4875
3272.83812	1548.1875
3275.10211	1565.4875
3277.36474	1553.3875
3279.62601	1564.0875
3281.88593	1552.6875
3284.14448	1543.3875
3286.40168	1548.6875
3288.65753	1558.1875
3290.91202	1550.8875
3293.16516	1546.5875
3295.41695	1552.2875
3297.66738	1551.3875
3299.91647	1545.1875
3302.16421	1522.1875
3304.4106	1519.1875
3306.65564	1524.4875
3308.89933	1504.1875
3311.14169	1507.6875
3313.38269	1498.0875
3315.62236	1483.6875
3317.86068	1471.2875
3320.09766	1455.2875
3322.3333	1448.1875
3324.5676	1454.2875
3326.80056	1441.6875
3329.03219	1422.4875
3331.26248	0.4875
3333.49143	-0.0125
3335.71905	-0.3125
