Data from AgNPs_APTES_FTO_UA_50uM_CRN_0uM_R6G_10uM_Scan_RamanShift__77__12-40-53-753.txt Node

Date: Tue Jul 05 12:40:53 BST 2022
User: TCL
Spectrometer: QEP01345
Trigger mode: 4
Integration Time (sec): 7.000000E0
Scans to average: 10
Electric dark correction enabled: true
Nonlinearity correction enabled: false
Boxcar width: 0
XAxis mode: Raman Shifts
Number of Pixels in Spectrum: 1044
>>>>>Begin Spectral Data<<<<<
46.04893	-1.3625
50.45542	-0.5625
54.85868	-0.9625
59.25871	-0.2625
63.6555	44.2375
68.04907	45.4375
72.43941	48.9375
76.82654	52.5375
81.21044	51.8375
85.59113	57.8375
89.96862	57.8375
94.34289	57.1375
98.71396	67.9375
103.08183	67.9375
107.4465	64.0375
111.80798	66.1375
116.16626	65.6375
120.52136	69.3375
124.87327	72.7375
129.222	71.2375
133.56755	72.0375
137.90993	73.9375
142.24913	80.1375
146.58517	89.0375
150.91804	98.5375
155.24774	112.3375
159.57429	129.0375
163.89768	165.6375
168.21792	214.9375
172.53501	282.9375
176.84895	396.8375
181.15975	548.3375
185.46741	772.4375
189.77193	1058.4375
194.07331	1423.7375
198.37157	1821.3375
202.6667	2250.3375
206.9587	2680.4375
211.24758	3093.4375
215.53334	3498.8375
219.81599	3913.8375
224.09553	4372.5375
228.37195	4866.6375
232.64527	5438.2375
236.91549	6042.8375
241.18261	6675.2375
245.44663	7313.2375
249.70755	7949.6375
253.96539	8521.8375
258.22014	8949.7375
262.4718	9321.7375
266.72039	9553.8375
270.96589	9659.7375
275.20832	9660.0375
279.44768	9538.7375
283.68397	9409.2375
287.91719	9277.8375
292.14735	9158.9375
296.37445	9047.7375
300.59849	8966.6375
304.81948	8886.3375
309.03742	8851.9375
313.25231	8821.3375
317.46415	8780.6375
321.67296	8783.6375
325.87872	8791.9375
330.08145	8846.5375
334.28114	8915.0375
338.47781	9026.3375
342.67145	9160.8375
346.86207	9265.6375
351.04966	9400.1375
355.23424	9522.0375
359.4158	9687.0375
363.59435	9776.0375
367.76989	9946.3375
371.94243	10068.3375
376.11196	10221.9375
380.27849	10294.5375
384.44203	10402.1375
388.60257	10516.3375
392.76012	10602.1375
396.91468	10647.8375
401.06626	10737.1375
405.21485	10849.3375
409.36047	10903.2375
413.50311	10922.9375
417.64277	10940.5375
421.77947	10964.0375
425.9132	11021.1375
430.04396	11079.2375
434.17176	11170.5375
438.2966	11258.3375
442.41849	11371.8375
446.53742	11470.7375
450.6534	11585.5375
454.76644	11703.9375
458.87653	11787.2375
462.98368	11869.1375
467.08789	11924.6375
471.18916	11963.0375
475.2875	11964.5375
479.38291	11946.6375
483.4754	11978.4375
487.56496	11993.8375
491.6516	12013.2375
495.73531	12041.0375
499.81612	12060.9375
503.89401	12139.9375
507.96899	12182.5375
512.04106	12227.6375
516.11023	12303.6375
520.1765	12321.8375
524.23987	12354.9375
528.30034	12414.3375
532.35792	12476.3375
536.41261	12487.9375
540.46441	12468.4375
544.51333	12506.8375
548.55936	12549.5375
552.60252	12612.0375
556.64279	12675.1375
560.6802	12799.1375
564.71473	12831.2375
568.7464	12825.5375
572.7752	12845.1375
576.80114	12833.0375
580.82422	12843.2375
584.84444	12880.2375
588.86181	12944.5375
592.87633	12982.2375
596.888	13061.8375
600.89682	13132.8375
604.9028	13322.3375
608.90594	13717.3375
612.90624	14092.7375
616.90371	13900.4375
620.89834	13504.0375
624.89015	13322.8375
628.87913	13354.8375
632.86528	13395.1375
636.84862	13437.3375
640.82913	13491.0375
644.80683	13472.0375
648.78172	13448.5375
652.75379	13456.8375
656.72306	13533.0375
660.68952	13672.0375
664.65319	13735.8375
668.61405	13743.3375
672.57211	13816.1375
676.52738	13892.0375
680.47986	13928.9375
684.42955	13983.6375
688.37646	14041.2375
692.32058	14149.4375
696.26192	14180.7375
700.20048	14242.9375
704.13626	14315.4375
708.06928	14320.2375
711.99952	14331.6375
715.927	14326.9375
719.85171	14333.2375
723.77365	14326.1375
727.69284	14264.7375
731.60928	14253.6375
735.52295	14257.2375
739.43388	14266.8375
743.34206	14335.6375
747.24749	14317.7375
751.15017	14373.4375
755.05012	14417.8375
758.94733	14463.8375
762.8418	14556.4375
766.73354	14706.2375
770.62254	14935.1375
774.50882	15072.6375
778.39237	15094.7375
782.27321	15013.5375
786.15132	14875.2375
790.02671	14736.9375
793.89938	14672.7375
797.76935	14632.8375
801.6366	14646.3375
805.50115	14629.5375
809.36299	14608.5375
813.22213	14628.7375
817.07857	14636.2375
820.93231	14669.7375
824.78336	14720.2375
828.63172	14747.0375
832.47738	14747.2375
836.32036	14758.4375
840.16066	14801.0375
843.99827	14853.2375
847.8332	14885.3375
851.66546	14917.6375
855.49504	14930.9375
859.32195	14953.4375
863.1462	14971.8375
866.96777	15004.2375
870.78668	15004.1375
874.60293	15088.3375
878.41652	15138.8375
882.22745	15128.6375
886.03573	15153.7375
889.84136	15179.0375
893.64433	15192.6375
897.44466	15182.4375
901.24235	15235.4375
905.0374	15253.2375
908.8298	15269.8375
912.61957	15264.7375
916.40671	15307.1375
920.19121	15281.1375
923.97308	15280.6375
927.75233	15304.4375
931.52895	15283.9375
935.30295	15268.9375
939.07433	15206.2375
942.84309	15197.1375
946.60924	15188.9375
950.37278	15179.1375
954.13371	15151.9375
957.89203	15184.1375
961.64774	15152.6375
965.40086	15159.0375
969.15137	15130.5375
972.89929	15124.8375
976.64461	15116.8375
980.38733	15121.1375
984.12747	15127.3375
987.86502	15143.2375
991.59999	15159.5375
995.33237	15195.2375
999.06217	15247.4375
1002.78939	15290.6375
1006.51404	15362.8375
1010.23611	15457.3375
1013.95561	15482.7375
1017.67255	15532.3375
1021.38692	15501.5375
1025.09872	15518.3375
1028.80796	15444.8375
1032.51465	15420.8375
1036.21877	15434.2375
1039.92035	15460.1375
1043.61937	15481.4375
1047.31584	15513.7375
1051.00976	15549.2375
1054.70114	15552.1375
1058.38998	15586.6375
1062.07627	15608.4375
1065.76003	15677.4375
1069.44126	15670.2375
1073.11995	15742.9375
1076.79611	15869.7375
1080.46974	15909.0375
1084.14085	15943.2375
1087.80943	15884.8375
1091.47549	15911.2375
1095.13903	15960.0375
1098.80005	15946.2375
1102.45857	15949.8375
1106.11456	15965.6375
1109.76805	15914.8375
1113.41903	15867.7375
1117.06751	15793.8375
1120.71348	15813.6375
1124.35696	15819.1375
1127.99793	15838.1375
1131.63641	15859.5375
1135.2724	15813.4375
1138.90589	15752.4375
1142.5369	15784.4375
1146.16542	15731.2375
1149.79145	15702.5375
1153.415	15649.7375
1157.03607	15585.0375
1160.65467	15543.6375
1164.27079	15634.9375
1167.88443	15707.3375
1171.49561	15772.2375
1175.10432	15901.9375
1178.71056	16107.9375
1182.31434	16263.2375
1185.91565	16437.3375
1189.51451	16536.7375
1193.11091	16611.4375
1196.70485	16598.5375
1200.29634	16584.9375
1203.88538	16509.0375
1207.47197	16387.9375
1211.05612	16313.8375
1214.63782	16225.8375
1218.21708	16168.0375
1221.79391	16021.5375
1225.36829	15982.8375
1228.94024	15917.5375
1232.50976	15880.5375
1236.07685	15895.9375
1239.6415	15886.1375
1243.20374	15946.5375
1246.76355	15973.6375
1250.32093	16042.1375
1253.8759	16095.1375
1257.42845	16212.8375
1260.97859	16273.1375
1264.52631	16347.4375
1268.07163	16373.2375
1271.61453	16412.6375
1275.15503	16442.8375
1278.69312	16418.7375
1282.22882	16404.9375
1285.76211	16360.8375
1289.29301	16392.7375
1292.82151	16390.5375
1296.34761	16422.0375
1299.87133	16551.5375
1303.39266	16638.5375
1306.9116	16804.8375
1310.42815	17000.8375
1313.94233	17103.4375
1317.45412	17169.4375
1320.96354	17173.5375
1324.47058	17109.2375
1327.97525	16954.4375
1331.47754	16777.4375
1334.97747	16692.1375
1338.47502	16738.9375
1341.97022	16918.9375
1345.46305	17150.2375
1348.95352	17377.8375
1352.44163	17471.0375
1355.92738	17462.0375
1359.41078	17438.2375
1362.89183	17395.0375
1366.37053	17161.8375
1369.84688	16827.1375
1373.32088	16472.3375
1376.79254	16185.5375
1380.26186	16016.9375
1383.72883	15873.0375
1387.19347	15741.1375
1390.65578	15580.5375
1394.11575	15496.2375
1397.57339	15415.9375
1401.0287	15366.5375
1404.48168	15343.0375
1407.93234	15347.3375
1411.38068	15319.2375
1414.82669	15363.3375
1418.27039	15290.4375
1421.71177	15247.6375
1425.15083	15220.5375
1428.58758	15172.7375
1432.02203	15122.5375
1435.45416	15103.9375
1438.88399	15068.7375
1442.31151	15100.1375
1445.73673	15096.9375
1449.15965	15066.4375
1452.58027	15087.3375
1455.9986	15044.5375
1459.41463	15076.8375
1462.82837	15136.4375
1466.23982	15239.1375
1469.64898	15302.1375
1473.05586	15351.8375
1476.46045	15361.9375
1479.86276	15420.9375
1483.26279	15440.8375
1486.66054	15449.8375
1490.05602	15488.0375
1493.44922	15568.1375
1496.84016	15734.4375
1500.22882	15922.8375
1503.61521	16151.6375
1506.99934	16329.0375
1510.38121	16392.1375
1513.76081	16356.5375
1517.13816	16236.4375
1520.51324	16052.4375
1523.88607	15930.1375
1527.25665	15812.8375
1530.62498	15720.7375
1533.99105	15677.6375
1537.35488	15667.6375
1540.71647	15705.1375
1544.07581	15717.3375
1547.4329	15720.9375
1550.78776	15710.8375
1554.14038	15699.3375
1557.49077	15695.9375
1560.83892	15695.1375
1564.18484	15727.2375
1567.52853	15742.0375
1570.86999	15765.6375
1574.20922	15803.4375
1577.54624	15786.9375
1580.88103	15734.7375
1584.2136	15657.2375
1587.54395	15612.8375
1590.87208	15634.6375
1594.19801	15667.6375
1597.52172	15801.9375
1600.84321	15881.1375
1604.16251	15897.4375
1607.47959	15874.3375
1610.79447	15750.4375
1614.10715	15517.5375
1617.41763	15290.9375
1620.7259	15116.0375
1624.03199	14977.0375
1627.33587	14969.1375
1630.63757	14955.4375
1633.93707	14980.5375
1637.23439	15035.2375
1640.52951	15227.0375
1643.82246	15411.6375
1647.11321	15585.5375
1650.40179	15671.1375
1653.68819	15560.3375
1656.97241	15303.7375
1660.25446	14995.3375
1663.53433	14807.3375
1666.81203	14665.3375
1670.08756	14563.2375
1673.36092	14495.2375
1676.63211	14423.2375
1679.90115	14366.6375
1683.16801	14307.3375
1686.43272	14300.6375
1689.69527	14313.1375
1692.95567	14265.2375
1696.2139	14241.2375
1699.46999	14236.8375
1702.72392	14224.8375
1705.97571	14246.2375
1709.22535	14251.5375
1712.47284	14252.3375
1715.71819	14272.9375
1718.96139	14277.6375
1722.20246	14229.0375
1725.44139	14187.4375
1728.67818	14202.4375
1731.91284	14148.8375
1735.14537	14099.9375
1738.37576	14027.9375
1741.60403	14004.3375
1744.83017	13986.5375
1748.05418	13965.3375
1751.27607	13980.4375
1754.49584	13919.8375
1757.71349	13865.9375
1760.92903	13856.7375
1764.14244	13828.4375
1767.35375	13848.3375
1770.56294	13816.9375
1773.77002	13796.0375
1776.97499	13793.6375
1780.17785	13823.3375
1783.37861	13805.3375
1786.57727	13816.0375
1789.77382	13760.5375
1792.96828	13751.3375
1796.16064	13735.3375
1799.3509	13722.5375
1802.53907	13681.9375
1805.72514	13654.0375
1808.90913	13651.8375
1812.09102	13617.5375
1815.27083	13578.9375
1818.44856	13562.8375
1821.6242	13594.7375
1824.79776	13571.1375
1827.96924	13536.6375
1831.13864	13511.8375
1834.30597	13502.3375
1837.47122	13478.2375
1840.6344	13445.4375
1843.7955	13430.3375
1846.95454	13422.4375
1850.11151	13432.7375
1853.26642	13450.4375
1856.41926	13413.6375
1859.57004	13454.0375
1862.71876	13400.4375
1865.86542	13411.1375
1869.01003	13391.7375
1872.15258	13365.6375
1875.29308	13360.0375
1878.43152	13322.8375
1881.56792	13305.6375
1884.70227	13276.2375
1887.83457	13263.2375
1890.96482	13237.5375
1894.09304	13239.9375
1897.21921	13220.8375
1900.34335	13178.8375
1903.46544	13155.8375
1906.58551	13178.6375
1909.70353	13138.2375
1912.81953	13134.3375
1915.93349	13098.3375
1919.04543	13079.3375
1922.15534	13078.0375
1925.26322	13041.6375
1928.36908	13010.6375
1931.47292	13016.6375
1934.57473	12960.6375
1937.67453	12965.2375
1940.77232	12928.4375
1943.86808	12895.2375
1946.96184	12856.6375
1950.05358	12791.9375
1953.14331	12774.7375
1956.23103	12741.5375
1959.31675	12704.7375
1962.40046	12657.3375
1965.48217	12587.1375
1968.56188	12583.1375
1971.63959	12546.7375
1974.7153	12480.0375
1977.78901	12468.3375
1980.86073	12431.6375
1983.93046	12398.3375
1986.99819	12344.2375
1990.06394	12318.5375
1993.1277	12301.8375
1996.18947	12253.0375
1999.24925	12198.1375
2002.30706	12126.9375
2005.36288	12080.2375
2008.41672	12100.7375
2011.46859	12083.1375
2014.51848	12033.3375
2017.56639	12013.5375
2020.61233	11962.6375
2023.6563	11908.2375
2026.6983	11868.3375
2029.73833	11832.8375
2032.7764	11808.0375
2035.8125	11756.0375
2038.84664	11744.1375
2041.87881	11760.0375
2044.90903	11720.1375
2047.93729	11666.2375
2050.96359	11672.1375
2053.98794	11662.5375
2057.01034	11616.3375
2060.03078	11604.0375
2063.04927	11620.3375
2066.06582	11612.5375
2069.08042	11562.9375
2072.09307	11535.1375
2075.10378	11524.3375
2078.11255	11571.9375
2081.11938	11583.6375
2084.12426	11564.4375
2087.12722	11552.5375
2090.12824	11529.0375
2093.12732	11530.5375
2096.12447	11504.8375
2099.11969	11498.9375
2102.11299	11512.3375
2105.10435	11517.0375
2108.09379	11511.8375
2111.08131	11540.3375
2114.0669	11543.1375
2117.05057	11534.4375
2120.03233	11561.4375
2123.01216	11554.8375
2125.99008	11569.7375
2128.96609	11543.1375
2131.94018	11560.7375
2134.91236	11595.9375
2137.88263	11617.0375
2140.851	11617.6375
2143.81746	11619.6375
2146.78201	11603.1375
2149.74466	11583.0375
2152.7054	11620.4375
2155.66425	11577.4375
2158.6212	11575.7375
2161.57625	11557.6375
2164.52941	11554.0375
2167.48067	11546.0375
2170.43004	11584.4375
2173.37752	11535.4375
2176.32311	11550.2375
2179.26681	11555.9375
2182.20863	11540.8375
2185.14856	11551.2375
2188.08661	11526.2375
2191.02278	11524.3375
2193.95707	11490.9375
2196.88948	11507.2375
2199.82001	11500.5375
2202.74867	11471.6375
2205.67545	11443.2375
2208.60037	11431.6375
2211.52341	11408.6375
2214.44458	11369.2375
2217.36388	11339.5375
2220.28132	11339.1375
2223.1969	11307.4375
2226.11061	11312.6375
2229.02246	11261.8375
2231.93245	11240.4375
2234.84058	11223.2375
2237.74686	11230.9375
2240.65128	11202.0375
2243.55385	11159.8375
2246.45456	11135.0375
2249.35343	11106.1375
2252.25044	11101.1375
2255.14561	11073.3375
2258.03893	11080.4375
2260.93041	11074.0375
2263.82004	11032.1375
2266.70783	10995.0375
2269.59378	10960.3375
2272.4779	10946.4375
2275.36017	10915.6375
2278.24061	10869.5375
2281.11922	10848.3375
2283.996	10848.6375
2286.87094	10784.5375
2289.74405	10808.9375
2292.61534	10776.6375
2295.4848	10755.0375
2298.35243	10767.7375
2301.21824	10753.1375
2304.08223	10743.5375
2306.94439	10723.8375
2309.80474	10691.8375
2312.66327	10682.6375
2315.51999	10691.0375
2318.37489	10675.4375
2321.22797	10667.6375
2324.07925	10616.7375
2326.92871	10591.6375
2329.77637	10574.5375
2332.62222	10574.4375
2335.46626	10559.6375
2338.3085	10503.5375
2341.14893	10507.5375
2343.98756	10475.9375
2346.8244	10444.3375
2349.65943	10422.7375
2352.49267	10419.1375
2355.32411	10404.1375
2358.15376	10421.2375
2360.98161	10405.9375
2363.80768	10394.1375
2366.63195	10392.8375
2369.45444	10391.9375
2372.27514	10373.7375
2375.09405	10367.6375
2377.91118	10308.6375
2380.72652	10298.9375
2383.54009	10287.2375
2386.35187	10236.1375
2389.16188	10240.7375
2391.97011	10197.3375
2394.77657	10157.2375
2397.58125	10136.4375
2400.38416	10129.2375
2403.18529	10089.0375
2405.98466	10096.9375
2408.78226	10093.3375
2411.57809	10047.9375
2414.37216	10042.5375
2417.16446	10043.0375
2419.955	10014.8375
2422.74378	10047.1375
2425.5308	10011.9375
2428.31606	10009.3375
2431.09956	10008.0375
2433.88131	9954.1375
2436.6613	9950.4375
2439.43954	9927.8375
2442.21603	9942.7375
2444.99077	9899.4375
2447.76377	9893.0375
2450.53501	9873.9375
2453.30451	9850.3375
2456.07226	9835.2375
2458.83827	9808.9375
2461.60254	9807.5375
2464.36507	9803.1375
2467.12586	9772.3375
2469.88492	9744.9375
2472.64224	9712.3375
2475.39782	9737.2375
2478.15167	9735.6375
2480.90379	9732.1375
2483.65417	9713.3375
2486.40283	9729.0375
2489.14976	9696.1375
2491.89497	9682.7375
2494.63845	9667.1375
2497.3802	9655.6375
2500.12024	9641.6375
2502.85855	9616.3375
2505.59514	9625.2375
2508.33002	9596.1375
2511.06318	9572.4375
2513.79462	9562.9375
2516.52435	9570.9375
2519.25237	9548.1375
2521.97867	9534.0375
2524.70327	9513.4375
2527.42616	9484.7375
2530.14734	9476.8375
2532.86681	9455.9375
2535.58458	9436.8375
2538.30065	9426.9375
2541.01501	9412.0375
2543.72768	9404.3375
2546.43864	9356.3375
2549.14791	9318.5375
2551.85548	9317.8375
2554.56136	9311.6375
2557.26554	9292.1375
2559.96803	9275.1375
2562.66883	9238.0375
2565.36794	9217.6375
2568.06536	9207.8375
2570.7611	9174.0375
2573.45514	9150.8375
2576.14751	9150.8375
2578.83819	9110.7375
2581.52719	9097.2375
2584.21451	9054.0375
2586.90015	9046.5375
2589.58411	9048.0375
2592.2664	9050.1375
2594.94701	8997.7375
2597.62594	8973.5375
2600.30321	8926.0375
2602.9788	8944.5375
2605.65273	8913.7375
2608.32498	8912.9375
2610.99557	8882.7375
2613.66449	8886.4375
2616.33175	8868.6375
2618.99734	8851.8375
2621.66128	8836.3375
2624.32355	8824.1375
2626.98416	8788.8375
2629.64311	8758.8375
2632.30041	8762.0375
2634.95605	8767.3375
2637.61004	8754.2375
2640.26238	8728.2375
2642.91306	8715.3375
2645.56209	8701.6375
2648.20948	8696.7375
2650.85521	8685.3375
2653.4993	8651.8375
2656.14175	8656.4375
2658.78255	8653.7375
2661.42171	8639.7375
2664.05923	8657.2375
2666.6951	8637.2375
2669.32934	8619.9375
2671.96194	8591.6375
2674.59291	8613.8375
2677.22224	8611.0375
2679.84993	8601.7375
2682.476	8593.2375
2685.10043	8615.3375
2687.72324	8570.3375
2690.34441	8587.0375
2692.96396	8572.3375
2695.58188	8554.3375
2698.19818	8548.0375
2700.81285	8533.0375
2703.4259	8503.2375
2706.03733	8500.0375
2708.64714	8518.5375
2711.25533	8516.6375
2713.86191	8513.0375
2716.46687	8506.8375
2719.07021	8516.2375
2721.67194	8519.7375
2724.27206	8505.8375
2726.87057	8509.8375
2729.46747	8502.0375
2732.06276	8509.1375
2734.65644	8500.6375
2737.24852	8487.1375
2739.83899	8455.9375
2742.42786	8463.6375
2745.01513	8444.7375
2747.60079	8433.8375
2750.18486	8428.7375
2752.76733	8401.4375
2755.3482	8397.7375
2757.92747	8387.9375
2760.50515	8386.3375
2763.08123	8359.2375
2765.65573	8332.6375
2768.22863	8322.4375
2770.79994	8276.9375
2773.36967	8280.6375
2775.9378	8250.4375
2778.50435	8245.2375
2781.06932	8212.4375
2783.6327	8222.7375
2786.1945	8201.4375
2788.75471	8204.9375
2791.31335	8146.9375
2793.87041	8154.2375
2796.42589	8125.4375
2798.97979	8128.0375
2801.53212	8067.3375
2804.08288	8057.9375
2806.63206	8032.4375
2809.17967	8006.1375
2811.72571	7992.4375
2814.27018	7989.8375
2816.81308	7942.8375
2819.35442	7942.9375
2821.89419	7878.1375
2824.43239	7876.9375
2826.96904	7878.7375
2829.50412	7875.4375
2832.03763	7832.0375
2834.56959	7838.0375
2837.1	7831.9375
2839.62884	7818.8375
2842.15613	7790.9375
2844.68186	7803.6375
2847.20604	7782.0375
2849.72867	7774.4375
2852.24974	7754.6375
2854.76927	7735.5375
2857.28724	7709.1375
2859.80367	7708.1375
2862.31855	7695.9375
2864.83189	7693.6375
2867.34368	7658.8375
2869.85393	7656.3375
2872.36264	7640.8375
2874.8698	7647.3375
2877.37543	7654.6375
2879.87952	7627.4375
2882.38207	7639.5375
2884.88308	7616.7375
2887.38256	7628.2375
2889.88051	7603.9375
2892.37692	7612.3375
2894.8718	7579.5375
2897.36515	7577.4375
2899.85698	7578.1375
2902.34727	7572.5375
2904.83604	7566.8375
2907.32328	7583.2375
2909.809	7571.0375
2912.29319	7571.8375
2914.77587	7562.0375
2917.25702	7588.6375
2919.73665	7576.4375
2922.21476	7536.1375
2924.69136	7538.0375
2927.16644	7538.6375
2929.64	7508.4375
2932.11205	7510.6375
2934.58258	7497.2375
2937.05161	7493.1375
2939.51912	7488.5375
2941.98513	7490.7375
2944.44962	7476.2375
2946.91261	7461.9375
2949.37409	7487.5375
2951.83407	7472.7375
2954.29254	7444.6375
2956.74951	7442.2375
2959.20498	7437.1375
2961.65895	7431.5375
2964.11142	7457.5375
2966.56239	7427.6375
2969.01186	7407.9375
2971.45984	7415.9375
2973.90632	7451.5375
2976.35131	7414.3375
2978.7948	7400.2375
2981.23681	7390.3375
2983.67732	7383.8375
2986.11635	7370.4375
2988.55388	7369.9375
2990.98993	7352.3375
2993.4245	7344.1375
2995.85758	7321.6375
2998.28917	7305.6375
3000.71928	7288.8375
3003.14791	7256.0375
3005.57506	7269.1375
3008.00073	7213.7375
3010.42493	7228.1375
3012.84764	7208.3375
3015.26888	7215.3375
3017.68865	7208.7375
3020.10694	7184.0375
3022.52376	7175.6375
3024.9391	7176.1375
3027.35298	7175.0375
3029.76539	7148.6375
3032.17632	7132.5375
3034.5858	7142.1375
3036.9938	7111.6375
3039.40034	7103.9375
3041.80542	7100.8375
3044.20903	7082.5375
3046.61118	7107.4375
3049.01187	7079.0375
3051.4111	7065.7375
3053.80888	7054.6375
3056.20519	7076.5375
3058.60005	7046.0375
3060.99345	7034.2375
3063.3854	7009.7375
3065.7759	6983.7375
3068.16494	6973.3375
3070.55254	6951.8375
3072.93868	6919.3375
3075.32338	6913.2375
3077.70662	6899.5375
3080.08842	6888.3375
3082.46878	6872.3375
3084.84769	6885.1375
3087.22515	6891.8375
3089.60118	6882.1375
3091.97576	6894.9375
3094.3489	6889.0375
3096.72061	6883.4375
3099.09087	6887.0375
3101.4597	6888.3375
3103.82709	6880.3375
3106.19305	6880.9375
3108.55757	6885.7375
3110.92066	6888.4375
3113.28232	6880.8375
3115.64255	6835.7375
3118.00134	6822.4375
3120.35871	6824.9375
3122.71466	6798.1375
3125.06917	6817.2375
3127.42226	6803.5375
3129.77393	6790.8375
3132.12417	6785.4375
3134.47299	6769.8375
3136.82039	6775.6375
3139.16636	6778.6375
3141.51092	6795.7375
3143.85406	6775.9375
3146.19579	6790.2375
3148.53609	6807.8375
3150.87499	6793.4375
3153.21246	6774.4375
3155.54853	6789.1375
3157.88318	6786.6375
3160.21642	6806.8375
3162.54826	6810.0375
3164.87868	6823.1375
3167.2077	6818.2375
3169.5353	6816.4375
3171.86151	6824.3375
3174.18631	6820.8375
3176.5097	6804.9375
3178.83169	6785.0375
3181.15228	6791.6375
3183.47147	6785.6375
3185.78926	6748.0375
3188.10565	6744.2375
3190.42065	6762.7375
3192.73424	6753.5375
3195.04645	6760.9375
3197.35725	6754.3375
3199.66667	6743.0375
3201.97469	6755.2375
3204.28132	6721.2375
3206.58656	6755.2375
3208.8904	6738.6375
3211.19287	6736.8375
3213.49394	6754.9375
3215.79363	6749.1375
3218.09193	6751.7375
3220.38884	6727.7375
3222.68438	6747.0375
3224.97853	6738.8375
3227.2713	6746.0375
3229.56269	6735.6375
3231.8527	6734.8375
3234.14133	6729.7375
3236.42858	6676.9375
3238.71446	6676.9375
3240.99896	6659.5375
3243.28209	6643.8375
3245.56384	6646.2375
3247.84423	6640.9375
3250.12324	6642.8375
3252.40088	6640.2375
3254.67715	6619.9375
3256.95205	6614.2375
3259.22558	6594.9375
3261.49775	6587.1375
3263.76855	6595.9375
3266.03799	6590.0375
3268.30606	6583.0375
3270.57277	6563.9375
3272.83812	6564.5375
3275.10211	6538.3375
3277.36474	6512.8375
3279.62601	6508.7375
3281.88593	6497.3375
3284.14448	6505.9375
3286.40168	6495.9375
3288.65753	6456.5375
3290.91202	6463.2375
3293.16516	6454.6375
3295.41695	6439.6375
3297.66738	6407.1375
3299.91647	6398.9375
3302.16421	6348.0375
3304.4106	6307.7375
3306.65564	6311.8375
3308.89933	6272.8375
3311.14169	6232.5375
3313.38269	6163.1375
3315.62236	6150.5375
3317.86068	6110.6375
3320.09766	6066.0375
3322.3333	6027.9375
3324.5676	6020.1375
3326.80056	5932.7375
3329.03219	5892.9375
3331.26248	2.6375
3333.49143	0.2375
3335.71905	0.4375
