Data from AgNPs_APTES_FTO_UA_50uM_CRN_0uM_R6G_10uM_Scan_RamanShift__46__12-04-43-710.txt Node

Date: Tue Jul 05 12:04:43 BST 2022
User: TCL
Spectrometer: QEP01345
Trigger mode: 4
Integration Time (sec): 7.000000E0
Scans to average: 10
Electric dark correction enabled: true
Nonlinearity correction enabled: false
Boxcar width: 0
XAxis mode: Raman Shifts
Number of Pixels in Spectrum: 1044
>>>>>Begin Spectral Data<<<<<
46.04893	-1.1625
50.45542	-0.1625
54.85868	-1.4625
59.25871	0.3375
63.6555	59.9375
68.04907	63.5375
72.43941	65.3375
76.82654	69.9375
81.21044	72.3375
85.59113	76.5375
89.96862	78.5375
94.34289	77.4375
98.71396	84.7375
103.08183	85.5375
107.4465	86.8375
111.80798	91.9375
116.16626	91.9375
120.52136	88.9375
124.87327	92.5375
129.222	97.8375
133.56755	104.1375
137.90993	107.7375
142.24913	112.6375
146.58517	130.4375
150.91804	139.3375
155.24774	165.5375
159.57429	199.2375
163.89768	252.9375
168.21792	329.2375
172.53501	441.1375
176.84895	620.1375
181.15975	847.0375
185.46741	1192.6375
189.77193	1632.0375
194.07331	2172.4375
198.37157	2798.2375
202.6667	3452.4375
206.9587	4094.1375
211.24758	4718.7375
215.53334	5350.4375
219.81599	6028.6375
224.09553	6759.5375
228.37195	7577.5375
232.64527	8470.9375
236.91549	9414.2375
241.18261	10347.7375
245.44663	11260.5375
249.70755	12033.7375
253.96539	12698.4375
258.22014	13189.0375
262.4718	13599.3375
266.72039	13868.9375
270.96589	13946.5375
275.20832	13948.4375
279.44768	13728.4375
283.68397	13486.2375
287.91719	13294.8375
292.14735	13140.0375
296.37445	13108.6375
300.59849	13119.8375
304.81948	13145.7375
309.03742	13247.7375
313.25231	13208.9375
317.46415	13078.7375
321.67296	12845.6375
325.87872	12643.4375
330.08145	12571.5375
334.28114	12558.3375
338.47781	12672.9375
342.67145	12833.0375
346.86207	13019.2375
351.04966	13252.8375
355.23424	13544.8375
359.4158	13741.0375
363.59435	13890.6375
367.76989	14000.8375
371.94243	14082.3375
376.11196	14136.0375
380.27849	14193.2375
384.44203	14264.0375
388.60257	14385.1375
392.76012	14444.6375
396.91468	14579.6375
401.06626	14731.5375
405.21485	14871.5375
409.36047	14871.0375
413.50311	14761.9375
417.64277	14654.2375
421.77947	14632.2375
425.9132	14658.8375
430.04396	14700.1375
434.17176	14777.5375
438.2966	14871.8375
442.41849	15073.3375
446.53742	15298.8375
450.6534	15561.0375
454.76644	15743.7375
458.87653	15784.7375
462.98368	15773.7375
467.08789	15697.7375
471.18916	15606.5375
475.2875	15437.3375
479.38291	15348.7375
483.4754	15323.7375
487.56496	15301.7375
491.6516	15273.3375
495.73531	15394.8375
499.81612	15416.8375
503.89401	15567.9375
507.96899	15633.3375
512.04106	15580.0375
516.11023	15568.5375
520.1765	15482.5375
524.23987	15423.3375
528.30034	15366.9375
532.35792	15321.1375
536.41261	15188.2375
540.46441	15008.7375
544.51333	14977.8375
548.55936	15020.8375
552.60252	15213.8375
556.64279	15397.2375
560.6802	15541.8375
564.71473	15636.8375
568.7464	15753.3375
572.7752	15947.3375
576.80114	16078.4375
580.82422	16285.0375
584.84444	16625.7375
588.86181	17141.4375
592.87633	17572.2375
596.888	17585.5375
600.89682	17268.3375
604.9028	17404.7375
608.90594	18498.6375
612.90624	19729.4375
616.90371	19003.6375
620.89834	16888.0375
624.89015	15970.7375
628.87913	15922.0375
632.86528	16108.7375
636.84862	16318.6375
640.82913	16303.4375
644.80683	16045.9375
648.78172	15810.4375
652.75379	15732.9375
656.72306	15762.5375
660.68952	15904.9375
664.65319	15782.1375
668.61405	15576.0375
672.57211	15538.7375
676.52738	15579.1375
680.47986	15624.1375
684.42955	15541.9375
688.37646	15492.7375
692.32058	15516.2375
696.26192	15567.3375
700.20048	15652.4375
704.13626	15698.4375
708.06928	15709.7375
711.99952	15635.0375
715.927	15595.9375
719.85171	15682.2375
723.77365	15642.8375
727.69284	15497.1375
731.60928	15449.1375
735.52295	15442.9375
739.43388	15434.4375
743.34206	15514.5375
747.24749	15580.6375
751.15017	15673.9375
755.05012	15770.9375
758.94733	16046.6375
762.8418	16548.2375
766.73354	17380.8375
770.62254	18171.3375
774.50882	18412.3375
778.39237	17984.9375
782.27321	17107.2375
786.15132	16400.2375
790.02671	15927.0375
793.89938	15726.8375
797.76935	15624.5375
801.6366	15634.9375
805.50115	15673.4375
809.36299	15698.6375
813.22213	15646.3375
817.07857	15562.2375
820.93231	15475.4375
824.78336	15385.0375
828.63172	15329.6375
832.47738	15290.8375
836.32036	15308.4375
840.16066	15296.1375
843.99827	15316.2375
847.8332	15370.4375
851.66546	15349.0375
855.49504	15336.1375
859.32195	15329.0375
863.1462	15328.9375
866.96777	15308.5375
870.78668	15338.0375
874.60293	15414.9375
878.41652	15465.6375
882.22745	15574.7375
886.03573	15640.2375
889.84136	15673.9375
893.64433	15615.4375
897.44466	15572.4375
901.24235	15510.8375
905.0374	15461.2375
908.8298	15401.4375
912.61957	15354.9375
916.40671	15385.6375
920.19121	15423.9375
923.97308	15486.3375
927.75233	15549.5375
931.52895	15537.8375
935.30295	15409.4375
939.07433	15241.6375
942.84309	15077.7375
946.60924	15014.3375
950.37278	14970.8375
954.13371	14923.7375
957.89203	14947.7375
961.64774	14917.2375
965.40086	14885.5375
969.15137	14881.1375
972.89929	14853.5375
976.64461	14858.6375
980.38733	14900.2375
984.12747	14872.7375
987.86502	14883.9375
991.59999	14955.7375
995.33237	15045.6375
999.06217	15202.2375
1002.78939	15434.4375
1006.51404	15578.8375
1010.23611	15769.9375
1013.95561	15943.7375
1017.67255	16013.2375
1021.38692	15892.7375
1025.09872	15707.9375
1028.80796	15622.2375
1032.51465	15595.0375
1036.21877	15650.7375
1039.92035	15681.8375
1043.61937	15677.4375
1047.31584	15657.8375
1051.00976	15592.5375
1054.70114	15557.9375
1058.38998	15610.8375
1062.07627	15699.3375
1065.76003	15848.7375
1069.44126	15952.3375
1073.11995	16122.4375
1076.79611	16373.7375
1080.46974	16514.1375
1084.14085	16553.2375
1087.80943	16622.7375
1091.47549	16719.0375
1095.13903	16628.3375
1098.80005	16486.8375
1102.45857	16247.4375
1106.11456	16067.4375
1109.76805	16018.8375
1113.41903	16047.1375
1117.06751	16178.3375
1120.71348	16354.3375
1124.35696	16615.2375
1127.99793	16910.1375
1131.63641	17161.4375
1135.2724	17174.3375
1138.90589	17066.9375
1142.5369	16988.0375
1146.16542	16881.6375
1149.79145	16731.0375
1153.415	16582.2375
1157.03607	16546.0375
1160.65467	16607.8375
1164.27079	16848.4375
1167.88443	17269.7375
1171.49561	17844.8375
1175.10432	18552.1375
1178.71056	19534.5375
1182.31434	20408.3375
1185.91565	20862.2375
1189.51451	20831.7375
1193.11091	20490.2375
1196.70485	20073.1375
1200.29634	19677.1375
1203.88538	19367.7375
1207.47197	19037.5375
1211.05612	18801.5375
1214.63782	18512.5375
1218.21708	18270.6375
1221.79391	18046.1375
1225.36829	17935.8375
1228.94024	17850.7375
1232.50976	17710.8375
1236.07685	17560.6375
1239.6415	17438.0375
1243.20374	17411.2375
1246.76355	17521.0375
1250.32093	17668.1375
1253.8759	17870.8375
1257.42845	18199.3375
1260.97859	18540.1375
1264.52631	18866.5375
1268.07163	19223.7375
1271.61453	19539.8375
1275.15503	19778.7375
1278.69312	19995.5375
1282.22882	20214.4375
1285.76211	20529.8375
1289.29301	20955.0375
1292.82151	21449.3375
1296.34761	22099.0375
1299.87133	22860.8375
1303.39266	23695.1375
1306.9116	24554.9375
1310.42815	25475.9375
1313.94233	25984.2375
1317.45412	25750.0375
1320.96354	25114.1375
1324.47058	24491.0375
1327.97525	23990.7375
1331.47754	23628.1375
1334.97747	23394.7375
1338.47502	23298.6375
1341.97022	23252.8375
1345.46305	23394.1375
1348.95352	23721.2375
1352.44163	24207.0375
1355.92738	24851.4375
1359.41078	25833.6375
1362.89183	26873.4375
1366.37053	26674.0375
1369.84688	25024.1375
1373.32088	22869.3375
1376.79254	21373.5375
1380.26186	20698.0375
1383.72883	20422.2375
1387.19347	20223.5375
1390.65578	19910.6375
1394.11575	19685.8375
1397.57339	19557.5375
1401.0287	19554.7375
1404.48168	19528.7375
1407.93234	19405.5375
1411.38068	19220.9375
1414.82669	18998.5375
1418.27039	18657.7375
1421.71177	18303.3375
1425.15083	18096.0375
1428.58758	18009.8375
1432.02203	18120.4375
1435.45416	18342.3375
1438.88399	18587.5375
1442.31151	18707.6375
1445.73673	18795.7375
1449.15965	18775.8375
1452.58027	18746.9375
1455.9986	18709.2375
1459.41463	18736.2375
1462.82837	18916.6375
1466.23982	19164.5375
1469.64898	19406.4375
1473.05586	19555.8375
1476.46045	19579.0375
1479.86276	19641.0375
1483.26279	19669.1375
1486.66054	19756.9375
1490.05602	19874.2375
1493.44922	20133.4375
1496.84016	20508.6375
1500.22882	20989.5375
1503.61521	21714.7375
1506.99934	22512.4375
1510.38121	23155.4375
1513.76081	23333.0375
1517.13816	22788.6375
1520.51324	21800.6375
1523.88607	21021.9375
1527.25665	20505.9375
1530.62498	20304.7375
1533.99105	20167.8375
1537.35488	20017.3375
1540.71647	19788.3375
1544.07581	19554.5375
1547.4329	19299.1375
1550.78776	19135.8375
1554.14038	19029.9375
1557.49077	18998.8375
1560.83892	19015.5375
1564.18484	19128.4375
1567.52853	19240.7375
1570.86999	19395.8375
1574.20922	19616.6375
1577.54624	19718.6375
1580.88103	19591.2375
1584.2136	19434.3375
1587.54395	19529.6375
1590.87208	19913.3375
1594.19801	20531.7375
1597.52172	21235.7375
1600.84321	21505.3375
1604.16251	20977.2375
1607.47959	20107.1375
1610.79447	19121.8375
1614.10715	18171.7375
1617.41763	17431.6375
1620.7259	16982.4375
1624.03199	16737.4375
1627.33587	16720.4375
1630.63757	16950.4375
1633.93707	17454.0375
1637.23439	18302.4375
1640.52951	19566.7375
1643.82246	21233.4375
1647.11321	22586.0375
1650.40179	23039.0375
1653.68819	22069.1375
1656.97241	20176.9375
1660.25446	18289.5375
1663.53433	16988.3375
1666.81203	16140.3375
1670.08756	15613.5375
1673.36092	15300.8375
1676.63211	15078.5375
1679.90115	14896.2375
1683.16801	14710.2375
1686.43272	14558.0375
1689.69527	14477.8375
1692.95567	14346.1375
1696.2139	14224.8375
1699.46999	14150.4375
1702.72392	14095.2375
1705.97571	14015.8375
1709.22535	14008.6375
1712.47284	13941.0375
1715.71819	13919.9375
1718.96139	13884.6375
1722.20246	13839.4375
1725.44139	13800.2375
1728.67818	13739.7375
1731.91284	13681.3375
1735.14537	13607.6375
1738.37576	13509.0375
1741.60403	13479.5375
1744.83017	13452.2375
1748.05418	13444.6375
1751.27607	13443.5375
1754.49584	13418.8375
1757.71349	13393.4375
1760.92903	13369.7375
1764.14244	13335.7375
1767.35375	13355.6375
1770.56294	13345.8375
1773.77002	13332.0375
1776.97499	13268.4375
1780.17785	13302.5375
1783.37861	13286.2375
1786.57727	13251.7375
1789.77382	13228.2375
1792.96828	13204.8375
1796.16064	13183.4375
1799.3509	13136.9375
1802.53907	13128.3375
1805.72514	13080.2375
1808.90913	13094.7375
1812.09102	13084.2375
1815.27083	13053.7375
1818.44856	13023.4375
1821.6242	12996.8375
1824.79776	13016.4375
1827.96924	12963.6375
1831.13864	12947.1375
1834.30597	12965.6375
1837.47122	12947.8375
1840.6344	12906.8375
1843.7955	12892.0375
1846.95454	12888.7375
1850.11151	12908.7375
1853.26642	12904.0375
1856.41926	12868.7375
1859.57004	12894.6375
1862.71876	12864.6375
1865.86542	12891.6375
1869.01003	12856.7375
1872.15258	12880.0375
1875.29308	12824.9375
1878.43152	12800.4375
1881.56792	12804.7375
1884.70227	12780.3375
1887.83457	12768.6375
1890.96482	12756.4375
1894.09304	12731.7375
1897.21921	12700.2375
1900.34335	12684.6375
1903.46544	12684.4375
1906.58551	12657.0375
1909.70353	12644.5375
1912.81953	12643.3375
1915.93349	12619.9375
1919.04543	12616.7375
1922.15534	12582.1375
1925.26322	12558.7375
1928.36908	12529.2375
1931.47292	12512.0375
1934.57473	12471.8375
1937.67453	12450.8375
1940.77232	12425.9375
1943.86808	12369.8375
1946.96184	12328.3375
1950.05358	12333.6375
1953.14331	12317.8375
1956.23103	12278.7375
1959.31675	12248.5375
1962.40046	12204.3375
1965.48217	12146.7375
1968.56188	12139.2375
1971.63959	12085.2375
1974.7153	12043.0375
1977.78901	12019.5375
1980.86073	12002.7375
1983.93046	11974.1375
1986.99819	11928.9375
1990.06394	11917.8375
1993.1277	11885.2375
1996.18947	11837.4375
1999.24925	11815.5375
2002.30706	11735.4375
2005.36288	11732.7375
2008.41672	11718.2375
2011.46859	11689.5375
2014.51848	11641.1375
2017.56639	11626.8375
2020.61233	11598.2375
2023.6563	11572.1375
2026.6983	11493.2375
2029.73833	11456.6375
2032.7764	11480.7375
2035.8125	11454.3375
2038.84664	11413.3375
2041.87881	11411.5375
2044.90903	11387.1375
2047.93729	11359.3375
2050.96359	11368.1375
2053.98794	11323.1375
2057.01034	11328.7375
2060.03078	11320.2375
2063.04927	11330.8375
2066.06582	11331.6375
2069.08042	11265.3375
2072.09307	11265.5375
2075.10378	11270.7375
2078.11255	11281.9375
2081.11938	11272.6375
2084.12426	11294.7375
2087.12722	11272.3375
2090.12824	11256.2375
2093.12732	11255.7375
2096.12447	11263.4375
2099.11969	11245.6375
2102.11299	11257.2375
2105.10435	11229.4375
2108.09379	11242.0375
2111.08131	11288.2375
2114.0669	11297.7375
2117.05057	11313.9375
2120.03233	11325.1375
2123.01216	11337.1375
2125.99008	11347.2375
2128.96609	11333.6375
2131.94018	11338.4375
2134.91236	11375.0375
2137.88263	11395.6375
2140.851	11363.7375
2143.81746	11386.7375
2146.78201	11378.6375
2149.74466	11388.7375
2152.7054	11359.4375
2155.66425	11346.1375
2158.6212	11352.0375
2161.57625	11338.8375
2164.52941	11331.0375
2167.48067	11337.5375
2170.43004	11360.0375
2173.37752	11350.3375
2176.32311	11352.0375
2179.26681	11347.0375
2182.20863	11344.2375
2185.14856	11370.4375
2188.08661	11348.4375
2191.02278	11334.5375
2193.95707	11314.3375
2196.88948	11328.1375
2199.82001	11348.7375
2202.74867	11328.4375
2205.67545	11276.0375
2208.60037	11264.0375
2211.52341	11225.5375
2214.44458	11240.6375
2217.36388	11197.4375
2220.28132	11185.2375
2223.1969	11171.0375
2226.11061	11147.3375
2229.02246	11141.0375
2231.93245	11121.8375
2234.84058	11112.0375
2237.74686	11088.9375
2240.65128	11095.2375
2243.55385	11076.9375
2246.45456	11036.9375
2249.35343	11004.1375
2252.25044	11000.4375
2255.14561	10987.9375
2258.03893	10993.5375
2260.93041	10988.4375
2263.82004	10936.7375
2266.70783	10885.0375
2269.59378	10878.9375
2272.4779	10835.5375
2275.36017	10828.1375
2278.24061	10797.2375
2281.11922	10778.1375
2283.996	10754.5375
2286.87094	10758.5375
2289.74405	10720.2375
2292.61534	10717.4375
2295.4848	10706.1375
2298.35243	10713.8375
2301.21824	10719.5375
2304.08223	10712.4375
2306.94439	10678.5375
2309.80474	10705.8375
2312.66327	10690.2375
2315.51999	10687.3375
2318.37489	10691.3375
2321.22797	10684.8375
2324.07925	10624.1375
2326.92871	10597.6375
2329.77637	10588.3375
2332.62222	10583.0375
2335.46626	10578.0375
2338.3085	10562.5375
2341.14893	10543.8375
2343.98756	10536.9375
2346.8244	10522.2375
2349.65943	10534.4375
2352.49267	10516.8375
2355.32411	10505.5375
2358.15376	10499.8375
2360.98161	10513.5375
2363.80768	10494.0375
2366.63195	10523.8375
2369.45444	10505.0375
2372.27514	10487.9375
2375.09405	10462.1375
2377.91118	10453.1375
2380.72652	10425.0375
2383.54009	10415.5375
2386.35187	10396.8375
2389.16188	10338.3375
2391.97011	10329.3375
2394.77657	10296.9375
2397.58125	10288.1375
2400.38416	10259.3375
2403.18529	10242.3375
2405.98466	10235.4375
2408.78226	10233.9375
2411.57809	10206.2375
2414.37216	10193.0375
2417.16446	10204.8375
2419.955	10192.4375
2422.74378	10182.5375
2425.5308	10196.4375
2428.31606	10196.3375
2431.09956	10185.6375
2433.88131	10141.1375
2436.6613	10123.5375
2439.43954	10124.9375
2442.21603	10128.3375
2444.99077	10108.6375
2447.76377	10124.6375
2450.53501	10104.9375
2453.30451	10104.5375
2456.07226	10075.6375
2458.83827	10058.8375
2461.60254	10073.8375
2464.36507	10061.0375
2467.12586	10044.6375
2469.88492	10031.9375
2472.64224	10041.9375
2475.39782	10010.8375
2478.15167	10033.5375
2480.90379	10047.1375
2483.65417	10028.3375
2486.40283	10038.4375
2489.14976	10047.6375
2491.89497	9985.8375
2494.63845	9970.3375
2497.3802	9993.2375
2500.12024	9980.2375
2502.85855	9950.0375
2505.59514	9971.0375
2508.33002	9967.6375
2511.06318	9960.7375
2513.79462	9926.0375
2516.52435	9935.1375
2519.25237	9900.3375
2521.97867	9890.7375
2524.70327	9904.6375
2527.42616	9878.1375
2530.14734	9859.3375
2532.86681	9829.0375
2535.58458	9825.2375
2538.30065	9807.1375
2541.01501	9815.9375
2543.72768	9782.0375
2546.43864	9754.4375
2549.14791	9732.2375
2551.85548	9751.5375
2554.56136	9739.8375
2557.26554	9742.7375
2559.96803	9706.3375
2562.66883	9687.4375
2565.36794	9670.5375
2568.06536	9633.1375
2570.7611	9631.3375
2573.45514	9613.9375
2576.14751	9628.0375
2578.83819	9612.9375
2581.52719	9581.7375
2584.21451	9549.1375
2586.90015	9554.5375
2589.58411	9524.9375
2592.2664	9532.9375
2594.94701	9493.8375
2597.62594	9486.7375
2600.30321	9451.5375
2602.9788	9473.2375
2605.65273	9455.6375
2608.32498	9450.0375
2610.99557	9450.5375
2613.66449	9445.6375
2616.33175	9411.6375
2618.99734	9440.6375
2621.66128	9418.3375
2624.32355	9399.8375
2626.98416	9388.0375
2629.64311	9373.9375
2632.30041	9362.7375
2634.95605	9355.5375
2637.61004	9334.6375
2640.26238	9325.6375
2642.91306	9321.2375
2645.56209	9301.3375
2648.20948	9304.5375
2650.85521	9306.0375
2653.4993	9305.4375
2656.14175	9273.8375
2658.78255	9284.6375
2661.42171	9282.5375
2664.05923	9299.6375
2666.6951	9284.5375
2669.32934	9309.5375
2671.96194	9292.8375
2674.59291	9284.6375
2677.22224	9274.1375
2679.84993	9276.4375
2682.476	9273.3375
2685.10043	9304.6375
2687.72324	9285.8375
2690.34441	9268.8375
2692.96396	9271.9375
2695.58188	9286.4375
2698.19818	9239.4375
2700.81285	9237.4375
2703.4259	9248.5375
2706.03733	9248.4375
2708.64714	9238.9375
2711.25533	9240.7375
2713.86191	9246.7375
2716.46687	9274.3375
2719.07021	9257.2375
2721.67194	9283.5375
2724.27206	9258.7375
2726.87057	9281.8375
2729.46747	9274.6375
2732.06276	9285.5375
2734.65644	9275.6375
2737.24852	9272.1375
2739.83899	9241.9375
2742.42786	9266.2375
2745.01513	9228.8375
2747.60079	9211.6375
2750.18486	9202.3375
2752.76733	9216.8375
2755.3482	9193.3375
2757.92747	9181.9375
2760.50515	9197.0375
2763.08123	9177.8375
2765.65573	9176.5375
2768.22863	9154.1375
2770.79994	9103.5375
2773.36967	9105.0375
2775.9378	9099.0375
2778.50435	9086.9375
2781.06932	9077.3375
2783.6327	9066.1375
2786.1945	9091.5375
2788.75471	9061.2375
2791.31335	9030.7375
2793.87041	9023.6375
2796.42589	8989.3375
2798.97979	9012.8375
2801.53212	8964.2375
2804.08288	8957.2375
2806.63206	8930.0375
2809.17967	8899.3375
2811.72571	8907.7375
2814.27018	8901.8375
2816.81308	8832.7375
2819.35442	8823.0375
2821.89419	8799.3375
2824.43239	8798.2375
2826.96904	8796.9375
2829.50412	8775.5375
2832.03763	8782.6375
2834.56959	8797.0375
2837.1	8749.6375
2839.62884	8748.6375
2842.15613	8746.7375
2844.68186	8779.2375
2847.20604	8754.7375
2849.72867	8745.1375
2852.24974	8723.3375
2854.76927	8736.3375
2857.28724	8723.7375
2859.80367	8702.6375
2862.31855	8723.9375
2864.83189	8687.6375
2867.34368	8683.3375
2869.85393	8703.5375
2872.36264	8679.9375
2874.8698	8676.1375
2877.37543	8703.3375
2879.87952	8692.0375
2882.38207	8682.9375
2884.88308	8667.9375
2887.38256	8664.8375
2889.88051	8653.5375
2892.37692	8653.2375
2894.8718	8644.9375
2897.36515	8659.6375
2899.85698	8658.9375
2902.34727	8654.8375
2904.83604	8643.6375
2907.32328	8671.2375
2909.809	8681.2375
2912.29319	8691.4375
2914.77587	8679.1375
2917.25702	8691.5375
2919.73665	8665.4375
2922.21476	8666.9375
2924.69136	8665.8375
2927.16644	8656.7375
2929.64	8621.8375
2932.11205	8618.9375
2934.58258	8602.3375
2937.05161	8620.8375
2939.51912	8601.5375
2941.98513	8604.3375
2944.44962	8586.7375
2946.91261	8549.3375
2949.37409	8568.0375
2951.83407	8558.6375
2954.29254	8556.8375
2956.74951	8516.6375
2959.20498	8518.0375
2961.65895	8513.7375
2964.11142	8498.6375
2966.56239	8528.6375
2969.01186	8508.6375
2971.45984	8504.8375
2973.90632	8516.6375
2976.35131	8483.4375
2978.7948	8467.9375
2981.23681	8451.9375
2983.67732	8466.7375
2986.11635	8417.4375
2988.55388	8412.6375
2990.98993	8404.9375
2993.4245	8402.3375
2995.85758	8383.7375
2998.28917	8370.1375
3000.71928	8350.5375
3003.14791	8306.6375
3005.57506	8313.4375
3008.00073	8277.7375
3010.42493	8285.7375
3012.84764	8283.4375
3015.26888	8288.1375
3017.68865	8244.5375
3020.10694	8242.7375
3022.52376	8239.0375
3024.9391	8235.8375
3027.35298	8198.1375
3029.76539	8218.0375
3032.17632	8224.1375
3034.5858	8195.3375
3036.9938	8203.1375
3039.40034	8190.1375
3041.80542	8169.0375
3044.20903	8171.5375
3046.61118	8162.3375
3049.01187	8166.9375
3051.4111	8119.1375
3053.80888	8145.7375
3056.20519	8140.0375
3058.60005	8107.8375
3060.99345	8096.8375
3063.3854	8078.0375
3065.7759	8064.8375
3068.16494	8027.6375
3070.55254	8022.4375
3072.93868	8018.8375
3075.32338	8000.5375
3077.70662	7987.8375
3080.08842	7942.9375
3082.46878	7934.5375
3084.84769	7953.5375
3087.22515	7949.8375
3089.60118	7965.4375
3091.97576	7964.6375
3094.3489	7973.4375
3096.72061	7948.9375
3099.09087	7961.3375
3101.4597	7957.8375
3103.82709	7973.7375
3106.19305	7984.7375
3108.55757	7969.1375
3110.92066	7963.7375
3113.28232	7968.5375
3115.64255	7903.6375
3118.00134	7912.4375
3120.35871	7886.8375
3122.71466	7885.3375
3125.06917	7872.4375
3127.42226	7893.9375
3129.77393	7893.6375
3132.12417	7870.9375
3134.47299	7890.0375
3136.82039	7889.2375
3139.16636	7893.9375
3141.51092	7875.8375
3143.85406	7889.4375
3146.19579	7900.8375
3148.53609	7885.7375
3150.87499	7905.5375
3153.21246	7898.3375
3155.54853	7906.9375
3157.88318	7896.5375
3160.21642	7926.3375
3162.54826	7924.5375
3164.87868	7936.4375
3167.2077	7943.1375
3169.5353	7939.4375
3171.86151	7938.5375
3174.18631	7945.1375
3176.5097	7933.2375
3178.83169	7925.3375
3181.15228	7913.2375
3183.47147	7887.6375
3185.78926	7893.4375
3188.10565	7875.5375
3190.42065	7889.1375
3192.73424	7893.6375
3195.04645	7910.3375
3197.35725	7893.2375
3199.66667	7881.5375
3201.97469	7907.0375
3204.28132	7892.9375
3206.58656	7878.4375
3208.8904	7884.7375
3211.19287	7892.9375
3213.49394	7896.6375
3215.79363	7926.9375
3218.09193	7928.4375
3220.38884	7902.5375
3222.68438	7924.8375
3224.97853	7910.0375
3227.2713	7901.8375
3229.56269	7884.9375
3231.8527	7880.6375
3234.14133	7889.3375
3236.42858	7871.8375
3238.71446	7855.5375
3240.99896	7823.0375
3243.28209	7836.6375
3245.56384	7796.8375
3247.84423	7808.1375
3250.12324	7773.8375
3252.40088	7785.7375
3254.67715	7780.9375
3256.95205	7768.3375
3259.22558	7754.8375
3261.49775	7772.5375
3263.76855	7775.0375
3266.03799	7747.6375
3268.30606	7738.0375
3270.57277	7709.9375
3272.83812	7718.8375
3275.10211	7697.7375
3277.36474	7673.1375
3279.62601	7691.8375
3281.88593	7654.6375
3284.14448	7643.7375
3286.40168	7642.4375
3288.65753	7627.0375
3290.91202	7627.3375
3293.16516	7624.6375
3295.41695	7606.1375
3297.66738	7563.7375
3299.91647	7569.7375
3302.16421	7510.9375
3304.4106	7495.0375
3306.65564	7439.7375
3308.89933	7411.7375
3311.14169	7359.9375
3313.38269	7308.1375
3315.62236	7268.0375
3317.86068	7220.1375
3320.09766	7153.5375
3322.3333	7119.5375
3324.5676	7106.8375
3326.80056	7013.4375
3329.03219	6970.7375
3331.26248	2.4375
3333.49143	0.6375
3335.71905	-0.1625
