Data from AgNPs_APTES_FTO_UA_50uM_CRN_0uM_R6G_10uM_Scan_RamanShift__13__11-26-13-665.txt Node

Date: Tue Jul 05 11:26:13 BST 2022
User: TCL
Spectrometer: QEP01345
Trigger mode: 4
Integration Time (sec): 7.000000E0
Scans to average: 10
Electric dark correction enabled: true
Nonlinearity correction enabled: false
Boxcar width: 0
XAxis mode: Raman Shifts
Number of Pixels in Spectrum: 1044
>>>>>Begin Spectral Data<<<<<
46.04893	-0.6
50.45542	0.5
54.85868	0
59.25871	-0.4
63.6555	40.7
68.04907	42.6
72.43941	45.9
76.82654	47.1
81.21044	53.4
85.59113	55.1
89.96862	55.4
94.34289	59.1
98.71396	59.3
103.08183	62
107.4465	61.4
111.80798	65.1
116.16626	61.9
120.52136	61.6
124.87327	65.1
129.222	62.4
133.56755	67
137.90993	66.7
142.24913	69.1
146.58517	74.7
150.91804	84.1
155.24774	93.6
159.57429	109.3
163.89768	133.9
168.21792	169.1
172.53501	217
176.84895	295.8
181.15975	402.4
185.46741	556.2
189.77193	753.7
194.07331	1008.2
198.37157	1288.1
202.6667	1601.6
206.9587	1898.2
211.24758	2210.9
215.53334	2509.1
219.81599	2862.7
224.09553	3228.3
228.37195	3637.4
232.64527	4087.3
236.91549	4535.7
241.18261	4971.1
245.44663	5342.9
249.70755	5630.9
253.96539	5864.8
258.22014	6045.2
262.4718	6208.4
266.72039	6314.9
270.96589	6341
275.20832	6309.3
279.44768	6180.3
283.68397	6033
287.91719	5908.1
292.14735	5827.9
296.37445	5862.8
300.59849	5972.3
304.81948	6141.6
309.03742	6278.4
313.25231	6296.6
317.46415	6140.7
321.67296	5856.7
325.87872	5549.6
330.08145	5386.7
334.28114	5330.8
338.47781	5368.1
342.67145	5474.7
346.86207	5626.9
351.04966	5841.4
355.23424	6101.3
359.4158	6288
363.59435	6332.5
367.76989	6375.8
371.94243	6359.5
376.11196	6339.7
380.27849	6311.2
384.44203	6307.3
388.60257	6283.5
392.76012	6282.2
396.91468	6329.5
401.06626	6410.9
405.21485	6469.5
409.36047	6358.5
413.50311	6183.2
417.64277	6060.2
421.77947	6017.5
425.9132	5764.3
430.04396	5656.9
434.17176	5681.3
438.2966	5703.6
442.41849	5830.1
446.53742	5954.1
450.6534	6073.9
454.76644	6115.4
458.87653	6105.7
462.98368	6017.8
467.08789	5951.4
471.18916	5858.8
475.2875	5768.6
479.38291	5707.2
483.4754	5677.9
487.56496	5654.9
491.6516	5683
495.73531	5703.8
499.81612	5770.2
503.89401	5800.8
507.96899	5882
512.04106	5949.9
516.11023	6024.7
520.1765	6066.2
524.23987	6059.5
528.30034	6015.5
532.35792	5971
536.41261	5877.5
540.46441	5760.2
544.51333	5685.2
548.55936	5678.9
552.60252	5768.9
556.64279	5886.1
560.6802	5952.1
564.71473	6010.9
568.7464	6120.7
572.7752	6222.4
576.80114	6099.6
580.82422	5955.4
584.84444	5958.3
588.86181	6105.1
592.87633	6197.7
596.888	6336.1
600.89682	6432.1
604.9028	6940.7
608.90594	8489.1
612.90624	10507.4
616.90371	10246.7
620.89834	7748.6
624.89015	6423.7
628.87913	6162.4
632.86528	6231.2
636.84862	6322.8
640.82913	6252.7
644.80683	5985.9
648.78172	5797.6
652.75379	5731.8
656.72306	5846.3
660.68952	6018.7
664.65319	5959.7
668.61405	5735.2
672.57211	5645.5
676.52738	5705.2
680.47986	5862.7
684.42955	6009
688.37646	6053.7
692.32058	5990.7
696.26192	5855.5
700.20048	5784.4
704.13626	5733.1
708.06928	5721.8
711.99952	5665.4
715.927	5653.2
719.85171	5649.3
723.77365	5672.8
727.69284	5639.1
731.60928	5611
735.52295	5583.4
739.43388	5596
743.34206	5599.4
747.24749	5609.7
751.15017	5613
755.05012	5648.5
758.94733	5848.7
762.8418	6374
766.73354	7282.9
770.62254	8251.6
774.50882	8742.9
778.39237	8327.9
782.27321	7379.8
786.15132	6498.3
790.02671	5952.5
793.89938	5726.7
797.76935	5622.4
801.6366	5594.4
805.50115	5599.5
809.36299	5624.4
813.22213	5637.1
817.07857	5602.4
820.93231	5551.1
824.78336	5515.9
828.63172	5478.9
832.47738	5483.4
836.32036	5456.6
840.16066	5433.2
843.99827	5446.8
847.8332	5454.4
851.66546	5444.3
855.49504	5429.7
859.32195	5410.2
863.1462	5401.4
866.96777	5397
870.78668	5422.7
874.60293	5451.4
878.41652	5493.5
882.22745	5541
886.03573	5587.2
889.84136	5636.3
893.64433	5628.3
897.44466	5644.8
901.24235	5647.2
905.0374	5640.7
908.8298	5676
912.61957	5701.2
916.40671	5784.4
920.19121	5928.2
923.97308	6057
927.75233	6183.7
931.52895	6233.4
935.30295	6154.5
939.07433	5942.7
942.84309	5708.7
946.60924	5522.2
950.37278	5370.8
954.13371	5313
957.89203	5218.5
961.64774	5143.8
965.40086	5063.6
969.15137	4995.1
972.89929	4954.4
976.64461	4899.9
980.38733	4865.9
984.12747	4833.1
987.86502	4820.1
991.59999	4824.8
995.33237	4852
999.06217	4885.5
1002.78939	4957.4
1006.51404	5028.7
1010.23611	5125.2
1013.95561	5192.5
1017.67255	5192.6
1021.38692	5153.2
1025.09872	5089.8
1028.80796	5007.5
1032.51465	4951.4
1036.21877	4952.1
1039.92035	4938.2
1043.61937	4952
1047.31584	4955.2
1051.00976	4975.6
1054.70114	4977.4
1058.38998	4979.7
1062.07627	5007.2
1065.76003	5008.3
1069.44126	5016.2
1073.11995	5017.7
1076.79611	5051.1
1080.46974	5121.1
1084.14085	5201.8
1087.80943	5322.4
1091.47549	5346.4
1095.13903	5258.8
1098.80005	5090.8
1102.45857	4946.6
1106.11456	4894.8
1109.76805	4914.5
1113.41903	5019.9
1117.06751	5179.5
1120.71348	5386.3
1124.35696	5632.2
1127.99793	5901.4
1131.63641	6023.7
1135.2724	5847.1
1138.90589	5549.4
1142.5369	5368.8
1146.16542	5205.3
1149.79145	5065.5
1153.415	4981.7
1157.03607	4926.2
1160.65467	4987.4
1164.27079	5133.2
1167.88443	5386.7
1171.49561	5746.1
1175.10432	6403.5
1178.71056	7288.1
1182.31434	8058
1185.91565	8253.4
1189.51451	7910.9
1193.11091	7386.7
1196.70485	6852.9
1200.29634	6425.6
1203.88538	6118.1
1207.47197	5754
1211.05612	5404.1
1214.63782	5211
1218.21708	5103.2
1221.79391	5085.9
1225.36829	5106.9
1228.94024	5112.4
1232.50976	5082.1
1236.07685	5032.5
1239.6415	4981.2
1243.20374	4986.7
1246.76355	5008.1
1250.32093	5057.8
1253.8759	5142.7
1257.42845	5276.2
1260.97859	5461.2
1264.52631	5666.3
1268.07163	5859.6
1271.61453	6046.5
1275.15503	6133.7
1278.69312	6177
1282.22882	6191.6
1285.76211	6318.2
1289.29301	6549.3
1292.82151	6809.8
1296.34761	7102.6
1299.87133	7487.5
1303.39266	8095.4
1306.9116	8967.7
1310.42815	10040
1313.94233	10708.8
1317.45412	10546.7
1320.96354	9765.8
1324.47058	8865.1
1327.97525	8045.9
1331.47754	7466
1334.97747	7160.8
1338.47502	7071.1
1341.97022	7183.4
1345.46305	7534
1348.95352	8193.3
1352.44163	9090.1
1355.92738	10225.7
1359.41078	11879.2
1362.89183	13673.8
1366.37053	13956.9
1369.84688	12063.8
1373.32088	9692.8
1376.79254	8173.1
1380.26186	7390.4
1383.72883	7054.7
1387.19347	6781.9
1390.65578	6518.7
1394.11575	6310.2
1397.57339	6168
1401.0287	6102.5
1404.48168	6015
1407.93234	5907.4
1411.38068	5814.6
1414.82669	5723.4
1418.27039	5677.9
1421.71177	5613.9
1425.15083	5521
1428.58758	5397.4
1432.02203	5383.6
1435.45416	5429.6
1438.88399	5489.5
1442.31151	5468.6
1445.73673	5461.9
1449.15965	5448.7
1452.58027	5453.1
1455.9986	5363.5
1459.41463	5329.7
1462.82837	5352.7
1466.23982	5437.8
1469.64898	5574.1
1473.05586	5655.6
1476.46045	5706.5
1479.86276	5760.5
1483.26279	5857.2
1486.66054	5984.6
1490.05602	6186.9
1493.44922	6495.2
1496.84016	6948
1500.22882	7709.5
1503.61521	8790.8
1506.99934	10184.1
1510.38121	11530.8
1513.76081	12227.7
1517.13816	11647.1
1520.51324	10105.9
1523.88607	8500.5
1527.25665	7373.1
1530.62498	6701.7
1533.99105	6307.4
1537.35488	6058.6
1540.71647	5876.5
1544.07581	5748.7
1547.4329	5699
1550.78776	5691
1554.14038	5751.4
1557.49077	5816.3
1560.83892	5937.6
1564.18484	6124.7
1567.52853	6386.6
1570.86999	6628.3
1574.20922	6799
1577.54624	6785.1
1580.88103	6463.4
1584.2136	5952.2
1587.54395	5543.7
1590.87208	5436.2
1594.19801	5593.9
1597.52172	5940.3
1600.84321	6156.3
1604.16251	5991.1
1607.47959	5677.9
1610.79447	5358.5
1614.10715	5040.8
1617.41763	4789.4
1620.7259	4601
1624.03199	4535.2
1627.33587	4546.2
1630.63757	4647.6
1633.93707	4829.1
1637.23439	5134.4
1640.52951	5688.4
1643.82246	6529.3
1647.11321	7621.6
1650.40179	8479.5
1653.68819	8452.9
1656.97241	7500.4
1660.25446	6188.9
1663.53433	5186
1666.81203	4561.7
1670.08756	4227.1
1673.36092	4019.1
1676.63211	3890.9
1679.90115	3794.9
1683.16801	3727.9
1686.43272	3707.3
1689.69527	3672.1
1692.95567	3642.7
1696.2139	3616
1699.46999	3606.5
1702.72392	3561.7
1705.97571	3530.5
1709.22535	3487.4
1712.47284	3455.2
1715.71819	3407.6
1718.96139	3359.9
1722.20246	3300.4
1725.44139	3248.4
1728.67818	3227.6
1731.91284	3168
1735.14537	3139.6
1738.37576	3093
1741.60403	3059
1744.83017	3045.3
1748.05418	3039.8
1751.27607	3007.1
1754.49584	2979.8
1757.71349	2973.7
1760.92903	2957.4
1764.14244	2935.8
1767.35375	2938.7
1770.56294	2917.2
1773.77002	2905
1776.97499	2885.7
1780.17785	2888.9
1783.37861	2872.6
1786.57727	2857.7
1789.77382	2848.3
1792.96828	2837.3
1796.16064	2823.4
1799.3509	2824.1
1802.53907	2805.1
1805.72514	2792.1
1808.90913	2768.3
1812.09102	2768
1815.27083	2749.3
1818.44856	2735.3
1821.6242	2736
1824.79776	2726.4
1827.96924	2715.7
1831.13864	2713.7
1834.30597	2700.9
1837.47122	2681.6
1840.6344	2688.6
1843.7955	2667.3
1846.95454	2656.1
1850.11151	2663
1853.26642	2656.9
1856.41926	2651
1859.57004	2650.1
1862.71876	2634
1865.86542	2635.1
1869.01003	2634.9
1872.15258	2613.9
1875.29308	2616.6
1878.43152	2608.7
1881.56792	2599.9
1884.70227	2589.7
1887.83457	2585.2
1890.96482	2576
1894.09304	2572
1897.21921	2571
1900.34335	2560.9
1903.46544	2553.9
1906.58551	2544.7
1909.70353	2544.8
1912.81953	2544.7
1915.93349	2534.2
1919.04543	2524.7
1922.15534	2516.1
1925.26322	2512.4
1928.36908	2504.5
1931.47292	2479.2
1934.57473	2472
1937.67453	2451
1940.77232	2434.6
1943.86808	2438
1946.96184	2421.2
1950.05358	2420.8
1953.14331	2404
1956.23103	2406.5
1959.31675	2387.8
1962.40046	2378.2
1965.48217	2379
1968.56188	2373.2
1971.63959	2354.7
1974.7153	2358.8
1977.78901	2349.1
1980.86073	2343.1
1983.93046	2333.6
1986.99819	2308.6
1990.06394	2306.7
1993.1277	2298.1
1996.18947	2288.8
1999.24925	2276.4
2002.30706	2257.8
2005.36288	2260.7
2008.41672	2246
2011.46859	2246
2014.51848	2224.2
2017.56639	2214.4
2020.61233	2220.5
2023.6563	2207.4
2026.6983	2192.4
2029.73833	2184.4
2032.7764	2168.5
2035.8125	2172
2038.84664	2162.4
2041.87881	2164.8
2044.90903	2156.9
2047.93729	2167
2050.96359	2149.5
2053.98794	2149
2057.01034	2136.7
2060.03078	2124.3
2063.04927	2136.5
2066.06582	2139.6
2069.08042	2135.3
2072.09307	2107.1
2075.10378	2106.7
2078.11255	2113.2
2081.11938	2113.4
2084.12426	2116
2087.12722	2114.6
2090.12824	2105.6
2093.12732	2109.4
2096.12447	2110.1
2099.11969	2111
2102.11299	2092.3
2105.10435	2105.6
2108.09379	2101.3
2111.08131	2097.5
2114.0669	2089.3
2117.05057	2103.1
2120.03233	2100.1
2123.01216	2097.7
2125.99008	2089.7
2128.96609	2100.1
2131.94018	2092
2134.91236	2090.5
2137.88263	2084
2140.851	2075
2143.81746	2078.4
2146.78201	2073.2
2149.74466	2057
2152.7054	2047.7
2155.66425	2049.6
2158.6212	2038.9
2161.57625	2030.5
2164.52941	2028.9
2167.48067	2030.5
2170.43004	2025.5
2173.37752	2030.5
2176.32311	2013
2179.26681	2020.1
2182.20863	2018.5
2185.14856	2012.5
2188.08661	2012.9
2191.02278	2008.7
2193.95707	1999.5
2196.88948	2004.4
2199.82001	2006.7
2202.74867	1990.4
2205.67545	1983.2
2208.60037	1983.7
2211.52341	1962
2214.44458	1966.4
2217.36388	1958.5
2220.28132	1944.6
2223.1969	1943.3
2226.11061	1939.4
2229.02246	1936.4
2231.93245	1919.2
2234.84058	1926.7
2237.74686	1927
2240.65128	1922.6
2243.55385	1912.4
2246.45456	1902.7
2249.35343	1893.7
2252.25044	1894.9
2255.14561	1883.6
2258.03893	1890
2260.93041	1894.7
2263.82004	1883.2
2266.70783	1878.9
2269.59378	1866.5
2272.4779	1865.1
2275.36017	1848.6
2278.24061	1845.4
2281.11922	1845.9
2283.996	1850.2
2286.87094	1837.2
2289.74405	1825
2292.61534	1819.1
2295.4848	1805.1
2298.35243	1796.9
2301.21824	1804.4
2304.08223	1808.3
2306.94439	1800.7
2309.80474	1794
2312.66327	1798
2315.51999	1789.6
2318.37489	1788.7
2321.22797	1779.6
2324.07925	1780.9
2326.92871	1773.6
2329.77637	1767.6
2332.62222	1780.5
2335.46626	1756.1
2338.3085	1757.7
2341.14893	1759.4
2343.98756	1760.6
2346.8244	1743.8
2349.65943	1751
2352.49267	1741
2355.32411	1745.2
2358.15376	1757.2
2360.98161	1764.7
2363.80768	1764
2366.63195	1769.6
2369.45444	1770
2372.27514	1769.3
2375.09405	1762.5
2377.91118	1750.9
2380.72652	1742.7
2383.54009	1739.9
2386.35187	1730.6
2389.16188	1705.7
2391.97011	1704.4
2394.77657	1678.7
2397.58125	1682
2400.38416	1686.3
2403.18529	1668
2405.98466	1663.2
2408.78226	1662.1
2411.57809	1663.8
2414.37216	1657.2
2417.16446	1650.4
2419.955	1645.4
2422.74378	1649.2
2425.5308	1645.2
2428.31606	1647.9
2431.09956	1639
2433.88131	1628.7
2436.6613	1638.6
2439.43954	1632.3
2442.21603	1636.7
2444.99077	1640.8
2447.76377	1636.8
2450.53501	1627.9
2453.30451	1631.7
2456.07226	1628.4
2458.83827	1620.1
2461.60254	1628.6
2464.36507	1612.8
2467.12586	1616.1
2469.88492	1613.3
2472.64224	1597.1
2475.39782	1600.5
2478.15167	1605.5
2480.90379	1607.9
2483.65417	1616.6
2486.40283	1609.6
2489.14976	1616.1
2491.89497	1617.4
2494.63845	1621.9
2497.3802	1606.6
2500.12024	1614.1
2502.85855	1594.8
2505.59514	1592.8
2508.33002	1588.6
2511.06318	1571.8
2513.79462	1563.9
2516.52435	1564.2
2519.25237	1549
2521.97867	1544
2524.70327	1536.9
2527.42616	1526
2530.14734	1525
2532.86681	1512.6
2535.58458	1515.3
2538.30065	1515
2541.01501	1513.5
2543.72768	1504.2
2546.43864	1510
2549.14791	1501.8
2551.85548	1502.8
2554.56136	1510.2
2557.26554	1506.9
2559.96803	1493.1
2562.66883	1489.2
2565.36794	1489.5
2568.06536	1477.4
2570.7611	1480.8
2573.45514	1476.2
2576.14751	1475.2
2578.83819	1469.3
2581.52719	1467.6
2584.21451	1463.9
2586.90015	1459.4
2589.58411	1446.3
2592.2664	1447.7
2594.94701	1448.9
2597.62594	1437
2600.30321	1438.7
2602.9788	1438.1
2605.65273	1434.1
2608.32498	1436.2
2610.99557	1423.2
2613.66449	1426.1
2616.33175	1420
2618.99734	1419.3
2621.66128	1414.1
2624.32355	1415.5
2626.98416	1420.5
2629.64311	1411
2632.30041	1411.6
2634.95605	1403.7
2637.61004	1400
2640.26238	1392.6
2642.91306	1396.7
2645.56209	1388.7
2648.20948	1394.5
2650.85521	1382.4
2653.4993	1393.3
2656.14175	1386.5
2658.78255	1384
2661.42171	1391
2664.05923	1385.2
2666.6951	1384.1
2669.32934	1396.6
2671.96194	1390.6
2674.59291	1390.8
2677.22224	1388.3
2679.84993	1398
2682.476	1393.4
2685.10043	1387.3
2687.72324	1390.5
2690.34441	1388.8
2692.96396	1383.9
2695.58188	1381.8
2698.19818	1381.4
2700.81285	1388.3
2703.4259	1372.8
2706.03733	1371.7
2708.64714	1373.4
2711.25533	1383.3
2713.86191	1379.5
2716.46687	1383.8
2719.07021	1382.9
2721.67194	1377.9
2724.27206	1385.2
2726.87057	1383
2729.46747	1382.1
2732.06276	1378.2
2734.65644	1372.2
2737.24852	1374.1
2739.83899	1368.5
2742.42786	1364.4
2745.01513	1363.6
2747.60079	1358.3
2750.18486	1353.8
2752.76733	1350.3
2755.3482	1354.5
2757.92747	1350.3
2760.50515	1343.6
2763.08123	1348.7
2765.65573	1342.3
2768.22863	1338.9
2770.79994	1336.7
2773.36967	1327.2
2775.9378	1331.9
2778.50435	1331.4
2781.06932	1315.5
2783.6327	1330.8
2786.1945	1319
2788.75471	1318.7
2791.31335	1316.1
2793.87041	1315.9
2796.42589	1313
2798.97979	1310.7
2801.53212	1307.3
2804.08288	1302.4
2806.63206	1306.5
2809.17967	1299.8
2811.72571	1298
2814.27018	1289
2816.81308	1294.7
2819.35442	1297.4
2821.89419	1298.1
2824.43239	1288.4
2826.96904	1300.1
2829.50412	1295.1
2832.03763	1290.3
2834.56959	1291.6
2837.1	1290.9
2839.62884	1293.6
2842.15613	1302.8
2844.68186	1324.9
2847.20604	1326.1
2849.72867	1336.8
2852.24974	1336.8
2854.76927	1343.9
2857.28724	1340.9
2859.80367	1340.9
2862.31855	1344.4
2864.83189	1350
2867.34368	1352.1
2869.85393	1347.1
2872.36264	1341.8
2874.8698	1357
2877.37543	1345.4
2879.87952	1357.5
2882.38207	1355.3
2884.88308	1342.5
2887.38256	1344.2
2889.88051	1355.5
2892.37692	1346.8
2894.8718	1345.3
2897.36515	1359.5
2899.85698	1363.9
2902.34727	1366.7
2904.83604	1375.7
2907.32328	1382.2
2909.809	1393
2912.29319	1392.5
2914.77587	1398.6
2917.25702	1409.3
2919.73665	1410.7
2922.21476	1415.1
2924.69136	1411.7
2927.16644	1419.8
2929.64	1409.5
2932.11205	1412.9
2934.58258	1405
2937.05161	1402.9
2939.51912	1395.7
2941.98513	1383.1
2944.44962	1367.3
2946.91261	1352.9
2949.37409	1357.3
2951.83407	1341.5
2954.29254	1333.3
2956.74951	1314.2
2959.20498	1313.4
2961.65895	1301.1
2964.11142	1296.6
2966.56239	1295
2969.01186	1257.4
2971.45984	1264.9
2973.90632	1277.9
2976.35131	1276.8
2978.7948	1266.4
2981.23681	1247.4
2983.67732	1255.9
2986.11635	1242.1
2988.55388	1243.2
2990.98993	1236.4
2993.4245	1236.6
2995.85758	1240
2998.28917	1235.4
3000.71928	1227
3003.14791	1230.6
3005.57506	1228.8
3008.00073	1215.3
3010.42493	1222
3012.84764	1223.7
3015.26888	1223.4
3017.68865	1219.7
3020.10694	1218.8
3022.52376	1215.8
3024.9391	1215
3027.35298	1221.7
3029.76539	1222.1
3032.17632	1210.1
3034.5858	1206.2
3036.9938	1213.8
3039.40034	1210.3
3041.80542	1219.5
3044.20903	1209
3046.61118	1213.8
3049.01187	1207.6
3051.4111	1204.1
3053.80888	1210.4
3056.20519	1214.2
3058.60005	1211.3
3060.99345	1211.1
3063.3854	1208
3065.7759	1193.6
3068.16494	1204.4
3070.55254	1197.6
3072.93868	1200.9
3075.32338	1210.6
3077.70662	1203.1
3080.08842	1204.8
3082.46878	1204.3
3084.84769	1205.4
3087.22515	1208.1
3089.60118	1209.8
3091.97576	1214.9
3094.3489	1210.7
3096.72061	1217.3
3099.09087	1222
3101.4597	1228.9
3103.82709	1232.5
3106.19305	1236.1
3108.55757	1228.1
3110.92066	1233.3
3113.28232	1243.7
3115.64255	1246.8
3118.00134	1246.1
3120.35871	1256.3
3122.71466	1248.1
3125.06917	1258.8
3127.42226	1259.3
3129.77393	1270.5
3132.12417	1259.8
3134.47299	1272.4
3136.82039	1276.8
3139.16636	1277.2
3141.51092	1283.5
3143.85406	1292
3146.19579	1294.5
3148.53609	1300.9
3150.87499	1307.8
3153.21246	1317.4
3155.54853	1317.5
3157.88318	1319.3
3160.21642	1335.1
3162.54826	1348.3
3164.87868	1345.6
3167.2077	1348.4
3169.5353	1358.1
3171.86151	1361.7
3174.18631	1367.7
3176.5097	1369.7
3178.83169	1366.5
3181.15228	1374.7
3183.47147	1377.6
3185.78926	1379
3188.10565	1384.7
3190.42065	1391.3
3192.73424	1401.5
3195.04645	1399.5
3197.35725	1397.1
3199.66667	1405.1
3201.97469	1402.5
3204.28132	1408.2
3206.58656	1422.9
3208.8904	1420.5
3211.19287	1420.1
3213.49394	1441.5
3215.79363	1436.1
3218.09193	1447.3
3220.38884	1430.6
3222.68438	1442.2
3224.97853	1439.7
3227.2713	1451.8
3229.56269	1450.4
3231.8527	1457.4
3234.14133	1455.6
3236.42858	1450.1
3238.71446	1454.4
3240.99896	1449.3
3243.28209	1447.4
3245.56384	1441.8
3247.84423	1448.2
3250.12324	1450.1
3252.40088	1459.2
3254.67715	1441.9
3256.95205	1441.5
3259.22558	1446.8
3261.49775	1441.1
3263.76855	1444.4
3266.03799	1450.7
3268.30606	1438.9
3270.57277	1444
3272.83812	1446
3275.10211	1443.3
3277.36474	1440.5
3279.62601	1436.3
3281.88593	1431.2
3284.14448	1430.8
3286.40168	1440.7
3288.65753	1436.1
3290.91202	1439.9
3293.16516	1435.1
3295.41695	1428.9
3297.66738	1426.2
3299.91647	1430.3
3302.16421	1406.9
3304.4106	1409.2
3306.65564	1404.5
3308.89933	1401.1
3311.14169	1388.8
3313.38269	1380.1
3315.62236	1379.4
3317.86068	1367.9
3320.09766	1363.5
3322.3333	1356.1
3324.5676	1344.5
3326.80056	1322.3
3329.03219	1331.4
3331.26248	0.6
3333.49143	-0.4
3335.71905	0.1
