Data from AgNPs_APTES_FTO_UA_50uM_CRN_0uM_R6G_10uM_Scan_RamanShift__27__11-42-33-685.txt Node

Date: Tue Jul 05 11:42:33 BST 2022
User: TCL
Spectrometer: QEP01345
Trigger mode: 4
Integration Time (sec): 7.000000E0
Scans to average: 10
Electric dark correction enabled: true
Nonlinearity correction enabled: false
Boxcar width: 0
XAxis mode: Raman Shifts
Number of Pixels in Spectrum: 1044
>>>>>Begin Spectral Data<<<<<
46.04893	-0.8
50.45542	0.5
54.85868	-1.2
59.25871	0.8
63.6555	33.6
68.04907	39.1
72.43941	40.9
76.82654	42.4
81.21044	46.3
85.59113	50.9
89.96862	51.1
94.34289	53.3
98.71396	56.1
103.08183	58.9
107.4465	54.4
111.80798	57.2
116.16626	54.8
120.52136	56.3
124.87327	57.5
129.222	59.2
133.56755	62.2
137.90993	61.8
142.24913	66.8
146.58517	71.8
150.91804	82.7
155.24774	88.3
159.57429	103.2
163.89768	128.7
168.21792	169.3
172.53501	219.2
176.84895	299.3
181.15975	417.5
185.46741	569.6
189.77193	785.6
194.07331	1044.2
198.37157	1332.2
202.6667	1631.6
206.9587	1940.3
211.24758	2238.4
215.53334	2543.4
219.81599	2855.1
224.09553	3207.2
228.37195	3583.2
232.64527	3997.3
236.91549	4426.1
241.18261	4828
245.44663	5179.8
249.70755	5482.9
253.96539	5765
258.22014	5976.8
262.4718	6139.1
266.72039	6263.9
270.96589	6336.2
275.20832	6319.1
279.44768	6234.7
283.68397	6107.9
287.91719	6021.6
292.14735	5970.5
296.37445	6009.7
300.59849	6084.5
304.81948	6180.5
309.03742	6282.7
313.25231	6254.1
317.46415	6086.4
321.67296	5831.5
325.87872	5615.8
330.08145	5515.5
334.28114	5496.2
338.47781	5544.3
342.67145	5634
346.86207	5760.1
351.04966	5940.9
355.23424	6164
359.4158	6366.5
363.59435	6505.4
367.76989	6600.8
371.94243	6649
376.11196	6698.8
380.27849	6713.1
384.44203	6730.2
388.60257	6714
392.76012	6723.2
396.91468	6743.9
401.06626	6821.1
405.21485	6885.4
409.36047	6781.2
413.50311	6569.3
417.64277	6349.6
421.77947	6223.6
425.9132	6190
430.04396	6179.6
434.17176	6193.5
438.2966	6261.1
442.41849	6344.9
446.53742	6464
450.6534	6559
454.76644	6621.1
458.87653	6589.3
462.98368	6546.4
467.08789	6528.8
471.18916	6462
475.2875	6438.9
479.38291	6429.7
483.4754	6433.9
487.56496	6503.2
491.6516	6589
495.73531	6664.7
499.81612	6649
503.89401	6658
507.96899	6628.4
512.04106	6670.3
516.11023	6750.2
520.1765	6833.2
524.23987	6853.8
528.30034	6837.8
532.35792	6787
536.41261	6702.2
540.46441	6569.1
544.51333	6500.7
548.55936	6454.1
552.60252	6463.9
556.64279	6526.3
560.6802	6536.8
564.71473	6550.3
568.7464	6660.4
572.7752	6713.4
576.80114	6647.1
580.82422	6559.9
584.84444	6595.5
588.86181	6688.3
592.87633	6795.5
596.888	6869.7
600.89682	6962.6
604.9028	7376
608.90594	8581.5
612.90624	10129.5
616.90371	9978.1
620.89834	8225.2
624.89015	7500.6
628.87913	7603
632.86528	7948.8
636.84862	8173.9
640.82913	8057
644.80683	7654.5
648.78172	7247.7
652.75379	6973.3
656.72306	6907.6
660.68952	6932.9
664.65319	6817.3
668.61405	6595.7
672.57211	6506.5
676.52738	6521.7
680.47986	6543.8
684.42955	6537
688.37646	6537.3
692.32058	6501.2
696.26192	6466.5
700.20048	6422.8
704.13626	6445.5
708.06928	6427
711.99952	6405.1
715.927	6402
719.85171	6438
723.77365	6508
727.69284	6508.3
731.60928	6454.7
735.52295	6404.2
739.43388	6356.1
743.34206	6364.5
747.24749	6353.8
751.15017	6376.7
755.05012	6395.6
758.94733	6498.8
762.8418	6881.1
766.73354	7560
770.62254	8354.6
774.50882	8820
778.39237	8569.5
782.27321	7769.8
786.15132	7001
790.02671	6555
793.89938	6361.7
797.76935	6304.1
801.6366	6385.5
805.50115	6516.3
809.36299	6670.2
813.22213	6693.5
817.07857	6631
820.93231	6481.2
824.78336	6314.3
828.63172	6199.3
832.47738	6126.5
836.32036	6077.7
840.16066	6045.1
843.99827	6042.4
847.8332	6070.1
851.66546	6037.5
855.49504	6021.7
859.32195	5997.3
863.1462	6016.2
866.96777	6026.7
870.78668	6115.9
874.60293	6213.9
878.41652	6355.6
882.22745	6485.5
886.03573	6571.4
889.84136	6595.6
893.64433	6517.5
897.44466	6350.4
901.24235	6197.5
905.0374	6073.2
908.8298	6001
912.61957	5935.5
916.40671	5914.4
920.19121	5927.5
923.97308	5943.5
927.75233	5983.1
931.52895	6023.2
935.30295	5997.1
939.07433	5878.9
942.84309	5755.4
946.60924	5666.1
950.37278	5595.8
954.13371	5556.7
957.89203	5544.2
961.64774	5501
965.40086	5446.8
969.15137	5392.4
972.89929	5392.9
976.64461	5365.1
980.38733	5338.9
984.12747	5295.2
987.86502	5308
991.59999	5327.5
995.33237	5346.2
999.06217	5427.2
1002.78939	5525.7
1006.51404	5609.1
1010.23611	5723.3
1013.95561	5801.6
1017.67255	5798.4
1021.38692	5767.3
1025.09872	5663.5
1028.80796	5553.4
1032.51465	5439.6
1036.21877	5403.8
1039.92035	5395.2
1043.61937	5385.7
1047.31584	5383.6
1051.00976	5397.7
1054.70114	5415.9
1058.38998	5438.3
1062.07627	5480
1065.76003	5514
1069.44126	5530
1073.11995	5543.3
1076.79611	5571.6
1080.46974	5580
1084.14085	5618
1087.80943	5671.3
1091.47549	5680.7
1095.13903	5593.9
1098.80005	5475.3
1102.45857	5354.1
1106.11456	5327
1109.76805	5378.2
1113.41903	5484.4
1117.06751	5703.3
1120.71348	5982.6
1124.35696	6349.5
1127.99793	6767
1131.63641	7065.7
1135.2724	7039.9
1138.90589	6868.7
1142.5369	6592.9
1146.16542	6241.3
1149.79145	5922.8
1153.415	5649.3
1157.03607	5458.2
1160.65467	5397.2
1164.27079	5418.3
1167.88443	5552.7
1171.49561	5822.6
1175.10432	6295.3
1178.71056	6986.2
1182.31434	7559.3
1185.91565	7739.9
1189.51451	7592.9
1193.11091	7324.2
1196.70485	7067.5
1200.29634	6894.8
1203.88538	6778.1
1207.47197	6484.5
1211.05612	6152.8
1214.63782	5899.8
1218.21708	5734.8
1221.79391	5579.2
1225.36829	5492.2
1228.94024	5443.6
1232.50976	5380.7
1236.07685	5337.7
1239.6415	5303.3
1243.20374	5304.7
1246.76355	5326
1250.32093	5366.7
1253.8759	5421.4
1257.42845	5524.9
1260.97859	5629.4
1264.52631	5753.1
1268.07163	5879.1
1271.61453	5951.9
1275.15503	6021.7
1278.69312	6018.4
1282.22882	5991.2
1285.76211	6037
1289.29301	6202.7
1292.82151	6349.3
1296.34761	6544.3
1299.87133	6829.3
1303.39266	7273.9
1306.9116	7934.6
1310.42815	8703.2
1313.94233	9145.6
1317.45412	9010.4
1320.96354	8457.3
1324.47058	7799.5
1327.97525	7239.2
1331.47754	6882.6
1334.97747	6709
1338.47502	6735.3
1341.97022	6854.6
1345.46305	7110.2
1348.95352	7623.4
1352.44163	8339.2
1355.92738	9256.5
1359.41078	10544.6
1362.89183	11775
1366.37053	11760.3
1369.84688	10350.5
1373.32088	8732.6
1376.79254	7658
1380.26186	7064
1383.72883	6777.2
1387.19347	6527.4
1390.65578	6294.9
1394.11575	6077.9
1397.57339	5915.9
1401.0287	5814
1404.48168	5717.7
1407.93234	5600
1411.38068	5474.9
1414.82669	5394.6
1418.27039	5303.8
1421.71177	5246.6
1425.15083	5159.9
1428.58758	5077.3
1432.02203	5061.8
1435.45416	5085.5
1438.88399	5111.4
1442.31151	5104.5
1445.73673	5105
1449.15965	5085.1
1452.58027	5063.8
1455.9986	5038.1
1459.41463	5019.2
1462.82837	5018.7
1466.23982	5095.4
1469.64898	5175.6
1473.05586	5221
1476.46045	5272
1479.86276	5314.6
1483.26279	5404.8
1486.66054	5520.4
1490.05602	5677.2
1493.44922	5931
1496.84016	6285
1500.22882	6883.1
1503.61521	7703
1506.99934	8707
1510.38121	9629
1513.76081	10033.7
1517.13816	9582.9
1520.51324	8475.9
1523.88607	7365
1527.25665	6599.1
1530.62498	6173
1533.99105	5957.7
1537.35488	5818.3
1540.71647	5738.5
1544.07581	5701.5
1547.4329	5714.9
1550.78776	5736.3
1554.14038	5791
1557.49077	5866.8
1560.83892	5944.5
1564.18484	6067.3
1567.52853	6235.2
1570.86999	6373.1
1574.20922	6500.9
1577.54624	6515.3
1580.88103	6276.8
1584.2136	5878.8
1587.54395	5608.2
1590.87208	5489.3
1594.19801	5593.6
1597.52172	5865.7
1600.84321	6018.3
1604.16251	5973.4
1607.47959	5792.6
1610.79447	5611.8
1614.10715	5389.9
1617.41763	5238
1620.7259	5108.2
1624.03199	5074.5
1627.33587	5095.2
1630.63757	5130.6
1633.93707	5250.1
1637.23439	5475.6
1640.52951	5840.7
1643.82246	6429.4
1647.11321	7159.5
1650.40179	7776.5
1653.68819	7781.2
1656.97241	7112.7
1660.25446	6228.6
1663.53433	5522.2
1666.81203	5064.7
1670.08756	4749.3
1673.36092	4571.6
1676.63211	4427.8
1679.90115	4314.1
1683.16801	4224.8
1686.43272	4156.6
1689.69527	4085.3
1692.95567	4036.3
1696.2139	3973.2
1699.46999	3904.8
1702.72392	3831.1
1705.97571	3752.1
1709.22535	3666.3
1712.47284	3618.8
1715.71819	3565.5
1718.96139	3523.4
1722.20246	3475.2
1725.44139	3419.6
1728.67818	3375.1
1731.91284	3359
1735.14537	3308.7
1738.37576	3282.2
1741.60403	3250.8
1744.83017	3234.8
1748.05418	3204.2
1751.27607	3213.5
1754.49584	3184.3
1757.71349	3143
1760.92903	3132.4
1764.14244	3130.3
1767.35375	3122.4
1770.56294	3104.5
1773.77002	3084.5
1776.97499	3068.3
1780.17785	3065.3
1783.37861	3078.3
1786.57727	3043.6
1789.77382	3026.5
1792.96828	3020.7
1796.16064	3018.2
1799.3509	2996.9
1802.53907	2996.1
1805.72514	2972.4
1808.90913	2961.4
1812.09102	2947.1
1815.27083	2938.7
1818.44856	2925.8
1821.6242	2927.1
1824.79776	2895.4
1827.96924	2898.5
1831.13864	2895.4
1834.30597	2881.9
1837.47122	2869.6
1840.6344	2865
1843.7955	2849.3
1846.95454	2845.9
1850.11151	2827.9
1853.26642	2838.4
1856.41926	2829.9
1859.57004	2841.3
1862.71876	2802.3
1865.86542	2796.4
1869.01003	2814
1872.15258	2793.4
1875.29308	2806.2
1878.43152	2775.9
1881.56792	2777.6
1884.70227	2769.7
1887.83457	2768.4
1890.96482	2749.3
1894.09304	2746.4
1897.21921	2737.1
1900.34335	2735.5
1903.46544	2720
1906.58551	2722.2
1909.70353	2718.5
1912.81953	2706.8
1915.93349	2700.5
1919.04543	2698.8
1922.15534	2688.9
1925.26322	2673.4
1928.36908	2665.5
1931.47292	2664.4
1934.57473	2638.6
1937.67453	2634
1940.77232	2623.6
1943.86808	2610.8
1946.96184	2596.7
1950.05358	2584.7
1953.14331	2573.3
1956.23103	2569.3
1959.31675	2556.5
1962.40046	2537.5
1965.48217	2523.2
1968.56188	2526.5
1971.63959	2513
1974.7153	2498.5
1977.78901	2498.2
1980.86073	2481.1
1983.93046	2476.4
1986.99819	2470.1
1990.06394	2451.1
1993.1277	2448.2
1996.18947	2453.2
1999.24925	2419.3
2002.30706	2398
2005.36288	2389.3
2008.41672	2387.5
2011.46859	2385.1
2014.51848	2367.8
2017.56639	2361.5
2020.61233	2356.5
2023.6563	2344.1
2026.6983	2333.1
2029.73833	2311.7
2032.7764	2311.3
2035.8125	2313.6
2038.84664	2289.8
2041.87881	2280.1
2044.90903	2283.6
2047.93729	2282.9
2050.96359	2275.7
2053.98794	2279.5
2057.01034	2251.5
2060.03078	2263.4
2063.04927	2257
2066.06582	2254.7
2069.08042	2237.4
2072.09307	2244.3
2075.10378	2233
2078.11255	2234.5
2081.11938	2241.5
2084.12426	2225.6
2087.12722	2230.5
2090.12824	2215
2093.12732	2220.8
2096.12447	2210
2099.11969	2213.4
2102.11299	2208.1
2105.10435	2207.3
2108.09379	2198.3
2111.08131	2209.1
2114.0669	2208.9
2117.05057	2209
2120.03233	2204.7
2123.01216	2202.8
2125.99008	2204.3
2128.96609	2200.3
2131.94018	2190.4
2134.91236	2198.8
2137.88263	2206.5
2140.851	2188.6
2143.81746	2199.8
2146.78201	2177.2
2149.74466	2176.6
2152.7054	2173
2155.66425	2167.7
2158.6212	2163.5
2161.57625	2164.2
2164.52941	2155.4
2167.48067	2155.6
2170.43004	2160.1
2173.37752	2146.4
2176.32311	2146.8
2179.26681	2137.6
2182.20863	2142.9
2185.14856	2139.4
2188.08661	2134.6
2191.02278	2118.4
2193.95707	2122.1
2196.88948	2122.7
2199.82001	2119.6
2202.74867	2109.9
2205.67545	2095.9
2208.60037	2091.9
2211.52341	2092.4
2214.44458	2082.5
2217.36388	2071.3
2220.28132	2071.4
2223.1969	2065.2
2226.11061	2057.9
2229.02246	2047.1
2231.93245	2032.4
2234.84058	2040.9
2237.74686	2040.6
2240.65128	2024
2243.55385	2034.2
2246.45456	2021
2249.35343	2006.5
2252.25044	2003.8
2255.14561	2006.1
2258.03893	2009.3
2260.93041	2000.4
2263.82004	1992.1
2266.70783	1985.5
2269.59378	1980
2272.4779	1962.5
2275.36017	1964.9
2278.24061	1953.4
2281.11922	1943.3
2283.996	1957.5
2286.87094	1933.2
2289.74405	1935.7
2292.61534	1928.4
2295.4848	1911.2
2298.35243	1920.5
2301.21824	1905.7
2304.08223	1907.7
2306.94439	1898.8
2309.80474	1903.8
2312.66327	1898
2315.51999	1906.3
2318.37489	1875.3
2321.22797	1881.6
2324.07925	1882.4
2326.92871	1865.1
2329.77637	1874.7
2332.62222	1866.2
2335.46626	1845.5
2338.3085	1840.9
2341.14893	1844.1
2343.98756	1852.9
2346.8244	1841.9
2349.65943	1835.6
2352.49267	1836.8
2355.32411	1834.8
2358.15376	1828.8
2360.98161	1831
2363.80768	1837.4
2366.63195	1845.2
2369.45444	1843.4
2372.27514	1837.9
2375.09405	1841
2377.91118	1831.9
2380.72652	1817.5
2383.54009	1799.7
2386.35187	1811.1
2389.16188	1793.5
2391.97011	1790.1
2394.77657	1782.9
2397.58125	1769.6
2400.38416	1761.1
2403.18529	1752.5
2405.98466	1753
2408.78226	1748.5
2411.57809	1737.6
2414.37216	1737.3
2417.16446	1732.2
2419.955	1722.5
2422.74378	1732.2
2425.5308	1728.1
2428.31606	1717.1
2431.09956	1718.9
2433.88131	1713.4
2436.6613	1701.5
2439.43954	1709.1
2442.21603	1706.2
2444.99077	1709.5
2447.76377	1698.7
2450.53501	1691
2453.30451	1698.3
2456.07226	1691.4
2458.83827	1688
2461.60254	1681.3
2464.36507	1695.5
2467.12586	1679.7
2469.88492	1668.8
2472.64224	1672.3
2475.39782	1672.6
2478.15167	1670.4
2480.90379	1670.2
2483.65417	1674.9
2486.40283	1667.2
2489.14976	1668.1
2491.89497	1665.9
2494.63845	1677.2
2497.3802	1660.3
2500.12024	1658.8
2502.85855	1654.7
2505.59514	1655.2
2508.33002	1639.8
2511.06318	1641.6
2513.79462	1618.5
2516.52435	1618.9
2519.25237	1606.1
2521.97867	1605.3
2524.70327	1602.3
2527.42616	1579.3
2530.14734	1586
2532.86681	1577.5
2535.58458	1586.3
2538.30065	1581.6
2541.01501	1562.2
2543.72768	1568.7
2546.43864	1564.1
2549.14791	1556.9
2551.85548	1552.5
2554.56136	1554.2
2557.26554	1555.7
2559.96803	1542.8
2562.66883	1542.2
2565.36794	1541.8
2568.06536	1532.3
2570.7611	1530
2573.45514	1526.3
2576.14751	1520.1
2578.83819	1514.4
2581.52719	1506.6
2584.21451	1508.4
2586.90015	1504.3
2589.58411	1502.7
2592.2664	1489.4
2594.94701	1493.3
2597.62594	1495.4
2600.30321	1479.8
2602.9788	1477.2
2605.65273	1475.3
2608.32498	1475.7
2610.99557	1475.3
2613.66449	1462.4
2616.33175	1462.5
2618.99734	1456.3
2621.66128	1465.1
2624.32355	1454.8
2626.98416	1456.9
2629.64311	1445.4
2632.30041	1442.2
2634.95605	1446.7
2637.61004	1443.4
2640.26238	1430.2
2642.91306	1434.3
2645.56209	1433.7
2648.20948	1429.4
2650.85521	1428.6
2653.4993	1425.9
2656.14175	1431.4
2658.78255	1419.7
2661.42171	1431.9
2664.05923	1422.8
2666.6951	1420.5
2669.32934	1427.3
2671.96194	1414
2674.59291	1421.5
2677.22224	1419.7
2679.84993	1419.6
2682.476	1418.1
2685.10043	1416.8
2687.72324	1409.6
2690.34441	1421.7
2692.96396	1414.6
2695.58188	1416.3
2698.19818	1406.8
2700.81285	1411.8
2703.4259	1410.8
2706.03733	1411.3
2708.64714	1411.7
2711.25533	1401.8
2713.86191	1407.7
2716.46687	1412.2
2719.07021	1409.7
2721.67194	1417.2
2724.27206	1407.8
2726.87057	1414.3
2729.46747	1408.4
2732.06276	1411.7
2734.65644	1405.1
2737.24852	1406.1
2739.83899	1402.2
2742.42786	1397.9
2745.01513	1400.8
2747.60079	1390.5
2750.18486	1388.1
2752.76733	1396.2
2755.3482	1386.1
2757.92747	1378.7
2760.50515	1383.4
2763.08123	1381.4
2765.65573	1376.1
2768.22863	1373.3
2770.79994	1363.9
2773.36967	1368.8
2775.9378	1363.5
2778.50435	1357.2
2781.06932	1361.7
2783.6327	1360.1
2786.1945	1362
2788.75471	1364.4
2791.31335	1361.1
2793.87041	1351.9
2796.42589	1357.2
2798.97979	1350.6
2801.53212	1347.5
2804.08288	1354.2
2806.63206	1354.4
2809.17967	1347.5
2811.72571	1345.1
2814.27018	1333.8
2816.81308	1338.1
2819.35442	1340.4
2821.89419	1333
2824.43239	1342.8
2826.96904	1337.5
2829.50412	1344.8
2832.03763	1334.9
2834.56959	1334.5
2837.1	1342.3
2839.62884	1345.1
2842.15613	1348.8
2844.68186	1370.8
2847.20604	1378.2
2849.72867	1384.9
2852.24974	1389.4
2854.76927	1386
2857.28724	1377.6
2859.80367	1395.2
2862.31855	1385.1
2864.83189	1387.4
2867.34368	1381.2
2869.85393	1389.1
2872.36264	1387.9
2874.8698	1392
2877.37543	1385.2
2879.87952	1392.9
2882.38207	1395.6
2884.88308	1383.3
2887.38256	1382.5
2889.88051	1381.3
2892.37692	1377
2894.8718	1375
2897.36515	1382.6
2899.85698	1387.8
2902.34727	1379
2904.83604	1385.5
2907.32328	1395.1
2909.809	1393.6
2912.29319	1403.6
2914.77587	1400.1
2917.25702	1404.1
2919.73665	1395.1
2922.21476	1391.7
2924.69136	1397
2927.16644	1401.7
2929.64	1391.2
2932.11205	1393.7
2934.58258	1385
2937.05161	1384.3
2939.51912	1376.2
2941.98513	1367.2
2944.44962	1353.9
2946.91261	1343.4
2949.37409	1341.6
2951.83407	1333.3
2954.29254	1319.9
2956.74951	1313
2959.20498	1308.4
2961.65895	1309.9
2964.11142	1301.1
2966.56239	1294.5
2969.01186	1253.4
2971.45984	1278.5
2973.90632	1281.1
2976.35131	1275.7
2978.7948	1273.1
2981.23681	1267.8
2983.67732	1262.5
2986.11635	1260.6
2988.55388	1257.5
2990.98993	1255.1
2993.4245	1260.1
2995.85758	1255.5
2998.28917	1252.7
3000.71928	1246.1
3003.14791	1249.7
3005.57506	1252.7
3008.00073	1235.3
3010.42493	1247.1
3012.84764	1244.4
3015.26888	1245.5
3017.68865	1244.1
3020.10694	1238.3
3022.52376	1241.9
3024.9391	1247.2
3027.35298	1243.6
3029.76539	1244.8
3032.17632	1246.2
3034.5858	1239.7
3036.9938	1241.8
3039.40034	1239.8
3041.80542	1239.3
3044.20903	1237.2
3046.61118	1241.8
3049.01187	1243
3051.4111	1236.5
3053.80888	1244.1
3056.20519	1253.1
3058.60005	1249.2
3060.99345	1256.7
3063.3854	1245
3065.7759	1250.1
3068.16494	1248.3
3070.55254	1237.5
3072.93868	1246
3075.32338	1246.6
3077.70662	1249.5
3080.08842	1250.6
3082.46878	1252.2
3084.84769	1256.3
3087.22515	1262.3
3089.60118	1259.7
3091.97576	1264.6
3094.3489	1272.2
3096.72061	1275.5
3099.09087	1282.6
3101.4597	1283.8
3103.82709	1296.1
3106.19305	1302.3
3108.55757	1296.9
3110.92066	1303.4
3113.28232	1309.7
3115.64255	1316.1
3118.00134	1311.1
3120.35871	1312.8
3122.71466	1319.1
3125.06917	1328.3
3127.42226	1323.7
3129.77393	1341.1
3132.12417	1340.5
3134.47299	1346.3
3136.82039	1349.9
3139.16636	1362.5
3141.51092	1361.6
3143.85406	1373
3146.19579	1380.2
3148.53609	1386.8
3150.87499	1399.1
3153.21246	1398.5
3155.54853	1414
3157.88318	1415.3
3160.21642	1426.9
3162.54826	1433.7
3164.87868	1435.6
3167.2077	1446.2
3169.5353	1452.9
3171.86151	1459.5
3174.18631	1461.1
3176.5097	1472.5
3178.83169	1478
3181.15228	1485.9
3183.47147	1472
3185.78926	1489.4
3188.10565	1485.2
3190.42065	1503.1
3192.73424	1500.8
3195.04645	1505.5
3197.35725	1512
3199.66667	1519.8
3201.97469	1525.8
3204.28132	1521.2
3206.58656	1527.3
3208.8904	1537.5
3211.19287	1546.1
3213.49394	1550.9
3215.79363	1547.8
3218.09193	1561.2
3220.38884	1557.7
3222.68438	1564
3224.97853	1572.4
3227.2713	1576.4
3229.56269	1567.1
3231.8527	1582.9
3234.14133	1585.1
3236.42858	1574.8
3238.71446	1576.4
3240.99896	1570
3243.28209	1558.2
3245.56384	1566.1
3247.84423	1574.7
3250.12324	1568.1
3252.40088	1572.6
3254.67715	1572.1
3256.95205	1568.2
3259.22558	1563.3
3261.49775	1562.6
3263.76855	1570.3
3266.03799	1564.3
3268.30606	1572.8
3270.57277	1565.7
3272.83812	1558.3
3275.10211	1555.2
3277.36474	1557.6
3279.62601	1561.3
3281.88593	1545.7
3284.14448	1548.4
3286.40168	1558.6
3288.65753	1550.6
3290.91202	1544.2
3293.16516	1543.4
3295.41695	1556.5
3297.66738	1554.5
3299.91647	1544.6
3302.16421	1534.7
3304.4106	1521.6
3306.65564	1524.3
3308.89933	1509.5
3311.14169	1499.7
3313.38269	1497.1
3315.62236	1482.9
3317.86068	1474.5
3320.09766	1465.5
3322.3333	1451.6
3324.5676	1449.8
3326.80056	1428.3
3329.03219	1422.6
3331.26248	0.8
3333.49143	0
3335.71905	-0.8
