#Wave		#Intensity
2001.221680	40106.738281
2000.251953	40818.585938
1999.282227	40192.460938
1998.312500	41094.992188
1997.342773	40228.535156
1996.372070	40714.949219
1995.402344	40690.308594
1994.431641	40728.273438
1993.460938	40220.472656
1992.490234	40621.441406
1991.518555	41370.125000
1990.547852	40719.851563
1989.576172	40425.042969
1988.604492	40678.113281
1987.632813	40603.488281
1986.661133	40623.898438
1985.689453	40861.800781
1984.716797	41087.117188
1983.745117	40570.125000
1982.772461	40520.562500
1981.799805	40565.945313
1980.827148	40686.242188
1979.853516	40336.996094
1978.880859	41111.480469
1977.907227	40774.761719
1976.933594	40685.265625
1975.959961	40643.218750
1974.986328	40848.203125
1974.011719	41177.851563
1973.038086	40666.808594
1972.063477	40966.441406
1971.088867	41592.609375
1970.114258	41024.417969
1969.138672	41007.273438
1968.164063	40850.578125
1967.188477	40880.812500
1966.212891	40913.523438
1965.237305	40916.332031
1964.261719	41073.539063
1963.286133	40640.582031
1962.309570	41225.972656
1961.333984	41009.679688
1960.357422	40659.078125
1959.380859	40898.296875
1958.404297	40901.093750
1957.426758	41068.050781
1956.450195	41137.960938
1955.472656	41021.359375
1954.495117	40971.917969
1953.517578	41591.117188
1952.540039	41032.136719
1951.561523	41129.316406
1950.583008	41214.035156
1949.605469	41519.785156
1948.626953	41251.761719
1947.647461	41420.832031
1946.668945	41237.324219
1945.690430	40986.859375
1944.710938	41066.542969
1943.731445	41448.910156
1942.751953	41545.843750
1941.772461	41265.734375
1940.791992	41561.058594
1939.812500	41608.332031
1938.832031	41487.007813
1937.851563	41392.992188
1936.871094	41244.488281
1935.890625	41271.953125
1934.909180	41918.738281
1933.928711	41700.859375
1932.947266	41495.441406
1931.965820	41537.691406
1930.984375	41602.207031
1930.002930	41429.085938
1929.020508	41456.472656
1928.038086	41812.929688
1927.056641	41565.640625
1926.074219	41494.050781
1925.090820	41986.320313
1924.108398	41857.808594
1923.125000	41469.769531
1922.142578	41801.121094
1921.159180	41860.519531
1920.175781	42223.804688
1919.191406	41897.726563
1918.208008	42083.039063
1917.223633	41915.140625
1916.240234	41525.085938
1915.255859	41769.609375
1914.271484	41964.679688
1913.286133	42060.968750
1912.301758	42088.136719
1911.316406	41972.214844
1910.331055	41915.523438
1909.345703	42206.566406
1908.360352	42312.582031
1907.375000	42349.535156
1906.388672	41972.394531
1905.402344	41999.531250
1904.416016	42066.082031
1903.429688	41962.628906
1902.443359	41960.195313
1901.457031	41999.621094
1900.469727	42095.664063
1899.482422	42304.910156
1898.495117	42090.738281
1897.507813	42169.484375
1896.520508	42258.042969
1895.532227	42223.566406
1894.543945	42213.695313
1893.556641	42334.164063
1892.568359	42093.156250
1891.579102	42311.929688
1890.590820	41734.281250
1889.601563	42093.109375
1888.613281	42498.496094
1887.624023	42459.097656
1886.634766	42080.769531
1885.644531	42250.191406
1884.655273	42159.292969
1883.665039	42277.085938
1882.674805	42642.734375
1881.684570	42983.707031
1880.694336	42620.394531
1879.704102	42821.425781
1878.712891	42615.238281
1877.722656	42264.437500
1876.731445	42740.019531
1875.740234	42825.664063
1874.748047	42207.855469
1873.756836	42808.167969
1872.764648	42616.890625
1871.773438	42827.425781
1870.781250	42756.218750
1869.788086	42753.605469
1868.795898	42601.636719
1867.803711	42728.785156
1866.810547	43213.226563
1865.817383	43110.195313
1864.824219	43039.007813
1863.831055	43090.152344
1862.837891	43190.191406
1861.843750	42925.835938
1860.849609	43155.449219
1859.855469	42746.964844
1858.861328	42817.656250
1857.867188	43144.906250
1856.872070	43291.242188
1855.877930	43244.546875
1854.882813	42919.437500
1853.887695	43307.480469
1852.892578	43531.804688
1851.896484	43214.132813
1850.901367	43269.992188
1849.905273	43386.828125
1848.909180	42971.753906
1847.913086	43354.492188
1846.916992	43544.417969
1845.919922	43497.738281
1844.923828	44014.269531
1843.926758	43982.148438
1842.929688	43759.937500
1841.932617	43752.234375
1840.935547	43649.519531
1839.937500	43588.246094
1838.939453	44281.996094
1837.942383	44003.910156
1836.943359	44115.460938
1835.945313	44115.000000
1834.947266	44039.089844
1833.948242	44335.503906
1832.949219	44658.574219
1831.951172	44115.566406
1830.951172	44397.214844
1829.952148	44513.410156
1828.953125	44580.937500
1827.953125	44237.640625
1826.953125	44660.023438
1825.953125	44931.597656
1824.953125	45001.429688
1823.952148	44923.058594
1822.952148	44689.285156
1821.951172	44700.835938
1820.950195	44996.433594
1819.949219	44881.703125
1818.948242	44767.011719
1817.946289	44713.023438
1816.945313	44974.437500
1815.943359	45194.523438
1814.941406	44771.847656
1813.939453	45161.625000
1812.936523	45447.011719
1811.934570	45371.132813
1810.931641	45009.304688
1809.928711	45076.488281
1808.925781	45303.539063
1807.921875	45365.796875
1806.918945	45512.792969
1805.915039	45158.515625
1804.912109	45537.906250
1803.908203	45665.425781
1802.903320	45613.812500
1801.899414	46034.046875
1800.894531	45590.468750
1799.890625	45879.941406
1798.885742	45630.011719
1797.880859	45733.191406
1796.875000	46036.984375
1795.870117	45968.437500
1794.864258	45699.328125
1793.858398	45773.417969
1792.852539	46236.429688
1791.846680	46539.859375
1790.840820	46135.593750
1789.833984	46535.511719
1788.828125	46551.441406
1787.821289	46620.464844
1786.814453	46942.855469
1785.806641	46765.671875
1784.799805	46885.277344
1783.791992	46773.285156
1782.784180	46473.230469
1781.776367	46424.039063
1780.768555	47242.718750
1779.760742	47338.023438
1778.751953	47134.464844
1777.743164	47400.820313
1776.735352	47517.718750
1775.725586	47078.191406
1774.716797	47886.246094
1773.708008	47367.351563
1772.698242	47592.496094
1771.688477	47454.117188
1770.678711	47992.003906
1769.668945	47572.093750
1768.659180	47979.863281
1767.648438	48103.671875
1766.637695	48513.601563
1765.626953	48346.347656
1764.616211	47953.179688
1763.605469	48389.351563
1762.593750	48217.394531
1761.583008	48461.152344
1760.571289	48529.457031
1759.559570	48458.437500
1758.547852	49055.015625
1757.535156	48438.910156
1756.523438	49157.703125
1755.510742	49065.011719
1754.498047	49598.664063
1753.485352	49585.097656
1752.472656	49701.070313
1751.458984	49392.484375
1750.445313	50100.746094
1749.432617	50111.066406
1748.417969	50504.921875
1747.404297	50253.925781
1746.390625	50149.187500
1745.375977	49845.628906
1744.361328	50325.480469
1743.346680	50888.988281
1742.332031	50568.691406
1741.317383	51220.531250
1740.302734	51221.046875
1739.287109	51216.773438
1738.271484	51645.609375
1737.255859	52205.878906
1736.240234	51825.875000
1735.223633	52266.328125
1734.208008	52938.570313
1733.191406	52967.457031
1732.174805	53503.082031
1731.158203	53519.902344
1730.140625	53921.421875
1729.124023	54544.984375
1728.106445	54303.628906
1727.088867	55051.085938
1726.071289	55311.164063
1725.053711	55346.734375
1724.035156	56150.886719
1723.017578	56253.113281
1721.999023	56400.636719
1720.980469	56493.238281
1719.961914	56724.144531
1718.942383	57052.750000
1717.923828	57049.796875
1716.904297	57490.273438
1715.884766	57046.277344
1714.865234	57298.320313
1713.844727	57571.718750
1712.825195	57575.812500
1711.804688	57575.140625
1710.784180	57179.144531
1709.763672	57938.089844
1708.743164	57408.847656
1707.722656	57053.546875
1706.701172	57497.976563
1705.679688	57356.921875
1704.658203	57941.492188
1703.636719	57424.601563
1702.615234	56924.535156
1701.592773	57033.328125
1700.571289	56806.890625
1699.548828	56972.707031
1698.526367	56862.796875
1697.502930	56836.082031
1696.480469	56476.796875
1695.457031	56963.191406
1694.433594	56874.726563
1693.410156	56681.820313
1692.386719	56681.261719
1691.363281	57058.085938
1690.338867	56381.140625
1689.314453	56760.253906
1688.290039	56861.679688
1687.265625	56896.656250
1686.241211	56879.449219
1685.215820	56900.183594
1684.191406	56534.511719
1683.166016	57005.609375
1682.140625	57166.113281
1681.115234	57437.910156
1680.088867	57477.464844
1679.062500	57744.371094
1678.037109	57473.644531
1677.010742	57569.984375
1675.983398	58227.304688
1674.957031	57921.128906
1673.930664	58178.242188
1672.903320	57900.570313
1671.875977	57895.023438
1670.848633	58802.386719
1669.820313	58510.554688
1668.792969	58247.195313
1667.764648	59005.085938
1666.736328	58519.570313
1665.708008	59043.207031
1664.679688	59032.722656
1663.651367	59052.945313
1662.622070	58985.777344
1661.592773	59298.796875
1660.563477	59710.859375
1659.534180	59782.867188
1658.504883	60201.769531
1657.474609	60313.777344
1656.444336	59845.378906
1655.415039	60247.531250
1654.383789	60684.910156
1653.353516	60674.128906
1652.323242	60660.988281
1651.291992	61093.343750
1650.260742	61108.406250
1649.229492	61231.855469
1648.198242	62029.019531
1647.166016	62352.464844
1646.134766	62355.511719
1645.102539	61934.730469
1644.070313	62486.363281
1643.038086	62682.382813
1642.004883	63116.015625
1640.972656	63325.968750
1639.939453	63173.558594
1638.906250	63416.347656
1637.873047	63863.640625
1636.839844	63854.636719
1635.805664	63309.644531
1634.772461	63730.855469
1633.738281	64386.914063
1632.704102	64897.062500
1631.668945	64756.316406
1630.634766	65223.933594
1629.599609	65689.039063
1628.565430	65757.179688
1627.530273	66337.039063
1626.494141	66400.343750
1625.458984	66597.375000
1624.422852	67268.273438
1623.387695	68140.664063
1622.351563	68414.671875
1621.315430	69471.796875
1620.278320	69663.406250
1619.242188	71282.523438
1618.205078	72943.242188
1617.167969	74535.406250
1616.130859	76757.242188
1615.093750	78776.828125
1614.055664	81542.804688
1613.018555	83127.617188
1611.980469	84576.062500
1610.942383	85225.789063
1609.904297	85332.312500
1608.865234	85848.281250
1607.827148	84387.156250
1606.788086	82706.671875
1605.749023	81010.414063
1604.709961	78973.359375
1603.669922	76962.750000
1602.630859	75878.484375
1601.590820	74645.031250
1600.550781	73645.671875
1599.510742	71934.132813
1598.470703	71844.234375
1597.429688	71894.484375
1596.389648	71122.812500
1595.348633	70759.953125
1594.307617	70371.546875
1593.265625	70914.429688
1592.224609	70050.132813
1591.182617	69797.359375
1590.140625	70235.085938
1589.098633	70229.554688
1588.056641	70307.968750
1587.014648	69985.382813
1585.971680	70443.726563
1584.928711	70265.710938
1583.886719	70297.445313
1582.842773	70417.695313
1581.799805	71052.632813
1580.755859	70702.296875
1579.712891	71120.421875
1578.668945	71766.531250
1577.625000	71453.484375
1576.580078	72229.609375
1575.536133	71839.804688
1574.491211	72001.460938
1573.446289	72088.617188
1572.401367	73166.367188
1571.356445	73209.117188
1570.311523	73219.296875
1569.265625	73087.695313
1568.219727	72935.226563
1567.173828	73189.390625
1566.127930	72544.500000
1565.082031	72780.054688
1564.035156	72704.367188
1562.988281	71985.601563
1561.941406	71759.195313
1560.894531	72185.023438
1559.847656	71828.710938
1558.799805	71969.000000
1557.751953	72215.945313
1556.704102	71783.281250
1555.656250	71761.187500
1554.608398	72093.804688
1553.560547	72732.265625
1552.511719	71395.968750
1551.462891	72379.570313
1550.414063	71852.335938
1549.365234	71985.429688
1548.315430	71703.921875
1547.265625	71695.742188
1546.216797	71976.945313
1545.166992	72188.601563
1544.116211	72411.750000
1543.066406	72320.140625
1542.015625	72409.007813
1540.965820	72553.343750
1539.915039	72762.382813
1538.863281	72957.468750
1537.812500	72458.968750
1536.760742	72436.765625
1535.709961	72913.734375
1534.658203	72713.546875
1533.605469	72966.203125
1532.553711	72394.218750
1531.501953	72598.343750
1530.449219	72536.875000
1529.396484	71939.867188
1528.343750	72153.187500
1527.290039	72202.585938
1526.237305	72005.101563
1525.183594	71627.750000
1524.129883	71017.585938
1523.076172	70905.726563
1522.022461	71264.234375
1520.968750	71055.546875
1519.914063	71353.968750
1518.859375	71384.984375
1517.804688	71054.273438
1516.750000	71138.304688
1515.694336	71309.820313
1514.639648	70633.890625
1513.583984	70816.945313
1512.528320	70937.773438
1511.472656	71238.070313
1510.416016	71246.023438
1509.360352	70715.632813
1508.303711	71015.796875
1507.247070	71003.085938
1506.190430	70682.257813
1505.132813	70676.500000
1504.076172	70691.421875
1503.018555	70940.750000
1501.960938	70663.812500
1500.903320	70154.937500
1499.844727	70418.000000
1498.787109	70499.539063
1497.728516	70521.351563
1496.669922	70719.921875
1495.611328	70642.984375
1494.552734	70559.187500
1493.493164	70220.742188
1492.434570	70072.812500
1491.375000	70158.882813
1490.315430	69428.539063
1489.254883	69370.242188
1488.195313	69383.023438
1487.134766	69292.664063
1486.074219	69250.453125
1485.013672	68768.359375
1483.953125	69500.515625
1482.892578	68762.031250
1481.831055	68896.257813
1480.769531	68767.140625
1479.708008	68654.085938
1478.646484	69245.984375
1477.583984	69382.304688
1476.522461	68944.328125
1475.459961	68735.242188
1474.397461	69049.960938
1473.334961	68667.140625
1472.271484	68643.390625
1471.208984	68541.937500
1470.145508	68781.031250
1469.082031	68437.375000
1468.018555	69094.468750
1466.954102	69027.257813
1465.890625	68930.375000
1464.826172	68970.515625
1463.761719	68515.257813
1462.697266	68822.515625
1461.631836	68748.546875
1460.567383	68907.335938
1459.501953	69282.781250
1458.436523	68132.187500
1457.371094	69344.570313
1456.305664	69325.281250
1455.239258	68669.976563
1454.172852	68899.242188
1453.107422	68966.632813
1452.040039	69241.335938
1450.973633	68939.593750
1449.907227	69357.679688
1448.839844	68773.648438
1447.772461	69070.937500
1446.705078	68937.882813
1445.637695	69039.304688
1444.569336	69657.226563
1443.500977	69369.421875
1442.432617	69739.117188
1441.364258	69947.203125
1440.295898	70132.468750
1439.227539	70344.945313
1438.158203	70207.281250
1437.088867	70769.656250
1436.019531	71004.617188
1434.950195	71044.117188
1433.879883	71358.437500
1432.810547	71384.218750
1431.740234	71425.882813
1430.669922	71510.664063
1429.598633	71640.812500
1428.528320	72186.210938
1427.457031	72039.359375
1426.386719	71602.179688
1425.314453	71584.765625
1424.243164	71483.453125
1423.171875	71638.382813
1422.099609	71403.335938
1421.027344	70354.664063
1419.955078	71398.046875
1418.882813	70873.140625
1417.810547	70932.882813
1416.737305	70399.187500
1415.664063	71043.242188
1414.590820	70910.460938
1413.517578	71078.796875
1412.444336	70196.898438
1411.370117	70754.515625
1410.295898	71094.734375
1409.221680	70434.984375
1408.147461	70967.375000
1407.073242	70814.406250
1405.998047	70745.132813
1404.922852	70913.242188
1403.847656	70755.828125
1402.772461	70706.937500
1401.697266	71112.171875
1400.621094	70907.367188
1399.544922	71535.992188
1398.468750	71033.125000
1397.392578	71320.593750
1396.316406	71903.656250
1395.239258	71671.796875
1394.162109	72024.429688
1393.084961	72370.156250
1392.007813	72738.320313
1390.930664	72982.304688
1389.852539	73690.687500
1388.774414	73584.984375
1387.696289	74398.929688
1386.618164	74583.843750
1385.540039	74730.375000
1384.460938	75115.648438
1383.382813	75890.429688
1382.303711	76842.835938
1381.223633	76907.789063
1380.144531	76878.171875
1379.064453	77595.796875
1377.985352	77849.601563
1376.905273	77786.070313
1375.825195	77637.070313
1374.744141	77245.226563
1373.664063	77411.195313
1372.583008	76727.250000
1371.501953	76468.398438
1370.420898	76506.296875
1369.338867	75737.484375
1368.257813	74894.812500
1367.175781	75204.765625
1366.093750	74349.000000
1365.011719	73931.414063
1363.929688	74259.320313
1362.846680	73947.390625
1361.763672	73613.125000
1360.680664	72944.640625
1359.597656	73122.171875
1358.514648	73375.898438
1357.430664	72346.757813
1356.346680	72950.304688
1355.262695	72728.656250
1354.178711	72099.140625
1353.094727	72803.250000
1352.009766	72236.679688
1350.925781	71697.195313
1349.840820	71834.320313
1348.755859	71830.312500
1347.669922	72256.179688
1346.584961	71562.609375
1345.499023	72324.093750
1344.413086	72185.718750
1343.327148	72246.515625
1342.240234	72271.500000
1341.154297	71824.554688
1340.067383	71999.421875
1338.980469	71993.125000
1337.893555	72116.476563
1336.805664	72217.429688
1335.718750	72197.679688
1334.630859	72448.265625
1333.542969	72180.531250
1332.455078	72549.382813
1331.367188	71723.492188
1330.278320	72697.304688
1329.189453	72257.835938
1328.100586	72130.960938
1327.011719	72287.500000
1325.922852	72519.835938
1324.833008	72386.281250
1323.743164	72147.953125
1322.653320	72723.546875
1321.563477	72244.484375
1320.473633	73339.171875
1319.382813	72929.242188
1318.291992	73236.898438
1317.201172	73254.843750
1316.110352	73272.781250
1315.019531	73762.804688
1313.927734	73687.117188
1312.835938	73575.843750
1311.744141	74310.359375
1310.652344	74305.820313
1309.560547	74187.804688
1308.467773	74732.726563
1307.375000	74661.375000
1306.282227	74690.117188
1305.189453	75350.250000
1304.095703	75312.164063
1303.002930	75376.320313
1301.909180	75156.031250
1300.815430	75971.093750
1299.721680	75950.679688
1298.626953	76012.445313
1297.533203	75912.085938
1296.438477	76333.468750
1295.343750	75922.335938
1294.248047	77135.828125
1293.153320	76709.156250
1292.057617	76582.125000
1290.961914	76794.500000
1289.866211	77388.218750
1288.770508	77030.539063
1287.674805	77060.921875
1286.578125	77357.265625
1285.481445	77454.054688
1284.384766	77424.515625
1283.288086	77488.023438
1282.190430	77066.460938
1281.092773	76815.554688
1279.996094	76759.570313
1278.897461	76504.382813
1277.799805	76255.914063
1276.702148	76680.234375
1275.603516	76310.140625
1274.504883	76070.687500
1273.406250	76061.320313
1272.307617	76111.664063
1271.208008	75534.109375
1270.108398	75164.546875
1269.008789	75259.210938
1267.909180	75415.703125
1266.809570	74896.125000
1265.708984	74409.859375
1264.609375	75136.179688
1263.508789	74480.031250
1262.407227	73832.945313
1261.306641	73784.242188
1260.206055	74201.179688
1259.104492	73905.304688
1258.002930	73885.281250
1256.901367	73799.093750
1255.798828	73205.742188
1254.697266	73831.851563
1253.594727	72982.992188
1252.492188	72841.914063
1251.389648	73146.015625
1250.286133	72440.937500
1249.183594	72709.750000
1248.080078	72119.531250
1246.976563	72412.515625
1245.872070	72718.601563
1244.768555	72137.500000
1243.664063	71915.328125
1242.560547	72067.304688
1241.455078	72069.617188
1240.350586	72021.335938
1239.246094	71768.546875
1238.140625	71520.250000
1237.035156	72010.695313
1235.929688	72034.984375
1234.824219	71927.406250
1233.717773	71586.953125
1232.612305	71727.726563
1231.505859	72261.601563
1230.399414	71328.351563
1229.291992	71152.921875
1228.185547	71701.968750
1227.078125	71561.640625
1225.970703	71910.718750
1224.863281	71513.695313
1223.755859	70702.226563
1222.647461	71158.726563
1221.539063	70893.625000
1220.430664	70766.734375
1219.322266	71271.187500
1218.213867	71490.539063
1217.104492	71453.445313
1215.995117	71098.687500
1214.885742	70358.539063
1213.776367	70772.804688
1212.666992	71132.171875
1211.556641	70821.500000
1210.446289	70482.484375
1209.335938	71051.789063
1208.225586	70852.890625
1207.115234	70872.812500
1206.003906	70899.296875
1204.892578	70976.062500
1203.781250	71595.031250
1202.669922	71575.445313
1201.557617	71258.617188
1200.446289	71540.664063
1199.333984	71571.343750
1198.221680	71715.601563
1197.108398	71595.531250
1195.996094	71538.828125
1194.882813	71746.320313
1193.769531	72117.445313
1192.656250	71602.351563
1191.542969	71726.789063
1190.428711	71940.625000
1189.314453	72008.242188
1188.200195	72418.218750
1187.085938	72154.281250
1185.971680	73061.132813
1184.856445	72247.890625
1183.741211	72350.234375
1182.625977	72175.820313
1181.510742	73175.679688
1180.395508	72415.257813
1179.279297	72802.765625
1178.163086	72759.023438
1177.046875	72706.585938
1175.930664	72887.046875
1174.813477	72068.609375
1173.697266	72020.664063
1172.580078	71731.281250
1171.462891	72331.539063
1170.344727	71046.257813
1169.227539	71479.007813
1168.109375	71161.656250
1166.991211	70818.335938
1165.873047	71363.875000
1164.754883	70833.804688
1163.635742	70312.609375
1162.516602	71040.359375
1161.397461	70653.929688
1160.278320	70612.828125
1159.159180	70981.968750
1158.039063	70960.351563
1156.918945	70678.359375
1155.798828	71014.734375
1154.678711	70711.140625
1153.558594	70160.429688
1152.437500	71127.664063
1151.316406	70908.742188
1150.195313	70611.882813
1149.074219	70518.820313
1147.952148	70553.617188
1146.831055	70675.054688
1145.708984	70911.226563
1144.586914	70952.421875
1143.463867	71173.296875
1142.341797	71530.460938
1141.218750	71508.750000
1140.095703	71993.382813
1138.972656	71792.023438
1137.849609	71770.265625
1136.725586	72068.585938
1135.601563	71724.601563
1134.477539	71668.273438
1133.353516	71417.421875
1132.229492	71521.078125
1131.104492	71635.500000
1129.979492	71749.875000
1128.854492	71283.195313
1127.729492	70710.867188
1126.603516	70944.085938
1125.478516	70998.046875
1124.352539	70587.953125
1123.226563	70544.843750
1122.099609	70795.171875
1120.973633	70376.695313
1119.846680	70389.718750
1118.719727	70070.656250
1117.592773	70726.203125
1116.465820	69799.312500
1115.337891	70043.023438
1114.209961	69791.046875
1113.082031	69670.570313
1111.954102	69800.000000
1110.826172	69524.500000
1109.697266	69328.765625
1108.568359	69212.757813
1107.439453	69249.609375
1106.310547	68828.062500
1105.180664	69069.367188
1104.051758	69437.507813
1102.921875	69431.257813
1101.791992	68483.117188
1100.661133	69343.515625
1099.531250	69455.515625
1098.400391	69086.031250
1097.269531	68955.203125
1096.138672	69574.242188
1095.006836	69351.000000
1093.875977	68818.570313
1092.744141	68256.273438
1091.612305	68452.031250
1090.480469	67982.296875
1089.347656	68321.820313
1088.215820	67502.523438
1087.083008	67327.117188
1085.950195	67053.109375
1084.816406	67471.890625
1083.683594	67420.945313
1082.549805	67335.718750
1081.416016	67023.320313
1080.282227	67446.070313
1079.148438	67283.742188
1078.013672	67042.203125
1076.878906	67636.054688
1075.744141	67026.218750
1074.609375	67369.351563
1073.474609	66719.101563
1072.338867	66989.390625
1071.203125	66825.195313
1070.067383	67138.148438
1068.931641	67157.937500
1067.794922	67237.593750
1066.659180	66928.054688
1065.522461	66847.375000
1064.385742	66401.218750
1063.248047	66677.554688
1062.111328	66735.851563
1060.973633	66262.171875
1059.835938	66489.250000
1058.698242	66611.601563
1057.559570	66185.171875
1056.421875	66380.109375
1055.283203	66323.117188
1054.144531	65884.164063
1053.005859	66213.460938
1051.866211	66224.781250
1050.726563	66361.937500
1049.587891	66000.046875
1048.447266	66088.148438
1047.307617	66572.695313
1046.167969	66494.421875
1045.027344	66588.765625
1043.886719	66487.070313
1042.746094	66553.679688
1041.604492	66518.046875
1040.463867	66143.867188
1039.322266	65712.335938
1038.180664	65881.203125
1037.038086	65886.140625
1035.896484	66161.289063
1034.753906	65800.265625
1033.611328	65930.687500
1032.468750	66065.320313
1031.326172	65908.617188
1030.182617	65732.828125
1029.040039	66065.070313
1027.896484	65874.445313
1026.751953	66187.414063
1025.608398	65975.585938
1024.463867	65791.437500
1023.319336	66029.921875
1022.174805	66000.812500
1021.030273	66220.054688
1019.885742	65864.093750
1018.740234	65803.187500
1017.594727	65931.117188
1016.449219	66046.273438
1015.303711	65940.828125
1014.157227	65292.621094
1013.010742	65424.777344
1011.864258	65652.257813
1010.717773	65958.070313
1009.571289	65176.839844
1008.423828	65832.140625
1007.276367	65402.804688
1006.128906	65488.191406
1004.981445	65520.613281
1003.833008	65864.195313
1002.684570	65775.890625
1001.536133	66669.453125
1000.387695	66623.351563
999.239258	66757.046875
998.089844	66846.289063
996.941406	67210.367188
995.791992	67079.617188
994.641602	66593.812500
993.492188	67095.101563
992.341797	66569.320313
991.191406	66612.000000
990.041016	66614.531250
988.890625	66912.703125
987.739258	66254.312500
986.588867	66560.882813
985.437500	66206.718750
984.285156	66422.437500
983.133789	66401.773438
981.981445	66919.015625
980.829102	66413.187500
979.676758	66126.843750
978.524414	66361.335938
977.372070	66300.632813
976.218750	66006.031250
975.065430	66373.148438
973.912109	66525.250000
972.757813	66553.023438
971.604492	66544.976563
970.450195	66621.156250
969.295898	66215.226563
968.141602	66790.257813
966.986328	66731.656250
965.832031	66325.921875
964.676758	66641.867188
963.521484	66419.265625
962.365234	66413.343750
961.209961	66525.148438
960.053711	66559.132813
958.897461	66563.679688
957.741211	66280.351563
956.584961	66839.578125
955.427734	66535.289063
954.270508	66407.523438
953.113281	66598.953125
951.956055	66609.773438
950.797852	66349.812500
949.639648	66534.843750
948.481445	66369.414063
947.323242	66233.406250
946.165039	66237.976563
945.005859	65984.601563
943.847656	66165.320313
942.687500	65721.296875
941.528320	66122.054688
940.369141	66323.601563
939.208984	65506.855469
938.048828	66077.093750
936.888672	65692.117188
935.728516	65650.687500
934.567383	65288.953125
933.406250	65674.601563
932.245117	65708.523438
931.083984	65934.929688
929.922852	65573.398438
928.760742	65601.039063
927.598633	65946.523438
926.436523	65348.921875
925.274414	66068.515625
924.111328	65774.156250
922.948242	66361.750000
921.785156	66263.843750
920.622070	66197.296875
919.458984	66189.250000
918.294922	66273.078125
917.130859	66596.968750
915.966797	66190.156250
914.802734	66722.632813
913.637695	66825.070313
912.472656	67042.210938
911.307617	67311.406250
910.142578	67538.796875
908.977539	67649.335938
907.811523	67916.179688
906.645508	68210.023438
905.479492	67705.617188
904.313477	67938.960938
903.146484	67701.429688
901.980469	66689.203125
900.813477	67184.968750
899.646484	66531.304688
898.478516	66654.312500
897.311523	66221.585938
896.143555	66336.273438
894.975586	66471.718750
893.806641	66486.468750
892.638672	66114.390625
891.469727	66120.882813
890.300781	65855.031250
889.131836	65971.718750
887.962891	65928.343750
886.792969	65727.070313
885.623047	65955.890625
884.453125	66386.078125
883.283203	65703.062500
882.112305	66035.554688
880.942383	66507.000000
879.771484	66446.960938
878.600586	66640.093750
877.428711	66864.273438
876.257813	66737.812500
875.085938	67586.125000
873.914063	67216.976563
872.741211	67710.375000
871.569336	67444.960938
870.396484	67192.085938
869.223633	67482.156250
868.050781	66991.125000
866.877930	67604.218750
865.704102	67372.195313
864.530273	68334.898438
863.356445	68628.609375
862.182617	69127.109375
861.007813	68969.453125
859.833984	69016.679688
858.659180	69196.265625
857.484375	68916.656250
856.308594	69580.046875
855.133789	68469.375000
853.958008	68739.867188
852.782227	68125.750000
851.605469	68158.578125
850.429688	67447.695313
849.252930	68102.335938
848.076172	68120.687500
846.899414	68595.328125
845.722656	68667.250000
844.544922	68834.085938
843.367188	68577.828125
842.189453	69126.289063
841.011719	69338.312500
839.833008	70224.664063
838.655273	70454.960938
837.476563	71227.375000
836.296875	71735.664063
835.118164	72169.562500
833.938477	71649.296875
832.758789	71040.640625
831.579102	70108.828125
830.399414	69803.390625
829.219727	69283.937500
828.039063	68540.289063
826.858398	67321.468750
825.677734	67084.671875
824.496094	66387.101563
823.315430	66169.070313
822.133789	65870.914063
820.952148	65095.808594
819.769531	65188.574219
818.587891	65338.859375
817.405273	65102.718750
816.222656	64854.335938
815.040039	64423.203125
813.856445	64257.191406
812.673828	64333.562500
811.490234	64346.253906
810.305664	63654.812500
809.122070	63969.332031
807.938477	63518.300781
806.753906	63430.589844
805.569336	63642.402344
804.383789	63874.640625
803.199219	62964.625000
802.013672	62950.878906
800.828125	62707.554688
799.642578	63118.082031
798.457031	62733.425781
797.270508	63242.128906
796.083984	62789.992188
794.897461	62088.179688
793.710938	61951.742188
792.523438	61979.121094
791.336914	61732.222656
790.149414	61730.976563
788.961914	61574.234375
787.773438	60877.503906
786.585938	61271.140625
785.397461	61018.453125
784.208984	60700.433594
783.019531	60562.410156
781.831055	60653.332031
780.641602	60631.832031
779.452148	60759.476563
778.262695	60366.210938
777.072266	60606.171875
775.882813	60592.851563
774.692383	59952.816406
773.501953	60162.093750
772.310547	60010.093750
771.120117	60213.156250
769.928711	59569.574219
768.737305	60115.281250
767.544922	60106.128906
766.353516	60196.878906
765.161133	60287.593750
763.968750	60573.921875
762.776367	60122.511719
761.583984	60219.292969
760.390625	60454.542969
759.197266	61276.210938
758.003906	61537.640625
756.810547	61119.031250
755.616211	61506.578125
754.421875	61896.011719
753.227539	61687.128906
752.033203	61643.085938
750.838867	61418.050781
749.643555	61203.261719
748.448242	60748.644531
747.252930	60940.593750
746.057617	60740.230469
744.861328	59680.425781
743.665039	60047.175781
742.468750	59771.929688
741.272461	59500.843750
740.075195	59912.082031
738.878906	59192.421875
737.681641	59049.460938
736.484375	58823.343750
735.286133	58609.484375
734.087891	59128.003906
732.890625	58778.273438
731.691406	58921.425781
730.493164	58851.640625
729.294922	58820.394531
728.095703	58817.531250
726.896484	58427.644531
725.696289	58546.402344
724.497070	58004.792969
723.296875	58421.277344
722.096680	57616.667969
720.896484	58237.527344
719.696289	58244.875000
718.495117	58102.468750
717.293945	58285.859375
716.092773	57985.707031
714.891602	58191.292969
713.689453	57428.199219
712.487305	58303.003906
711.285156	58203.179688
710.083008	57672.917969
708.880859	58098.601563
707.677734	58150.378906
706.474609	58175.878906
705.271484	57928.734375
704.068359	57693.796875
702.864258	57925.269531
701.660156	57750.960938
700.456055	57679.636719
699.251953	57477.187500
698.046875	57879.980469
696.841797	57318.570313
695.636719	57551.851563
694.431641	57498.757813
693.226563	58135.058594
692.020508	57662.683594
690.814453	58026.687500
689.608398	58170.964844
688.402344	57912.343750
687.195313	57786.730469
685.988281	57763.847656
684.781250	57817.464844
683.574219	57704.007813
682.366211	57805.910156
681.158203	57569.761719
679.950195	57856.710938
678.742188	58433.156250
677.534180	58054.250000
676.325195	57900.652344
675.116211	58012.433594
673.907227	57852.867188
672.697266	58519.179688
671.488281	58303.320313
670.278320	58055.402344
669.068359	57988.312500
667.858398	58134.070313
666.647461	57446.687500
665.436523	57476.078125
664.225586	57063.984375
663.014648	57619.082031
661.802734	57008.523438
660.591797	57112.167969
659.379883	56764.605469
658.167969	57132.886719
656.955078	56669.191406
655.743164	56758.781250
654.530273	57004.625000
653.317383	56513.156250
652.103516	56692.851563
650.890625	56249.683594
649.676758	56385.304688
648.462891	56464.824219
647.249023	56296.136719
646.034180	56555.730469
644.819336	56245.035156
643.604492	56600.550781
642.389648	56593.945313
641.174805	56701.316406
639.958984	56434.792969
638.743164	56248.324219
637.527344	56335.703125
636.311523	55959.500000
635.094727	56538.328125
633.877930	56130.265625
632.661133	56105.765625
631.444336	56037.347656
630.226563	55865.148438
629.008789	56138.078125
627.791016	55768.375000
626.573242	56109.046875
625.355469	55755.437500
624.136719	55298.253906
622.917969	55756.457031
621.699219	55710.117188
620.480469	55733.550781
619.260742	55725.085938
618.041016	55736.546875
616.821289	55835.656250
615.601563	55592.148438
614.380859	55241.203125
613.160156	55189.027344
611.939453	55391.660156
610.718750	55301.656250
609.497070	55245.507813
608.276367	55587.273438
607.054688	55548.992188
605.832031	55361.566406
604.610352	55042.980469
603.387695	55479.937500
602.165039	55330.390625
600.942383	55363.718750
599.719727	55484.453125
598.496094	54975.429688
597.272461	54959.664063
596.048828	54943.898438
594.825195	54928.132813
593.600586	54912.351563
592.375977	54896.574219
591.151367	54880.796875
589.926758	54865.019531
588.701172	54849.226563
587.476563	54785.375000
586.250977	54709.648438
585.024414	55020.507813
583.798828	54911.070313
582.572266	54789.777344
581.345703	54672.492188
580.119141	54838.511719
578.892578	54673.722656
577.665039	54471.371094
576.437500	54556.156250
575.209961	54854.683594
573.982422	54751.351563
572.753906	54582.765625
571.525391	54786.152344
570.296875	54975.617188
569.068359	54561.859375
567.838867	55026.113281
566.610352	54984.132813
565.380859	54475.734375
564.150391	54323.210938
562.920898	54265.570313
561.690430	54257.335938
560.459961	54418.945313
559.229492	54997.117188
557.999023	54287.910156
556.767578	54265.847656
555.536133	54164.855469
554.304688	54426.941406
553.073242	54041.882813
551.840820	54256.554688
550.608398	54398.179688
549.375977	53889.125000
548.143555	54271.250000
546.910156	54272.855469
545.676758	54213.371094
544.443359	53844.605469
543.209961	53818.703125
541.975586	53790.843750
540.742188	53615.316406
539.507813	53945.785156
538.272461	54002.539063
537.038086	53947.105469
535.802734	53909.394531
534.567383	53608.101563
533.332031	53714.035156
532.096680	53652.789063
530.860352	53811.753906
529.624023	53461.554688
528.387695	53875.972656
527.151367	54435.640625
525.914063	53637.601563
524.676758	53411.429688
523.439453	53892.304688
522.202148	53389.324219
520.963867	53754.199219
519.725586	53671.445313
518.487305	53441.542969
517.249023	53602.152344
516.009766	53713.660156
514.771484	53799.625000
513.532227	53479.664063
512.291992	53498.980469
511.052734	53096.871094
509.812500	53533.667969
508.572266	53511.808594
507.332031	53392.007813
506.090820	53832.414063
504.850586	53528.515625
503.609375	53800.347656
502.368164	53574.867188
501.125977	53447.324219
499.884766	53765.968750
498.642578	53791.035156
497.400391	53982.347656
496.157227	53837.214844
494.915039	54053.863281
493.671875	53985.007813
492.428711	54094.039063
491.184570	53970.480469
489.941406	53710.199219
488.697266	54018.460938
487.453125	54213.332031
486.208984	54056.636719
484.963867	54063.992188
483.718750	54182.609375
482.473633	54256.289063
481.228516	53875.300781
479.982422	54425.015625
478.737305	53940.761719
477.491211	54291.339844
476.244141	54337.621094
474.998047	54592.464844
473.750977	54112.429688
472.503906	54090.507813
471.256836	54715.421875
470.009766	54880.386719
468.761719	54593.457031
467.513672	55106.921875
466.265625	54977.746094
465.017578	55424.761719
463.768555	55599.152344
462.519531	56234.609375
461.270508	56243.425781
460.021484	56337.812500
458.771484	56636.343750
457.521484	57216.671875
456.271484	56785.972656
455.021484	57488.488281
453.770508	57446.519531
452.519531	57797.000000
451.268555	57321.828125
450.017578	58309.179688
448.765625	58925.292969
447.514648	58892.785156
446.262695	59415.386719
445.009766	60137.667969
443.757813	60149.562500
442.504883	60867.542969
441.251953	60278.062500
439.999023	59948.636719
438.745117	59078.433594
437.492188	58297.718750
436.238281	57947.531250
434.983398	56981.308594
433.729492	57030.570313
432.474609	56551.039063
431.219727	56147.214844
429.964844	56101.722656
428.709961	55605.210938
427.454102	55567.578125
426.198242	55028.781250
424.942383	55155.714844
423.685547	55104.636719
422.429688	55132.871094
421.172852	55095.351563
419.916016	54951.511719
418.658203	54662.765625
417.401367	55031.167969
416.143555	54715.457031
414.885742	54836.441406
413.626953	54860.804688
412.369141	54591.644531
411.110352	54990.585938
409.851563	54455.121094
408.591797	54780.597656
407.333008	54864.750000
406.073242	54825.406250
404.813477	54598.976563
403.553711	54627.183594
402.292969	54140.582031
401.032227	54309.585938
