#Wave		#Intensity
2001.221680	39369.820313
2000.251953	39562.824219
1999.282227	39553.410156
1998.312500	39308.472656
1997.342773	39599.726563
1996.372070	39432.507813
1995.402344	39733.656250
1994.431641	39826.875000
1993.460938	39727.292969
1992.490234	39655.277344
1991.518555	39225.417969
1990.547852	39463.777344
1989.576172	39844.648438
1988.604492	40067.804688
1987.632813	39758.207031
1986.661133	39833.773438
1985.689453	39226.828125
1984.716797	39779.867188
1983.745117	39268.101563
1982.772461	39416.160156
1981.799805	39644.105469
1980.827148	39502.296875
1979.853516	39974.882813
1978.880859	39778.132813
1977.907227	40322.902344
1976.933594	39786.695313
1975.959961	39859.601563
1974.986328	39870.101563
1974.011719	39785.796875
1973.038086	40185.410156
1972.063477	39824.261719
1971.088867	40111.519531
1970.114258	39962.410156
1969.138672	39606.468750
1968.164063	39507.335938
1967.188477	40128.328125
1966.212891	39620.574219
1965.237305	39997.226563
1964.261719	40052.492188
1963.286133	40351.750000
1962.309570	40245.113281
1961.333984	40016.546875
1960.357422	39798.015625
1959.380859	40340.941406
1958.404297	40381.152344
1957.426758	39657.742188
1956.450195	40372.000000
1955.472656	40083.968750
1954.495117	40263.406250
1953.517578	40601.855469
1952.540039	40579.843750
1951.561523	40120.523438
1950.583008	40292.371094
1949.605469	40101.515625
1948.626953	40062.214844
1947.647461	40663.527344
1946.668945	40221.968750
1945.690430	40743.613281
1944.710938	40778.671875
1943.731445	40798.828125
1942.751953	40496.468750
1941.772461	40613.398438
1940.791992	40489.730469
1939.812500	40795.058594
1938.832031	40621.816406
1937.851563	40577.523438
1936.871094	40696.808594
1935.890625	40830.910156
1934.909180	40568.597656
1933.928711	40806.703125
1932.947266	40804.507813
1931.965820	41000.394531
1930.984375	40691.191406
1930.002930	40778.121094
1929.020508	40850.167969
1928.038086	40796.000000
1927.056641	40694.843750
1926.074219	40573.937500
1925.090820	40631.125000
1924.108398	40950.382813
1923.125000	41009.953125
1922.142578	40829.750000
1921.159180	40827.535156
1920.175781	40958.746094
1919.191406	41119.554688
1918.208008	41132.105469
1917.223633	40924.863281
1916.240234	41339.902344
1915.255859	40833.988281
1914.271484	40891.003906
1913.286133	41034.371094
1912.301758	41560.125000
1911.316406	41249.406250
1910.331055	41385.226563
1909.345703	41303.988281
1908.360352	41003.335938
1907.375000	41279.640625
1906.388672	41555.851563
1905.402344	41358.808594
1904.416016	41388.511719
1903.429688	41563.546875
1902.443359	41297.636719
1901.457031	41157.414063
1900.469727	41221.593750
1899.482422	41128.203125
1898.495117	41475.414063
1897.507813	41529.656250
1896.520508	41512.527344
1895.532227	41428.984375
1894.543945	41119.183594
1893.556641	41648.062500
1892.568359	41825.156250
1891.579102	41520.363281
1890.590820	41498.328125
1889.601563	42041.503906
1888.613281	41842.480469
1887.624023	41950.593750
1886.634766	41714.808594
1885.644531	41957.964844
1884.655273	41597.039063
1883.665039	41616.738281
1882.674805	41992.316406
1881.684570	41933.410156
1880.694336	41648.796875
1879.704102	42122.289063
1878.712891	42117.343750
1877.722656	41813.222656
1876.731445	42053.511719
1875.740234	42247.140625
1874.748047	42497.066406
1873.756836	42237.199219
1872.764648	41889.214844
1871.773438	42129.269531
1870.781250	42016.550781
1869.788086	42303.023438
1868.795898	42283.347656
1867.803711	42696.964844
1866.810547	41940.523438
1865.817383	42914.429688
1864.824219	42395.539063
1863.831055	42564.214844
1862.837891	42520.042969
1861.843750	42285.152344
1860.849609	42864.500000
1859.855469	42644.292969
1858.861328	43194.042969
1857.867188	42683.058594
1856.872070	42609.589844
1855.877930	42614.308594
1854.882813	43056.207031
1853.887695	42809.328125
1852.892578	43294.980469
1851.896484	43507.062500
1850.901367	43152.839844
1849.905273	43062.281250
1848.909180	43125.460938
1847.913086	43376.445313
1846.916992	43461.492188
1845.919922	42956.394531
1844.923828	43409.632813
1843.926758	43138.730469
1842.929688	43223.753906
1841.932617	42848.195313
1840.935547	43218.285156
1839.937500	43607.734375
1838.939453	43246.914063
1837.942383	43704.398438
1836.943359	43952.343750
1835.945313	43691.449219
1834.947266	43622.914063
1833.948242	44101.902344
1832.949219	43498.074219
1831.951172	43972.050781
1830.951172	43691.917969
1829.952148	44559.609375
1828.953125	44184.652344
1827.953125	43960.535156
1826.953125	44030.562500
1825.953125	44212.343750
1824.953125	44019.914063
1823.952148	44177.335938
1822.952148	44419.707031
1821.951172	43974.804688
1820.950195	44406.484375
1819.949219	43935.039063
1818.948242	44131.160156
1817.946289	44419.417969
1816.945313	44343.660156
1815.943359	44112.687500
1814.941406	44507.500000
1813.939453	44560.277344
1812.936523	43980.277344
1811.934570	44210.070313
1810.931641	44817.847656
1809.928711	44543.410156
1808.925781	45199.363281
1807.921875	44525.285156
1806.918945	44422.988281
1805.915039	44601.601563
1804.912109	44702.679688
1803.908203	44764.992188
1802.903320	45204.816406
1801.899414	45315.410156
1800.894531	45384.832031
1799.890625	45105.921875
1798.885742	45059.273438
1797.880859	45288.289063
1796.875000	45589.742188
1795.870117	44924.250000
1794.864258	45201.492188
1793.858398	45551.125000
1792.852539	44856.996094
1791.846680	45211.390625
1790.840820	45473.890625
1789.833984	45473.113281
1788.828125	45380.593750
1787.821289	45087.769531
1786.814453	45808.621094
1785.806641	45870.507813
1784.799805	46019.218750
1783.791992	46254.710938
1782.784180	46109.085938
1781.776367	46062.367188
1780.768555	46244.683594
1779.760742	46070.210938
1778.751953	46129.554688
1777.743164	45972.023438
1776.735352	46342.121094
1775.725586	46288.175781
1774.716797	46537.675781
1773.708008	46182.746094
1772.698242	46581.425781
1771.688477	46729.644531
1770.678711	46478.339844
1769.668945	46600.058594
1768.659180	47157.144531
1767.648438	46530.683594
1766.637695	46957.722656
1765.626953	46841.234375
1764.616211	47474.800781
1763.605469	47670.710938
1762.593750	47551.746094
1761.583008	47961.402344
1760.571289	47705.500000
1759.559570	47598.597656
1758.547852	48228.949219
1757.535156	48323.664063
1756.523438	48331.925781
1755.510742	48517.792969
1754.498047	48444.425781
1753.485352	48212.730469
1752.472656	48866.281250
1751.458984	48533.859375
1750.445313	48731.503906
1749.432617	49070.531250
1748.417969	48735.847656
1747.404297	49319.214844
1746.390625	48960.636719
1745.375977	48688.433594
1744.361328	49609.250000
1743.346680	49423.246094
1742.332031	49711.433594
1741.317383	49458.433594
1740.302734	49976.308594
1739.287109	50012.937500
1738.271484	50511.382813
1737.255859	50662.742188
1736.240234	51127.402344
1735.223633	51730.609375
1734.208008	51188.218750
1733.191406	51499.523438
1732.174805	52217.074219
1731.158203	52537.644531
1730.140625	52100.625000
1729.124023	52839.183594
1728.106445	53068.695313
1727.088867	53400.820313
1726.071289	54021.750000
1725.053711	53842.679688
1724.035156	54153.000000
1723.017578	54050.339844
1721.999023	54539.468750
1720.980469	54806.550781
1719.961914	55366.925781
1718.942383	55190.183594
1717.923828	55967.269531
1716.904297	55692.730469
1715.884766	55680.484375
1714.865234	56299.777344
1713.844727	55841.851563
1712.825195	55758.105469
1711.804688	56024.527344
1710.784180	56028.890625
1709.763672	55716.570313
1708.743164	55640.042969
1707.722656	55892.007813
1706.701172	55163.406250
1705.679688	55572.402344
1704.658203	55234.257813
1703.636719	55576.492188
1702.615234	55419.199219
1701.592773	55157.343750
1700.571289	55252.164063
1699.548828	54736.105469
1698.526367	54612.332031
1697.502930	55156.257813
1696.480469	55110.847656
1695.457031	54082.136719
1694.433594	54476.250000
1693.410156	54984.191406
1692.386719	54554.261719
1691.363281	54399.804688
1690.338867	54515.929688
1689.314453	54707.933594
1688.290039	54541.664063
1687.265625	54657.695313
1686.241211	54640.886719
1685.215820	54443.890625
1684.191406	54884.628906
1683.166016	54780.085938
1682.140625	54893.593750
1681.115234	54779.605469
1680.088867	54753.304688
1679.062500	55065.691406
1678.037109	55044.078125
1677.010742	55029.574219
1675.983398	55230.484375
1674.957031	55625.394531
1673.930664	55655.750000
1672.903320	55511.015625
1671.875977	55863.078125
1670.848633	56018.714844
1669.820313	56079.707031
1668.792969	55998.824219
1667.764648	55603.582031
1666.736328	56179.828125
1665.708008	56460.496094
1664.679688	56174.054688
1663.651367	56756.968750
1662.622070	56451.675781
1661.592773	56994.187500
1660.563477	56462.316406
1659.534180	56721.375000
1658.504883	56834.023438
1657.474609	57130.671875
1656.444336	57045.031250
1655.415039	57313.230469
1654.383789	57291.253906
1653.353516	57519.222656
1652.323242	57839.054688
1651.291992	57689.707031
1650.260742	58183.781250
1649.229492	58543.375000
1648.198242	58544.746094
1647.166016	58784.015625
1646.134766	58175.398438
1645.102539	58440.542969
1644.070313	58898.628906
1643.038086	58916.402344
1642.004883	59296.578125
1640.972656	58829.574219
1639.939453	59040.246094
1638.906250	59314.347656
1637.873047	59254.414063
1636.839844	59295.605469
1635.805664	59893.917969
1634.772461	60014.886719
1633.738281	60152.261719
1632.704102	60587.976563
1631.668945	60946.015625
1630.634766	61015.031250
1629.599609	61309.453125
1628.565430	61343.156250
1627.530273	61623.328125
1626.494141	62027.789063
1625.458984	62633.917969
1624.422852	63077.933594
1623.387695	63629.699219
1622.351563	64167.195313
1621.315430	65415.019531
1620.278320	66195.828125
1619.242188	66999.804688
1618.205078	69877.671875
1617.167969	72206.179688
1616.130859	73624.820313
1615.093750	75642.625000
1614.055664	78203.054688
1613.018555	80205.265625
1611.980469	81698.718750
1610.942383	82126.585938
1609.904297	82409.187500
1608.865234	82228.375000
1607.827148	80295.304688
1606.788086	78762.914063
1605.749023	76849.851563
1604.709961	73906.289063
1603.669922	72630.671875
1602.630859	70179.765625
1601.590820	69578.328125
1600.550781	67822.812500
1599.510742	67359.835938
1598.470703	66563.007813
1597.429688	65817.843750
1596.389648	64823.093750
1595.348633	64741.503906
1594.307617	63864.003906
1593.265625	64207.347656
1592.224609	63701.242188
1591.182617	63624.566406
1590.140625	63086.089844
1589.098633	63457.296875
1588.056641	62716.183594
1587.014648	62311.027344
1585.971680	62491.039063
1584.928711	62407.656250
1583.886719	62245.078125
1582.842773	62042.953125
1581.799805	62553.617188
1580.755859	62139.589844
1579.712891	62158.773438
1578.668945	62299.000000
1577.625000	62385.640625
1576.580078	63351.878906
1575.536133	62707.726563
1574.491211	63124.566406
1573.446289	63748.250000
1572.401367	63783.382813
1571.356445	63460.453125
1570.311523	63874.523438
1569.265625	64021.167969
1568.219727	64395.484375
1567.173828	63326.875000
1566.127930	64014.769531
1565.082031	63673.546875
1564.035156	63420.683594
1562.988281	63337.390625
1561.941406	63119.492188
1560.894531	62690.472656
1559.847656	62846.351563
1558.799805	62322.406250
1557.751953	62977.000000
1556.704102	63436.546875
1555.656250	62395.687500
1554.608398	62477.277344
1553.560547	62830.035156
1552.511719	62999.578125
1551.462891	63138.937500
1550.414063	62854.289063
1549.365234	63287.785156
1548.315430	63072.683594
1547.265625	63068.359375
1546.216797	63795.589844
1545.166992	63353.667969
1544.116211	63141.011719
1543.066406	63196.828125
1542.015625	63352.097656
1540.965820	63227.437500
1539.915039	63454.332031
1538.863281	63325.070313
1537.812500	62726.570313
1536.760742	63253.894531
1535.709961	62734.187500
1534.658203	62903.187500
1533.605469	62875.773438
1532.553711	62294.042969
1531.501953	62102.781250
1530.449219	62320.250000
1529.396484	61877.429688
1528.343750	61573.246094
1527.290039	61319.933594
1526.237305	61396.640625
1525.183594	61124.992188
1524.129883	61644.519531
1523.076172	60960.156250
1522.022461	61053.000000
1520.968750	60779.289063
1519.914063	60683.140625
1518.859375	60856.628906
1517.804688	60758.191406
1516.750000	60758.835938
1515.694336	60982.875000
1514.639648	61105.515625
1513.583984	61538.910156
1512.528320	60450.636719
1511.472656	60389.187500
1510.416016	61593.308594
1509.360352	61531.667969
1508.303711	61361.937500
1507.247070	61208.367188
1506.190430	61431.941406
1505.132813	61510.601563
1504.076172	61324.898438
1503.018555	61293.234375
1501.960938	61394.843750
1500.903320	61413.710938
1499.844727	61388.933594
1498.787109	61442.238281
1497.728516	60930.687500
1496.669922	60605.269531
1495.611328	61177.402344
1494.552734	60774.027344
1493.493164	60692.011719
1492.434570	60981.652344
1491.375000	60342.277344
1490.315430	60994.195313
1489.254883	60721.890625
1488.195313	61027.351563
1487.134766	60530.519531
1486.074219	60292.808594
1485.013672	60687.531250
1483.953125	61040.878906
1482.892578	60883.355469
1481.831055	60677.800781
1480.769531	60850.078125
1479.708008	61008.562500
1478.646484	61450.777344
1477.583984	61190.339844
1476.522461	61172.503906
1475.459961	60692.605469
1474.397461	61347.246094
1473.334961	61439.140625
1472.271484	61517.285156
1471.208984	61737.113281
1470.145508	61472.363281
1469.082031	61582.437500
1468.018555	61297.242188
1466.954102	62156.507813
1465.890625	61912.414063
1464.826172	62606.855469
1463.761719	62330.800781
1462.697266	62319.617188
1461.631836	62447.640625
1460.567383	62507.164063
1459.501953	63134.707031
1458.436523	63130.218750
1457.371094	62986.617188
1456.305664	63123.515625
1455.239258	62993.640625
1454.172852	62847.855469
1453.107422	63201.183594
1452.040039	63789.062500
1450.973633	63588.531250
1449.907227	62980.378906
1448.839844	63734.207031
1447.772461	63699.992188
1446.705078	64111.960938
1445.637695	64007.128906
1444.569336	64434.816406
1443.500977	64835.042969
1442.432617	64404.843750
1441.364258	64727.597656
1440.295898	65152.562500
1439.227539	65286.363281
1438.158203	65495.125000
1437.088867	66037.890625
1436.019531	65907.867188
1434.950195	66966.078125
1433.879883	66631.492188
1432.810547	67505.234375
1431.740234	67640.695313
1430.669922	67460.539063
1429.598633	68049.921875
1428.528320	67974.140625
1427.457031	67850.734375
1426.386719	68260.500000
1425.314453	68334.421875
1424.243164	68406.039063
1423.171875	68430.015625
1422.099609	68429.046875
1421.027344	68301.140625
1419.955078	68182.351563
1418.882813	67633.101563
1417.810547	67940.351563
1416.737305	68399.234375
1415.664063	68291.820313
1414.590820	67672.750000
1413.517578	67649.250000
1412.444336	67535.234375
1411.370117	67624.906250
1410.295898	67424.953125
1409.221680	67453.539063
1408.147461	67244.632813
1407.073242	67264.187500
1405.998047	67276.945313
1404.922852	67624.250000
1403.847656	67232.390625
1402.772461	67667.695313
1401.697266	67538.039063
1400.621094	67889.546875
1399.544922	67698.906250
1398.468750	68413.804688
1397.392578	68708.523438
1396.316406	68869.953125
1395.239258	69207.359375
1394.162109	69366.382813
1393.084961	70235.984375
1392.007813	70870.687500
1390.930664	71405.929688
1389.852539	71859.804688
1388.774414	72608.835938
1387.696289	72992.453125
1386.618164	73098.742188
1385.540039	73452.835938
1384.460938	73980.257813
1383.382813	74228.203125
1382.303711	73926.578125
1381.223633	74142.906250
1380.144531	74548.257813
1379.064453	74739.632813
1377.985352	75336.000000
1376.905273	74654.195313
1375.825195	74730.718750
1374.744141	74206.703125
1373.664063	73768.320313
1372.583008	73950.617188
1371.501953	72954.960938
1370.420898	72921.578125
1369.338867	73258.968750
1368.257813	72706.554688
1367.175781	72644.031250
1366.093750	72401.851563
1365.011719	72016.046875
1363.929688	72391.445313
1362.846680	71821.718750
1361.763672	72156.617188
1360.680664	72015.695313
1359.597656	72065.523438
1358.514648	72119.812500
1357.430664	71200.781250
1356.346680	71607.226563
1355.262695	71193.015625
1354.178711	70536.882813
1353.094727	69405.898438
1352.009766	69545.734375
1350.925781	69571.257813
1349.840820	68846.453125
1348.755859	68863.132813
1347.669922	68425.296875
1346.584961	68262.960938
1345.499023	67747.046875
1344.413086	67857.890625
1343.327148	68002.250000
1342.240234	67455.335938
1341.154297	67814.421875
1340.067383	67931.867188
1338.980469	67772.039063
1337.893555	67538.500000
1336.805664	67282.695313
1335.718750	67753.195313
1334.630859	67370.093750
1333.542969	67672.875000
1332.455078	68359.679688
1331.367188	67802.492188
1330.278320	67667.453125
1329.189453	68266.820313
1328.100586	68861.507813
1327.011719	68436.273438
1325.922852	68937.007813
1324.833008	68853.171875
1323.743164	69331.343750
1322.653320	70181.703125
1321.563477	69941.625000
1320.473633	70459.460938
1319.382813	71280.171875
1318.291992	71588.125000
1317.201172	72263.531250
1316.110352	73339.601563
1315.019531	73379.781250
1313.927734	74911.671875
1312.835938	74608.734375
1311.744141	74539.601563
1310.652344	73607.085938
1309.560547	74396.945313
1308.467773	74085.406250
1307.375000	73533.781250
1306.282227	72495.375000
1305.189453	72050.953125
1304.095703	71644.468750
1303.002930	71829.304688
1301.909180	71091.921875
1300.815430	70839.117188
1299.721680	70568.632813
1298.626953	70626.921875
1297.533203	71289.148438
1296.438477	70634.656250
1295.343750	70242.312500
1294.248047	71061.804688
1293.153320	71368.453125
1292.057617	71488.632813
1290.961914	71659.781250
1289.866211	71500.445313
1288.770508	72276.828125
1287.674805	71443.515625
1286.578125	72250.648438
1285.481445	71504.062500
1284.384766	71750.335938
1283.288086	71814.867188
1282.190430	71843.937500
1281.092773	71195.390625
1279.996094	71067.359375
1278.897461	70647.179688
1277.799805	70714.054688
1276.702148	70809.671875
1275.603516	70427.367188
1274.504883	69580.679688
1273.406250	69408.835938
1272.307617	68825.765625
1271.208008	69297.453125
1270.108398	68948.906250
1269.008789	68436.953125
1267.909180	68267.664063
1266.809570	68456.320313
1265.708984	67878.460938
1264.609375	67742.476563
1263.508789	67942.164063
1262.407227	66967.328125
1261.306641	67482.703125
1260.206055	67377.781250
1259.104492	66950.757813
1258.002930	66702.570313
1256.901367	66690.476563
1255.798828	66951.820313
1254.697266	66655.250000
1253.594727	66131.742188
1252.492188	66157.210938
1251.389648	66079.101563
1250.286133	66245.562500
1249.183594	65339.210938
1248.080078	65646.695313
1246.976563	65742.679688
1245.872070	65832.023438
1244.768555	65835.484375
1243.664063	66424.343750
1242.560547	66058.023438
1241.455078	66013.031250
1240.350586	66100.031250
1239.246094	65694.375000
1238.140625	65977.078125
1237.035156	66266.281250
1235.929688	65759.695313
1234.824219	66167.500000
1233.717773	65801.726563
1232.612305	66051.195313
1231.505859	65670.203125
1230.399414	65530.906250
1229.291992	65376.289063
1228.185547	65597.101563
1227.078125	65047.457031
1225.970703	65053.195313
1224.863281	64424.855469
1223.755859	64702.707031
1222.647461	64618.574219
1221.539063	64626.562500
1220.430664	64384.613281
1219.322266	64664.449219
1218.213867	64433.535156
1217.104492	64180.789063
1215.995117	64269.898438
1214.885742	64748.867188
1213.776367	63734.066406
1212.666992	64530.449219
1211.556641	64041.464844
1210.446289	64524.492188
1209.335938	64543.398438
1208.225586	64606.054688
1207.115234	65009.953125
1206.003906	64928.136719
1204.892578	64782.929688
1203.781250	65601.992188
1202.669922	65388.941406
1201.557617	65512.558594
1200.446289	65478.785156
1199.333984	66072.078125
1198.221680	66324.375000
1197.108398	65886.414063
1195.996094	66129.906250
1194.882813	67443.117188
1193.769531	66703.945313
1192.656250	67575.703125
1191.542969	66941.515625
1190.428711	67295.851563
1189.314453	67052.382813
1188.200195	66695.593750
1187.085938	66707.437500
1185.971680	66377.000000
1184.856445	66155.664063
1183.741211	65951.835938
1182.625977	65508.410156
1181.510742	65631.546875
1180.395508	66164.117188
1179.279297	65474.800781
1178.163086	65340.945313
1177.046875	65868.914063
1175.930664	65819.914063
1174.813477	65392.285156
1173.697266	65217.191406
1172.580078	65411.964844
1171.462891	65478.343750
1170.344727	65125.011719
1169.227539	64780.500000
1168.109375	64946.937500
1166.991211	65378.464844
1165.873047	65042.777344
1164.754883	64772.390625
1163.635742	64454.308594
1162.516602	64853.019531
1161.397461	64997.535156
1160.278320	64412.550781
1159.159180	64531.039063
1158.039063	64111.277344
1156.918945	64500.996094
1155.798828	64359.070313
1154.678711	64357.304688
1153.558594	64355.542969
1152.437500	64353.777344
1151.316406	64352.011719
1150.195313	64350.246094
1149.074219	64511.871094
1147.952148	64809.925781
1146.831055	64804.597656
1145.708984	65132.808594
1144.586914	65554.007813
1143.463867	65862.468750
1142.341797	66027.953125
1141.218750	66472.554688
1140.095703	66559.960938
1138.972656	66818.242188
1137.849609	67182.421875
1136.725586	67550.781250
1135.601563	67423.851563
1134.477539	67478.562500
1133.353516	67613.218750
1132.229492	67622.484375
1131.104492	67320.601563
1129.979492	66923.781250
1128.854492	67142.664063
1127.729492	67344.195313
1126.603516	67422.578125
1125.478516	66419.414063
1124.352539	66679.226563
1123.226563	67297.164063
1122.099609	66695.859375
1120.973633	66664.257813
1119.846680	66714.625000
1118.719727	66314.289063
1117.592773	66211.625000
1116.465820	66115.460938
1115.337891	65793.031250
1114.209961	66102.070313
1113.082031	65475.984375
1111.954102	65074.144531
1110.826172	65238.843750
1109.697266	65552.054688
1108.568359	65268.812500
1107.439453	64794.113281
1106.310547	64833.914063
1105.180664	65734.351563
1104.051758	65556.679688
1102.921875	65153.242188
1101.791992	65418.734375
1100.661133	65679.828125
1099.531250	65919.320313
1098.400391	65462.367188
1097.269531	65278.480469
1096.138672	65365.371094
1095.006836	65072.011719
1093.875977	65158.898438
1092.744141	65344.527344
1091.612305	64855.957031
1090.480469	64947.121094
1089.347656	64454.503906
1088.215820	64597.203125
1087.083008	64639.011719
1085.950195	64567.121094
1084.816406	63736.085938
1083.683594	64116.796875
1082.549805	64486.652344
1081.416016	64635.597656
1080.282227	64448.039063
1079.148438	64759.769531
1078.013672	64364.457031
1076.878906	64524.015625
1075.744141	64355.875000
1074.609375	64301.269531
1073.474609	64394.382813
1072.338867	63862.507813
1071.203125	64210.304688
1070.067383	64106.546875
1068.931641	64668.070313
1067.794922	64540.734375
1066.659180	64697.832031
1065.522461	64891.214844
1064.385742	64449.687500
1063.248047	63944.207031
1062.111328	64176.070313
1060.973633	64456.984375
1059.835938	64381.093750
1058.698242	64219.804688
1057.559570	64464.250000
1056.421875	64403.332031
1055.283203	64634.839844
1054.144531	64061.757813
1053.005859	64320.976563
1051.866211	64289.984375
1050.726563	64487.207031
1049.587891	65650.335938
1048.447266	64388.937500
1047.307617	64903.636719
1046.167969	64687.132813
1045.027344	64720.015625
1043.886719	65051.144531
1042.746094	64668.582031
1041.604492	64667.367188
1040.463867	65279.378906
1039.322266	65148.183594
1038.180664	64878.679688
1037.038086	64392.207031
1035.896484	64288.898438
1034.753906	64460.046875
1033.611328	64007.941406
1032.468750	64489.550781
1031.326172	64641.425781
1030.182617	64198.031250
1029.040039	64723.964844
1027.896484	64905.453125
1026.751953	65035.882813
1025.608398	63872.625000
1024.463867	64387.601563
1023.319336	64193.164063
1022.174805	64391.554688
1021.030273	64511.332031
1019.885742	64293.625000
1018.740234	64443.074219
1017.594727	64694.300781
1016.449219	64360.011719
1015.303711	64541.167969
1014.157227	64802.828125
1013.010742	64716.726563
1011.864258	64287.289063
1010.717773	64271.234375
1009.571289	64225.523438
1008.423828	64614.089844
1007.276367	64500.550781
1006.128906	64367.992188
1004.981445	64510.714844
1003.833008	65133.898438
1002.684570	64501.812500
1001.536133	64619.031250
1000.387695	65404.746094
999.239258	65536.554688
998.089844	65213.621094
996.941406	65544.171875
995.791992	65018.394531
994.641602	65036.027344
993.492188	65019.839844
992.341797	65113.527344
991.191406	64964.234375
990.041016	65081.125000
988.890625	65316.222656
987.739258	65323.207031
986.588867	65431.515625
985.437500	65514.449219
984.285156	65515.054688
983.133789	65448.144531
981.981445	66087.906250
980.829102	65430.382813
979.676758	65156.867188
978.524414	65094.273438
977.372070	65373.175781
976.218750	65866.937500
975.065430	65587.210938
973.912109	65185.394531
972.757813	65415.617188
971.604492	65441.476563
970.450195	65766.312500
969.295898	65524.738281
968.141602	65739.984375
966.986328	66155.062500
965.832031	66067.132813
964.676758	66320.015625
963.521484	65962.875000
962.365234	66732.968750
961.209961	66626.062500
960.053711	66031.523438
958.897461	66509.039063
957.741211	66446.351563
956.584961	66913.109375
955.427734	67049.914063
954.270508	67117.359375
953.113281	66827.820313
951.956055	66777.718750
950.797852	66492.546875
949.639648	67086.765625
948.481445	66400.882813
947.323242	66283.757813
946.165039	66474.976563
945.005859	66217.375000
943.847656	66393.859375
942.687500	66165.695313
941.528320	66293.914063
940.369141	66644.203125
939.208984	66478.968750
938.048828	66500.226563
936.888672	66393.710938
935.728516	66450.562500
934.567383	66178.703125
933.406250	66670.937500
932.245117	66675.382813
931.083984	66581.476563
929.922852	66880.890625
928.760742	66717.953125
927.598633	66793.468750
926.436523	67239.031250
925.274414	66804.351563
924.111328	66961.312500
922.948242	67851.687500
921.785156	68073.164063
920.622070	67939.437500
919.458984	67906.007813
918.294922	68087.664063
917.130859	68490.554688
915.966797	68352.664063
914.802734	69114.304688
913.637695	69099.453125
912.472656	69303.648438
911.307617	69647.523438
910.142578	69809.835938
908.977539	70238.968750
907.811523	70503.250000
906.645508	70817.453125
905.479492	70362.578125
904.313477	70820.453125
903.146484	70638.632813
901.980469	70188.203125
900.813477	69696.289063
899.646484	69612.617188
898.478516	69270.859375
897.311523	69368.351563
896.143555	69045.492188
894.975586	69055.609375
893.806641	68901.398438
892.638672	69082.062500
891.469727	69133.750000
890.300781	68370.484375
889.131836	68715.343750
887.962891	68918.757813
886.792969	69124.171875
885.623047	68608.664063
884.453125	68618.820313
883.283203	68876.078125
882.112305	69237.054688
880.942383	68933.625000
879.771484	69315.203125
878.600586	69748.515625
877.428711	69650.546875
876.257813	69872.046875
875.085938	70528.984375
873.914063	70907.820313
872.741211	70940.304688
871.569336	70672.226563
870.396484	70700.585938
869.223633	71155.765625
868.050781	70775.921875
866.877930	70820.804688
865.704102	71694.007813
864.530273	71744.914063
863.356445	72574.140625
862.182617	72844.242188
861.007813	73720.546875
859.833984	73733.789063
858.659180	74129.695313
857.484375	72920.578125
856.308594	73386.789063
855.133789	73245.015625
853.958008	72578.273438
852.782227	72494.554688
851.605469	72359.218750
850.429688	72155.750000
849.252930	72173.359375
848.076172	72358.226563
846.899414	71884.390625
845.722656	72269.476563
844.544922	73226.125000
843.367188	73716.054688
842.189453	74053.125000
841.011719	74922.265625
839.833008	75273.414063
838.655273	76366.757813
837.476563	77098.906250
836.296875	77723.593750
835.118164	78657.179688
833.938477	78582.835938
832.758789	77921.390625
831.579102	76691.695313
830.399414	76010.242188
829.219727	75123.140625
828.039063	74514.273438
826.858398	73780.078125
825.677734	72560.507813
824.496094	72160.250000
823.315430	71500.945313
822.133789	70932.375000
820.952148	70991.179688
819.769531	70490.750000
818.587891	70473.554688
817.405273	69878.867188
816.222656	69284.398438
815.040039	69444.101563
813.856445	69455.851563
812.673828	68531.148438
811.490234	68621.085938
810.305664	68585.757813
809.122070	68729.007813
807.938477	68808.585938
806.753906	69119.976563
805.569336	69267.140625
804.383789	69471.671875
803.199219	68730.812500
802.013672	68709.843750
800.828125	68635.578125
799.642578	68200.648438
798.457031	68220.757813
797.270508	67724.593750
796.083984	67517.421875
794.897461	67787.484375
793.710938	67248.671875
792.523438	67105.148438
791.336914	66998.523438
790.149414	66969.703125
788.961914	66517.359375
787.773438	66603.179688
786.585938	66333.093750
785.397461	66394.375000
784.208984	66318.648438
783.019531	65926.109375
781.831055	66108.000000
780.641602	66304.125000
779.452148	66054.812500
778.262695	65760.648438
777.072266	65558.492188
775.882813	65836.226563
774.692383	65823.976563
773.501953	65438.218750
772.310547	65507.667969
771.120117	66205.500000
769.928711	65989.187500
768.737305	66378.687500
767.544922	65308.015625
766.353516	66245.929688
765.161133	66388.515625
763.968750	66329.281250
762.776367	66559.406250
761.583984	66850.562500
760.390625	67282.156250
759.197266	67399.960938
758.003906	68110.234375
756.810547	67806.437500
755.616211	68257.875000
754.421875	68424.234375
753.227539	68700.406250
752.033203	68284.828125
750.838867	68015.843750
749.643555	68045.875000
748.448242	67673.335938
747.252930	67784.726563
746.057617	67050.617188
744.861328	67113.304688
743.665039	66471.007813
742.468750	66162.062500
741.272461	66184.257813
740.075195	66265.320313
738.878906	65654.093750
737.681641	65410.472656
736.484375	65043.152344
735.286133	65294.785156
734.087891	65205.523438
732.890625	65341.421875
731.691406	64903.398438
730.493164	64773.703125
729.294922	64710.949219
728.095703	65144.742188
726.896484	64814.464844
725.696289	64709.722656
724.497070	64605.062500
723.296875	64500.320313
722.096680	64395.578125
720.896484	64007.027344
719.696289	64748.011719
718.495117	64547.730469
717.293945	63849.800781
716.092773	64390.128906
714.891602	64719.914063
713.689453	64406.535156
712.487305	64720.011719
711.285156	64273.335938
710.083008	64406.847656
708.880859	64530.203125
707.677734	64598.964844
706.474609	65114.082031
705.271484	64873.722656
704.068359	64479.996094
702.864258	64324.621094
701.660156	64639.582031
700.456055	64223.910156
699.251953	64512.535156
698.046875	64135.367188
696.841797	64288.765625
695.636719	64190.046875
694.431641	64421.996094
693.226563	64287.000000
692.020508	63609.925781
690.814453	63720.949219
689.608398	63811.785156
688.402344	64156.371094
687.195313	63824.179688
685.988281	64229.031250
684.781250	64118.382813
683.574219	63647.500000
682.366211	63629.562500
681.158203	63684.058594
679.950195	63658.070313
678.742188	63877.453125
677.534180	63879.582031
676.325195	63779.175781
675.116211	64004.433594
673.907227	63994.468750
672.697266	64209.550781
671.488281	63974.546875
670.278320	64054.968750
669.068359	64167.492188
667.858398	63649.519531
666.647461	63890.542969
665.436523	64137.496094
664.225586	63874.660156
663.014648	63686.148438
661.802734	63732.398438
660.591797	63967.152344
659.379883	63530.078125
658.167969	63742.722656
656.955078	63746.824219
655.743164	63929.281250
654.530273	63402.367188
653.317383	63823.207031
652.103516	64197.820313
650.890625	63833.347656
649.676758	63777.343750
648.462891	63879.500000
647.249023	64031.648438
646.034180	64161.730469
644.819336	64359.781250
643.604492	64615.761719
642.389648	65099.636719
641.174805	65113.433594
639.958984	65225.179688
638.743164	64841.179688
637.527344	64689.136719
636.311523	64483.199219
635.094727	64403.191406
633.877930	64439.054688
632.661133	64221.289063
631.444336	64083.468750
630.226563	63951.683594
629.008789	63853.871094
627.791016	63624.394531
626.573242	63291.257813
625.355469	63241.492188
624.136719	63331.339844
622.917969	63124.054688
621.699219	63054.402344
620.480469	63134.257813
619.260742	62596.312500
618.041016	62807.722656
616.821289	63005.105469
615.601563	62911.625000
614.380859	62764.410156
613.160156	63132.902344
611.939453	62728.910156
610.718750	62995.765625
609.497070	62544.187500
608.276367	63202.894531
607.054688	62508.777344
605.832031	62628.296875
604.610352	62481.332031
603.387695	62624.660156
602.165039	62783.832031
600.942383	62901.210938
599.719727	63262.925781
598.496094	62657.089844
597.272461	62718.808594
596.048828	62496.542969
594.825195	62337.886719
593.600586	62355.949219
592.375977	62503.003906
591.151367	62737.304688
589.926758	62483.488281
588.701172	62295.218750
587.476563	62287.476563
586.250977	62585.078125
585.024414	62289.839844
583.798828	62186.957031
582.572266	62456.660156
581.345703	62866.925781
580.119141	62098.414063
578.892578	62373.910156
577.665039	62595.839844
576.437500	62724.632813
575.209961	62526.777344
573.982422	62825.722656
572.753906	62625.937500
571.525391	62355.003906
570.296875	62610.292969
569.068359	62477.886719
567.838867	62505.679688
566.610352	62739.039063
565.380859	62286.496094
564.150391	62500.046875
562.920898	62755.000000
561.690430	62257.269531
560.459961	62733.359375
559.229492	62689.960938
557.999023	62624.859375
556.767578	62425.562500
555.536133	62348.687500
554.304688	62830.214844
553.073242	62104.273438
551.840820	62565.937500
550.608398	62147.937500
549.375977	62274.246094
548.143555	62445.839844
546.910156	62650.875000
545.676758	61874.535156
544.443359	62446.027344
543.209961	62199.871094
541.975586	62509.156250
540.742188	62503.289063
539.507813	62885.234375
538.272461	62877.324219
537.038086	62629.332031
535.802734	62731.648438
534.567383	62678.515625
533.332031	62896.812500
532.096680	62941.984375
530.860352	63411.796875
529.624023	62924.156250
528.387695	62808.136719
527.151367	62908.296875
525.914063	62635.152344
524.676758	62845.292969
523.439453	63090.703125
522.202148	62639.000000
520.963867	62674.300781
519.725586	62611.449219
518.487305	62497.601563
517.249023	62483.851563
516.009766	62171.945313
514.771484	62397.523438
513.532227	62264.179688
512.291992	61877.984375
511.052734	62781.671875
509.812500	61707.660156
508.572266	62861.828125
507.332031	62685.410156
506.090820	62199.597656
504.850586	61649.339844
503.609375	61980.332031
502.368164	62250.511719
501.125977	62502.976563
499.884766	62430.515625
498.642578	62459.812500
497.400391	62849.003906
496.157227	62078.343750
494.915039	62727.507813
493.671875	62369.640625
492.428711	62459.894531
491.184570	62550.222656
489.941406	62640.476563
488.697266	62730.804688
487.453125	62992.382813
486.208984	62906.277344
484.963867	62820.207031
483.718750	62673.648438
482.473633	62882.335938
481.228516	63044.113281
479.982422	63088.773438
478.737305	63373.324219
477.491211	63581.710938
476.244141	63749.070313
474.998047	63148.304688
473.750977	63783.441406
472.503906	63237.453125
471.256836	63467.937500
470.009766	63698.421875
468.761719	63929.089844
467.513672	64159.753906
466.265625	64390.421875
465.017578	64621.085938
463.768555	64851.933594
462.519531	65082.777344
461.270508	65313.625000
460.021484	65544.468750
458.771484	65775.500000
457.521484	66006.523438
456.271484	66328.382813
455.021484	66341.093750
453.770508	66361.570313
452.519531	66665.679688
451.268555	67092.046875
450.017578	67908.585938
448.765625	68377.265625
447.514648	69206.835938
446.262695	70020.562500
445.009766	71194.921875
443.757813	70960.265625
442.504883	71146.625000
441.251953	71111.820313
439.999023	70563.164063
438.745117	69968.187500
437.492188	68596.156250
436.238281	67685.875000
434.983398	67054.960938
433.729492	65943.835938
432.474609	65418.070313
431.219727	65289.484375
429.964844	65145.453125
428.709961	64591.093750
427.454102	64873.035156
426.198242	64378.914063
424.942383	64004.925781
423.685547	63671.699219
422.429688	63553.261719
421.172852	63548.949219
419.916016	63223.722656
418.658203	63580.906250
417.401367	63228.738281
416.143555	63601.238281
414.885742	63436.566406
413.626953	63383.980469
412.369141	63669.332031
411.110352	63790.472656
409.851563	63703.089844
408.591797	63943.824219
407.333008	63800.484375
406.073242	62899.027344
404.813477	63564.109375
403.553711	63517.335938
402.292969	63433.941406
401.032227	63776.605469
