#Wave		#Intensity
2001.221680	38805.855469
2000.251953	38916.144531
1999.282227	38774.023438
1998.312500	38849.937500
1997.342773	38993.468750
1996.372070	38856.414063
1995.402344	38929.769531
1994.431641	39185.878906
1993.460938	38760.960938
1992.490234	38939.414063
1991.518555	38574.746094
1990.547852	38843.246094
1989.576172	39466.890625
1988.604492	39079.804688
1987.632813	38905.421875
1986.661133	39251.183594
1985.689453	38874.332031
1984.716797	39194.980469
1983.745117	39525.507813
1982.772461	38971.398438
1981.799805	39374.296875
1980.827148	39197.570313
1979.853516	39023.398438
1978.880859	39153.910156
1977.907227	39344.289063
1976.933594	39197.632813
1975.959961	38911.277344
1974.986328	39261.285156
1974.011719	39384.148438
1973.038086	39247.558594
1972.063477	39173.367188
1971.088867	39014.417969
1970.114258	39728.070313
1969.138672	39419.527344
1968.164063	39691.750000
1967.188477	39383.316406
1966.212891	39246.886719
1965.237305	39359.582031
1964.261719	39148.492188
1963.286133	39659.550781
1962.309570	39508.222656
1961.333984	39578.472656
1960.357422	39491.914063
1959.380859	39639.273438
1958.404297	39408.445313
1957.426758	39448.808594
1956.450195	39531.433594
1955.472656	39586.679688
1954.495117	39229.226563
1953.517578	39756.761719
1952.540039	39702.585938
1951.561523	39544.074219
1950.583008	39445.234375
1949.605469	39286.820313
1948.626953	39838.707031
1947.647461	39824.285156
1946.668945	39432.523438
1945.690430	39442.996094
1944.710938	39882.792969
1943.731445	39230.691406
1942.751953	39814.250000
1941.772461	39688.222656
1940.791992	39381.203125
1939.812500	39339.597656
1938.832031	39764.062500
1937.851563	40136.332031
1936.871094	39787.312500
1935.890625	39626.722656
1934.909180	40011.199219
1933.928711	39754.027344
1932.947266	39967.468750
1931.965820	40245.210938
1930.984375	40102.003906
1930.002930	39936.570313
1929.020508	39766.242188
1928.038086	40370.421875
1927.056641	39957.636719
1926.074219	40086.675781
1925.090820	40020.300781
1924.108398	39810.539063
1923.125000	40060.660156
1922.142578	40120.375000
1921.159180	40207.253906
1920.175781	40049.484375
1919.191406	40479.722656
1918.208008	40522.027344
1917.223633	40403.796875
1916.240234	39841.167969
1915.255859	40355.070313
1914.271484	40049.339844
1913.286133	40493.925781
1912.301758	40240.089844
1911.316406	40215.765625
1910.331055	40477.558594
1909.345703	40243.585938
1908.360352	40581.714844
1907.375000	40466.128906
1906.388672	40431.917969
1905.402344	40540.652344
1904.416016	40464.550781
1903.429688	40578.164063
1902.443359	40425.726563
1901.457031	40315.203125
1900.469727	40470.632813
1899.482422	40527.539063
1898.495117	40793.632813
1897.507813	40560.074219
1896.520508	40496.367188
1895.532227	41205.121094
1894.543945	40701.058594
1893.556641	41227.546875
1892.568359	40903.140625
1891.579102	41200.785156
1890.590820	41245.167969
1889.601563	40970.070313
1888.613281	41105.382813
1887.624023	40938.492188
1886.634766	41297.265625
1885.644531	41488.925781
1884.655273	41110.898438
1883.665039	41322.160156
1882.674805	41096.460938
1881.684570	41410.714844
1880.694336	41469.687500
1879.704102	40996.312500
1878.712891	41219.664063
1877.722656	41531.214844
1876.731445	41675.933594
1875.740234	41305.808594
1874.748047	41791.191406
1873.756836	41497.140625
1872.764648	41739.757813
1871.773438	41965.144531
1870.781250	41798.570313
1869.788086	41935.703125
1868.795898	41903.851563
1867.803711	41825.496094
1866.810547	42026.183594
1865.817383	42053.058594
1864.824219	41654.203125
1863.831055	41394.921875
1862.837891	41901.261719
1861.843750	41739.835938
1860.849609	41893.863281
1859.855469	42035.613281
1858.861328	42177.312500
1857.867188	41969.515625
1856.872070	42037.878906
1855.877930	41944.988281
1854.882813	42098.808594
1853.887695	42106.054688
1852.892578	42293.968750
1851.896484	42208.417969
1850.901367	42769.660156
1849.905273	42283.859375
1848.909180	41881.175781
1847.913086	42144.574219
1846.916992	42239.597656
1845.919922	42383.351563
1844.923828	42136.964844
1843.926758	42227.054688
1842.929688	42309.800781
1841.932617	41861.300781
1840.935547	42360.695313
1839.937500	42752.730469
1838.939453	42455.382813
1837.942383	42818.039063
1836.943359	42418.527344
1835.945313	42613.097656
1834.947266	42741.890625
1833.948242	42890.097656
1832.949219	43082.046875
1831.951172	42442.015625
1830.951172	42616.949219
1829.952148	42910.964844
1828.953125	43063.867188
1827.953125	42647.914063
1826.953125	42504.304688
1825.953125	42545.417969
1824.953125	43125.863281
1823.952148	43064.828125
1822.952148	43015.957031
1821.951172	43309.476563
1820.950195	43034.789063
1819.949219	43143.722656
1818.948242	43155.535156
1817.946289	43507.054688
1816.945313	43239.800781
1815.943359	43431.082031
1814.941406	43258.515625
1813.939453	43231.496094
1812.936523	43097.808594
1811.934570	43463.500000
1810.931641	43271.652344
1809.928711	43540.257813
1808.925781	43091.660156
1807.921875	43922.152344
1806.918945	43614.105469
1805.915039	43524.093750
1804.912109	43615.675781
1803.908203	44082.406250
1802.903320	44086.734375
1801.899414	44180.585938
1800.894531	43626.050781
1799.890625	44044.066406
1798.885742	44145.125000
1797.880859	44103.488281
1796.875000	44231.093750
1795.870117	44223.289063
1794.864258	44174.406250
1793.858398	44210.105469
1792.852539	44393.156250
1791.846680	44663.097656
1790.840820	43947.628906
1789.833984	44565.242188
1788.828125	44849.488281
1787.821289	44761.921875
1786.814453	44860.207031
1785.806641	44772.667969
1784.799805	44832.312500
1783.791992	44604.910156
1782.784180	44695.910156
1781.776367	45109.968750
1780.768555	44935.667969
1779.760742	44845.785156
1778.751953	44842.687500
1777.743164	44803.449219
1776.735352	45115.937500
1775.725586	44753.910156
1774.716797	44871.230469
1773.708008	45043.886719
1772.698242	45097.921875
1771.688477	45151.953125
1770.678711	45205.988281
1769.668945	45260.019531
1768.659180	45314.054688
1767.648438	45368.140625
1766.637695	45422.226563
1765.626953	45476.312500
1764.616211	45530.398438
1763.605469	45584.484375
1762.593750	45182.328125
1761.583008	45794.226563
1760.571289	45930.265625
1759.559570	45924.550781
1758.547852	45786.761719
1757.535156	45800.277344
1756.523438	45953.019531
1755.510742	46252.109375
1754.498047	45850.386719
1753.485352	46317.332031
1752.472656	46071.660156
1751.458984	46557.585938
1750.445313	46230.425781
1749.432617	46617.843750
1748.417969	46022.308594
1747.404297	46613.343750
1746.390625	46516.437500
1745.375977	46472.277344
1744.361328	46293.980469
1743.346680	46858.199219
1742.332031	47058.238281
1741.317383	46899.085938
1740.302734	46967.386719
1739.287109	46892.066406
1738.271484	47199.632813
1737.255859	47746.332031
1736.240234	47941.207031
1735.223633	48597.593750
1734.208008	48500.519531
1733.191406	48740.578125
1732.174805	48724.781250
1731.158203	49583.699219
1730.140625	49818.652344
1729.124023	49358.300781
1728.106445	49939.562500
1727.088867	50016.699219
1726.071289	50399.445313
1725.053711	50910.972656
1724.035156	50737.257813
1723.017578	51298.660156
1721.999023	51253.785156
1720.980469	51199.382813
1719.961914	51352.511719
1718.942383	51868.085938
1717.923828	51525.082031
1716.904297	52119.109375
1715.884766	52119.414063
1714.865234	51631.167969
1713.844727	52198.644531
1712.825195	52201.308594
1711.804688	52170.625000
1710.784180	52025.636719
1709.763672	51737.835938
1708.743164	51685.820313
1707.722656	51674.281250
1706.701172	51260.562500
1705.679688	52008.113281
1704.658203	51366.101563
1703.636719	51299.914063
1702.615234	51171.914063
1701.592773	51115.292969
1700.571289	51153.777344
1699.548828	51004.476563
1698.526367	50895.625000
1697.502930	50986.394531
1696.480469	50663.777344
1695.457031	50970.691406
1694.433594	50724.179688
1693.410156	50570.355469
1692.386719	50805.898438
1691.363281	50851.476563
1690.338867	50370.222656
1689.314453	50726.671875
1688.290039	50395.054688
1687.265625	50580.605469
1686.241211	50979.503906
1685.215820	50766.562500
1684.191406	50662.734375
1683.166016	51018.742188
1682.140625	50945.707031
1681.115234	51429.472656
1680.088867	50830.507813
1679.062500	51044.121094
1678.037109	51117.941406
1677.010742	51134.914063
1675.983398	50960.136719
1674.957031	51850.453125
1673.930664	51093.492188
1672.903320	51574.164063
1671.875977	51541.355469
1670.848633	51489.632813
1669.820313	51823.363281
1668.792969	51875.632813
1667.764648	51953.882813
1666.736328	52041.554688
1665.708008	52008.683594
1664.679688	52096.312500
1663.651367	51763.449219
1662.622070	51950.277344
1661.592773	52500.675781
1660.563477	52363.863281
1659.534180	52751.117188
1658.504883	52777.144531
1657.474609	53034.406250
1656.444336	52864.558594
1655.415039	52675.902344
1654.383789	52914.167969
1653.353516	52751.500000
1652.323242	53256.062500
1651.291992	53383.308594
1650.260742	53581.210938
1649.229492	53465.656250
1648.198242	53578.656250
1647.166016	53915.378906
1646.134766	53616.132813
1645.102539	53882.085938
1644.070313	54465.753906
1643.038086	54013.566406
1642.004883	54757.027344
1640.972656	54902.582031
1639.939453	54935.164063
1638.906250	54988.902344
1637.873047	55277.781250
1636.839844	55935.699219
1635.805664	55274.578125
1634.772461	55335.257813
1633.738281	55844.761719
1632.704102	55949.957031
1631.668945	56290.023438
1630.634766	56404.492188
1629.599609	57242.195313
1628.565430	56800.000000
1627.530273	56818.062500
1626.494141	57392.371094
1625.458984	57971.160156
1624.422852	58233.003906
1623.387695	58342.277344
1622.351563	59680.488281
1621.315430	60464.808594
1620.278320	60634.574219
1619.242188	61352.804688
1618.205078	63019.976563
1617.167969	64447.539063
1616.130859	66497.796875
1615.093750	67750.882813
1614.055664	70375.960938
1613.018555	71281.343750
1611.980469	72724.882813
1610.942383	72342.085938
1609.904297	72528.007813
1608.865234	72714.101563
1607.827148	72900.023438
1606.788086	70788.843750
1605.749023	69567.125000
1604.709961	67899.226563
1603.669922	66332.445313
1602.630859	65102.812500
1601.590820	64002.152344
1600.550781	62943.941406
1599.510742	62348.675781
1598.470703	61538.726563
1597.429688	61226.496094
1596.389648	60202.214844
1595.348633	59759.593750
1594.307617	59335.800781
1593.265625	59409.238281
1592.224609	59354.316406
1591.182617	58879.496094
1590.140625	58582.105469
1589.098633	58660.277344
1588.056641	58171.835938
1587.014648	58494.828125
1585.971680	58241.996094
1584.928711	58080.132813
1583.886719	58237.535156
1582.842773	57810.160156
1581.799805	58090.992188
1580.755859	57738.308594
1579.712891	58482.378906
1578.668945	58295.027344
1577.625000	58391.695313
1576.580078	58330.082031
1575.536133	58871.089844
1574.491211	58609.355469
1573.446289	58445.394531
1572.401367	59772.070313
1571.356445	59115.058594
1570.311523	59030.121094
1569.265625	59907.414063
1568.219727	59429.652344
1567.173828	59163.476563
1566.127930	59447.925781
1565.082031	59165.582031
1564.035156	58936.746094
1562.988281	58884.433594
1561.941406	58576.800781
1560.894531	58821.636719
1559.847656	58555.886719
1558.799805	58392.308594
1557.751953	58347.089844
1556.704102	58712.375000
1555.656250	58966.230469
1554.608398	58735.457031
1553.560547	58500.125000
1552.511719	58100.332031
1551.462891	58483.863281
1550.414063	58549.867188
1549.365234	59262.085938
1548.315430	58586.843750
1547.265625	58685.203125
1546.216797	58700.183594
1545.166992	59353.992188
1544.116211	58556.554688
1543.066406	58520.636719
1542.015625	58868.753906
1540.965820	58936.871094
1539.915039	58697.394531
1538.863281	58252.218750
1537.812500	58556.203125
1536.760742	58793.046875
1535.709961	58153.968750
1534.658203	58132.019531
1533.605469	57791.285156
1532.553711	57332.875000
1531.501953	57530.457031
1530.449219	57423.199219
1529.396484	57461.406250
1528.343750	57508.828125
1527.290039	56880.105469
1526.237305	56440.792969
1525.183594	56213.863281
1524.129883	56418.296875
1523.076172	56276.765625
1522.022461	56358.917969
1520.968750	56247.410156
1519.914063	56331.839844
1518.859375	56160.460938
1517.804688	56053.648438
1516.750000	56308.515625
1515.694336	55586.792969
1514.639648	56009.742188
1513.583984	55274.511719
1512.528320	55540.835938
1511.472656	55560.812500
1510.416016	55548.566406
1509.360352	55600.738281
1508.303711	55664.390625
1507.247070	55341.656250
1506.190430	55393.828125
1505.132813	55862.089844
1504.076172	55562.472656
1503.018555	55731.777344
1501.960938	55409.304688
1500.903320	55165.058594
1499.844727	55596.179688
1498.787109	55324.421875
1497.728516	55135.417969
1496.669922	55219.664063
1495.611328	55000.906250
1494.552734	55053.011719
1493.493164	54586.558594
1492.434570	55198.453125
1491.375000	54745.898438
1490.315430	54548.046875
1489.254883	54808.820313
1488.195313	54986.968750
1487.134766	54351.410156
1486.074219	54557.074219
1485.013672	54808.484375
1483.953125	54530.644531
1482.892578	54074.257813
1481.831055	54630.171875
1480.769531	53922.082031
1479.708008	54287.820313
1478.646484	54500.089844
1477.583984	54515.488281
1476.522461	54357.000000
1475.459961	54411.300781
1474.397461	53671.980469
1473.334961	53885.656250
1472.271484	54099.523438
1471.208984	54313.199219
1470.145508	54527.070313
1469.082031	54467.015625
1468.018555	54804.500000
1466.954102	54639.343750
1465.890625	54823.660156
1464.826172	54578.636719
1463.761719	55082.503906
1462.697266	55202.722656
1461.631836	55049.042969
1460.567383	54968.429688
1459.501953	55560.824219
1458.436523	55268.019531
1457.371094	54797.445313
1456.305664	55211.699219
1455.239258	54682.027344
1454.172852	54916.089844
1453.107422	55327.812500
1452.040039	55582.175781
1450.973633	55050.527344
1449.907227	55172.746094
1448.839844	55322.238281
1447.772461	55544.535156
1446.705078	56021.707031
1445.637695	55840.945313
1444.569336	55883.253906
1443.500977	55500.089844
1442.432617	55992.835938
1441.364258	56569.558594
1440.295898	56161.457031
1439.227539	55933.105469
1438.158203	55891.234375
1437.088867	56569.816406
1436.019531	56564.195313
1434.950195	56672.167969
1433.879883	56793.730469
1432.810547	56638.171875
1431.740234	56893.660156
1430.669922	56944.730469
1429.598633	56934.492188
1428.528320	57117.160156
1427.457031	56816.453125
1426.386719	57298.531250
1425.314453	57172.546875
1424.243164	56604.386719
1423.171875	56823.214844
1422.099609	56595.367188
1421.027344	56433.328125
1419.955078	56133.105469
1418.882813	55916.824219
1417.810547	56015.503906
1416.737305	56100.554688
1415.664063	56314.652344
1414.590820	55783.769531
1413.517578	56061.226563
1412.444336	55591.687500
1411.370117	55368.968750
1410.295898	55641.820313
1409.221680	55663.476563
1408.147461	55413.718750
1407.073242	55643.441406
1405.998047	56017.777344
1404.922852	55725.132813
1403.847656	56103.832031
1402.772461	55856.468750
1401.697266	55792.191406
1400.621094	55904.125000
1399.544922	56205.722656
1398.468750	56462.050781
1397.392578	56000.359375
1396.316406	56333.371094
1395.239258	57257.546875
1394.162109	57084.773438
1393.084961	57230.156250
1392.007813	57321.347656
1390.930664	57795.886719
1389.852539	58035.757813
1388.774414	58361.203125
1387.696289	58467.894531
1386.618164	58725.535156
1385.540039	58960.546875
1384.460938	59576.187500
1383.382813	60268.183594
1382.303711	59897.011719
1381.223633	60383.804688
1380.144531	60264.867188
1379.064453	60650.132813
1377.985352	60778.718750
1376.905273	60594.519531
1375.825195	60252.917969
1374.744141	60397.246094
1373.664063	60134.503906
1372.583008	60164.128906
1371.501953	59382.257813
1370.420898	59315.363281
1369.338867	59390.054688
1368.257813	59177.144531
1367.175781	59074.375000
1366.093750	58906.511719
1365.011719	58500.687500
1363.929688	58539.523438
1362.846680	58686.089844
1361.763672	58363.550781
1360.680664	57904.257813
1359.597656	58142.828125
1358.514648	57517.750000
1357.430664	58047.843750
1356.346680	57600.136719
1355.262695	57329.691406
1354.178711	57335.035156
1353.094727	57255.214844
1352.009766	57395.000000
1350.925781	56389.996094
1349.840820	57004.718750
1348.755859	56938.441406
1347.669922	56406.480469
1346.584961	56788.046875
1345.499023	56370.449219
1344.413086	56575.093750
1343.327148	56896.007813
1342.240234	56641.902344
1341.154297	56115.031250
1340.067383	56165.273438
1338.980469	56461.425781
1337.893555	56661.347656
1336.805664	56235.414063
1335.718750	55903.484375
1334.630859	56530.109375
1333.542969	56457.351563
1332.455078	56418.117188
1331.367188	56555.296875
1330.278320	56252.617188
1329.189453	56485.750000
1328.100586	56515.714844
1327.011719	56420.710938
1325.922852	56414.972656
1324.833008	56690.281250
1323.743164	56628.738281
1322.653320	56912.820313
1321.563477	57002.851563
1320.473633	57135.191406
1319.382813	57385.593750
1318.291992	57725.027344
1317.201172	57921.761719
1316.110352	57684.105469
1315.019531	58261.566406
1313.927734	58117.441406
1312.835938	58053.503906
1311.744141	58619.449219
1310.652344	59091.726563
1309.560547	58311.238281
1308.467773	58374.097656
1307.375000	58728.281250
1306.282227	58330.738281
1305.189453	58015.601563
1304.095703	58116.242188
1303.002930	57847.925781
1301.909180	58672.941406
1300.815430	58182.449219
1299.721680	58618.386719
1298.626953	58452.320313
1297.533203	58754.820313
1296.438477	58371.218750
1295.343750	58809.015625
1294.248047	58829.437500
1293.153320	59040.667969
1292.057617	58861.378906
1290.961914	59309.847656
1289.866211	59061.824219
1288.770508	59707.425781
1287.674805	59399.558594
1286.578125	59599.359375
1285.481445	59850.054688
1284.384766	59987.656250
1283.288086	59372.039063
1282.190430	59396.718750
1281.092773	59523.253906
1279.996094	59279.996094
1278.897461	58735.777344
1277.799805	58384.300781
1276.702148	58506.488281
1275.603516	58296.769531
1274.504883	58186.664063
1273.406250	57977.074219
1272.307617	58165.574219
1271.208008	58124.082031
1270.108398	57532.210938
1269.008789	57075.359375
1267.909180	56788.812500
1266.809570	56776.308594
1265.708984	56880.871094
1264.609375	55819.363281
1263.508789	56228.757813
1262.407227	56121.425781
1261.306641	55958.953125
1260.206055	55538.339844
1259.104492	55336.312500
1258.002930	55524.812500
1256.901367	55239.042969
1255.798828	55120.964844
1254.697266	54738.355469
1253.594727	54496.964844
1252.492188	54784.613281
1251.389648	54499.226563
1250.286133	54260.203125
1249.183594	54237.140625
1248.080078	53929.972656
1246.976563	54129.375000
1245.872070	54033.687500
1244.768555	54259.406250
1243.664063	54121.914063
1242.560547	53680.808594
1241.455078	53664.464844
1240.350586	53584.332031
1239.246094	54021.042969
1238.140625	53560.480469
1237.035156	53236.382813
1235.929688	53257.488281
1234.824219	53078.597656
1233.717773	53253.523438
1232.612305	53068.105469
1231.505859	52808.078125
1230.399414	52890.718750
1229.291992	52637.398438
1228.185547	52698.082031
1227.078125	52949.687500
1225.970703	52926.902344
1224.863281	52496.035156
1223.755859	52181.582031
1222.647461	52705.050781
1221.539063	52765.640625
1220.430664	52205.757813
1219.322266	52209.417969
1218.213867	52075.007813
1217.104492	52201.398438
1215.995117	52297.066406
1214.885742	52489.078125
1213.776367	51942.980469
1212.666992	52399.925781
1211.556641	52051.066406
1210.446289	51982.503906
1209.335938	51955.542969
1208.225586	52184.589844
1207.115234	52367.609375
1206.003906	52047.496094
1204.892578	52685.335938
1203.781250	52275.632813
1202.669922	52696.773438
1201.557617	52357.152344
1200.446289	52946.386719
1199.333984	52604.656250
1198.221680	52575.421875
1197.108398	53371.773438
1195.996094	53268.160156
1194.882813	53367.628906
1193.769531	52932.257813
1192.656250	53717.042969
1191.542969	53707.265625
1190.428711	53627.675781
1189.314453	53434.683594
1188.200195	53455.488281
1187.085938	53432.671875
1185.971680	53455.644531
1184.856445	52918.429688
1183.741211	53109.285156
1182.625977	52990.671875
1181.510742	53000.625000
1180.395508	53226.207031
1179.279297	53236.113281
1178.163086	53483.335938
1177.046875	53538.902344
1175.930664	53289.730469
1174.813477	53273.496094
1173.697266	53239.855469
1172.580078	52895.156250
1171.462891	53316.152344
1170.344727	52799.773438
1169.227539	52772.757813
1168.109375	52660.972656
1166.991211	52692.667969
1165.873047	52650.468750
1164.754883	52247.640625
1163.635742	52049.140625
1162.516602	52115.664063
1161.397461	52195.187500
1160.278320	52085.804688
1159.159180	51659.558594
1158.039063	51780.351563
1156.918945	51794.777344
1155.798828	52130.261719
1154.678711	51840.957031
1153.558594	51451.996094
1152.437500	51327.699219
1151.316406	51366.027344
1150.195313	51499.703125
1149.074219	51637.667969
1147.952148	51593.578125
1146.831055	51573.335938
1145.708984	51810.828125
1144.586914	52301.589844
1143.463867	52361.324219
1142.341797	52724.085938
1141.218750	52701.480469
1140.095703	52910.410156
1138.972656	52764.453125
1137.849609	52865.136719
1136.725586	52991.734375
1135.601563	53129.097656
1134.477539	53002.656250
1133.353516	53044.851563
1132.229492	53007.074219
1131.104492	52353.507813
1129.979492	52613.984375
1128.854492	52498.542969
1127.729492	52387.457031
1126.603516	52254.820313
1125.478516	52763.367188
1124.352539	52337.171875
1123.226563	52377.242188
1122.099609	51884.386719
1120.973633	52008.648438
1119.846680	51692.890625
1118.719727	51657.566406
1117.592773	51788.265625
1116.465820	51632.222656
1115.337891	51607.699219
1114.209961	51727.554688
1113.082031	51539.285156
1111.954102	51198.152344
1110.826172	51417.074219
1109.697266	51093.308594
1108.568359	51288.484375
1107.439453	50781.898438
1106.310547	50936.167969
1105.180664	50778.390625
1104.051758	51158.476563
1102.921875	51181.386719
1101.791992	51352.664063
1100.661133	51203.515625
1099.531250	51454.261719
1098.400391	51591.000000
1097.269531	51439.734375
1096.138672	50824.453125
1095.006836	50916.117188
1093.875977	50874.585938
1092.744141	50979.082031
1091.612305	50649.863281
1090.480469	50823.050781
1089.347656	50642.058594
1088.215820	50617.769531
1087.083008	50705.046875
1085.950195	50348.285156
1084.816406	50461.308594
1083.683594	50458.503906
1082.549805	50262.757813
1081.416016	50281.417969
1080.282227	50443.652344
1079.148438	50200.875000
1078.013672	50217.386719
1076.878906	50343.125000
1075.744141	49862.792969
1074.609375	50485.261719
1073.474609	50191.312500
1072.338867	50179.980469
1071.203125	50267.078125
1070.067383	49819.285156
1068.931641	49964.167969
1067.794922	50224.488281
1066.659180	49890.265625
1065.522461	50169.738281
1064.385742	50000.234375
1063.248047	50390.710938
1062.111328	50120.796875
1060.973633	49970.613281
1059.835938	50501.843750
1058.698242	50345.234375
1057.559570	49727.488281
1056.421875	49889.152344
1055.283203	50131.863281
1054.144531	49770.566406
1053.005859	49752.906250
1051.866211	49963.500000
1050.726563	49845.566406
1049.587891	50256.507813
1048.447266	50176.933594
1047.307617	50035.570313
1046.167969	50280.011719
1045.027344	50667.125000
1043.886719	50182.738281
1042.746094	50081.941406
1041.604492	50238.867188
1040.463867	50052.917969
1039.322266	50169.339844
1038.180664	50815.707031
1037.038086	50082.828125
1035.896484	49584.261719
1034.753906	49849.585938
1033.611328	49680.917969
1032.468750	50031.183594
1031.326172	50423.843750
1030.182617	49987.308594
1029.040039	49763.468750
1027.896484	49701.207031
1026.751953	49972.527344
1025.608398	49950.605469
1024.463867	49561.273438
1023.319336	49770.882813
1022.174805	49887.000000
1021.030273	49754.726563
1019.885742	49976.910156
1018.740234	50022.898438
1017.594727	49882.179688
1016.449219	49749.992188
1015.303711	50181.957031
1014.157227	50134.570313
1013.010742	49716.214844
1011.864258	49993.214844
1010.717773	49441.531250
1009.571289	50002.386719
1008.423828	49908.464844
1007.276367	49992.480469
1006.128906	50006.585938
1004.981445	50255.691406
1003.833008	50163.894531
1002.684570	50431.921875
1001.536133	50583.468750
1000.387695	50227.203125
999.239258	50448.531250
998.089844	51035.640625
996.941406	51049.515625
995.791992	50638.453125
994.641602	50595.320313
993.492188	50564.882813
992.341797	50242.871094
991.191406	50332.917969
990.041016	50017.398438
988.890625	50626.937500
987.739258	50364.257813
986.588867	50530.203125
985.437500	50945.128906
984.285156	51022.273438
983.133789	50527.628906
981.981445	50402.312500
980.829102	50540.667969
979.676758	50360.566406
978.524414	50840.410156
977.372070	50479.035156
976.218750	50556.148438
975.065430	50776.515625
973.912109	50305.796875
972.757813	50570.355469
971.604492	50598.949219
970.450195	50861.246094
969.295898	50460.320313
968.141602	50787.789063
966.986328	51054.105469
965.832031	50769.082031
964.676758	50993.226563
963.521484	50497.992188
962.365234	51306.687500
961.209961	51154.269531
960.053711	50688.699219
958.897461	50815.964844
957.741211	50915.867188
956.584961	50996.824219
955.427734	51218.480469
954.270508	50967.527344
953.113281	51195.398438
951.956055	51024.312500
950.797852	50754.636719
949.639648	50797.746094
948.481445	50559.679688
947.323242	50663.636719
946.165039	50501.183594
945.005859	50514.941406
943.847656	50394.503906
942.687500	50183.968750
941.528320	50772.031250
940.369141	50896.777344
939.208984	50420.187500
938.048828	50469.535156
936.888672	50217.285156
935.728516	50350.410156
934.567383	50937.777344
933.406250	50336.015625
932.245117	50600.878906
931.083984	50731.730469
929.922852	50741.195313
928.760742	50648.167969
927.598633	50992.234375
926.436523	51014.183594
925.274414	50975.500000
924.111328	50859.500000
922.948242	51470.742188
921.785156	51003.683594
920.622070	51384.890625
919.458984	51135.222656
918.294922	51685.402344
917.130859	51558.941406
915.966797	51424.179688
914.802734	52209.816406
913.637695	52114.625000
912.472656	51781.636719
911.307617	51947.277344
910.142578	52936.605469
908.977539	52914.312500
907.811523	53525.765625
906.645508	53074.007813
905.479492	53099.628906
904.313477	52762.703125
903.146484	52542.558594
901.980469	52697.382813
900.813477	52267.007813
899.646484	52047.070313
898.478516	52572.414063
897.311523	51886.304688
896.143555	51837.179688
894.975586	51586.265625
893.806641	51632.886719
892.638672	51891.613281
891.469727	52058.757813
890.300781	51999.238281
889.131836	51823.339844
887.962891	52152.488281
886.792969	51858.191406
885.623047	51935.847656
884.453125	51745.542969
883.283203	51908.328125
882.112305	52158.246094
880.942383	52376.937500
879.771484	52473.089844
878.600586	52637.683594
877.428711	52791.843750
876.257813	52945.941406
875.085938	53297.000000
873.914063	53376.292969
872.741211	53005.691406
871.569336	53346.171875
870.396484	53661.656250
869.223633	53467.316406
868.050781	53650.074219
866.877930	53480.656250
865.704102	53657.125000
864.530273	53963.968750
863.356445	54562.570313
862.182617	54881.542969
861.007813	55365.937500
859.833984	55663.949219
858.659180	55260.617188
857.484375	55271.062500
856.308594	55116.078125
855.133789	55143.082031
853.958008	54533.437500
852.782227	54723.792969
851.605469	54496.695313
850.429688	54335.789063
849.252930	54005.574219
848.076172	54245.437500
846.899414	54243.644531
845.722656	54749.664063
844.544922	55030.531250
843.367188	55315.414063
842.189453	55193.746094
841.011719	55831.226563
839.833008	56185.917969
838.655273	57039.484375
837.476563	56882.531250
836.296875	57447.070313
835.118164	57483.816406
833.938477	57576.175781
832.758789	57254.421875
831.579102	56794.781250
830.399414	56469.164063
829.219727	55408.617188
828.039063	55258.355469
826.858398	55013.468750
825.677734	54058.722656
824.496094	54137.160156
823.315430	53754.789063
822.133789	53333.476563
820.952148	52688.187500
819.769531	53221.164063
818.587891	52884.457031
817.405273	52529.375000
816.222656	52427.156250
815.040039	52107.214844
813.856445	51709.332031
812.673828	51820.894531
811.490234	51745.566406
810.305664	51914.554688
809.122070	51909.015625
807.938477	51626.449219
806.753906	51672.253906
805.569336	51398.035156
804.383789	51505.390625
803.199219	51522.476563
802.013672	51211.527344
800.828125	50906.839844
799.642578	51104.375000
798.457031	50982.179688
797.270508	50661.308594
796.083984	50547.429688
794.897461	50585.136719
793.710938	50039.285156
792.523438	49974.710938
791.336914	49760.742188
790.149414	50089.144531
788.961914	49650.171875
787.773438	49861.867188
786.585938	49353.558594
785.397461	48945.632813
784.208984	48879.285156
783.019531	49336.246094
781.831055	49302.546875
780.641602	48874.492188
779.452148	49206.574219
778.262695	48754.183594
777.072266	48785.957031
775.882813	48629.867188
774.692383	48479.960938
773.501953	48442.363281
772.310547	48047.664063
771.120117	48469.222656
769.928711	48576.476563
768.737305	48722.441406
767.544922	48497.222656
766.353516	48321.015625
765.161133	48558.664063
763.968750	48413.078125
762.776367	48210.488281
761.583984	48537.660156
760.390625	48785.265625
759.197266	49089.804688
758.003906	48895.375000
756.810547	49100.019531
755.616211	49506.089844
754.421875	49492.796875
753.227539	49758.250000
752.033203	49482.496094
750.838867	49326.839844
749.643555	49193.609375
748.448242	49007.566406
747.252930	48752.476563
746.057617	48737.292969
744.861328	48356.363281
743.665039	48274.214844
742.468750	48407.402344
741.272461	47809.441406
740.075195	47699.007813
738.878906	47513.500000
737.681641	47366.625000
736.484375	47278.652344
735.286133	47478.816406
734.087891	47313.765625
732.890625	47331.308594
731.691406	47004.117188
730.493164	46841.269531
729.294922	46739.289063
728.095703	46779.210938
726.896484	47076.453125
725.696289	47031.203125
724.497070	47085.218750
723.296875	46560.023438
722.096680	46818.605469
720.896484	46552.773438
719.696289	46691.835938
718.495117	46820.730469
717.293945	46395.203125
716.092773	46956.996094
714.891602	46483.054688
713.689453	46227.679688
712.487305	46263.527344
711.285156	46438.835938
710.083008	46591.843750
708.880859	46864.007813
707.677734	46465.355469
706.474609	46676.839844
705.271484	46385.398438
704.068359	46471.632813
702.864258	46329.714844
701.660156	46524.917969
700.456055	46617.125000
699.251953	46751.664063
698.046875	46252.746094
696.841797	46256.207031
695.636719	46168.921875
694.431641	46214.730469
693.226563	46589.078125
692.020508	46328.453125
690.814453	46372.183594
689.608398	46425.968750
688.402344	46306.511719
687.195313	46338.132813
685.988281	46325.441406
684.781250	46286.585938
683.574219	46432.910156
682.366211	46436.300781
681.158203	46502.058594
679.950195	46193.640625
678.742188	46215.167969
677.534180	46401.574219
676.325195	46815.089844
675.116211	46470.652344
673.907227	46699.101563
672.697266	46583.871094
671.488281	46334.085938
670.278320	46275.203125
669.068359	46672.195313
667.858398	46440.597656
666.647461	46219.117188
665.436523	46306.808594
664.225586	46223.894531
663.014648	45974.484375
661.802734	45923.753906
660.591797	45993.375000
659.379883	45974.738281
658.167969	45781.691406
656.955078	46085.808594
655.743164	45756.531250
654.530273	46052.523438
653.317383	45643.238281
652.103516	45760.875000
650.890625	45548.042969
649.676758	45275.226563
648.462891	45873.292969
647.249023	46106.871094
646.034180	45906.132813
644.819336	45835.511719
643.604492	45950.941406
642.389648	46374.316406
641.174805	46133.679688
639.958984	45871.136719
638.743164	46212.332031
637.527344	46349.554688
636.311523	46290.917969
635.094727	46326.191406
633.877930	46413.375000
632.661133	46069.191406
631.444336	45976.699219
630.226563	46083.855469
629.008789	46147.066406
627.791016	45797.191406
626.573242	45984.121094
625.355469	46208.875000
624.136719	45416.445313
622.917969	45366.050781
621.699219	45979.535156
620.480469	45496.531250
619.260742	46169.539063
618.041016	45905.843750
616.821289	46439.074219
615.601563	45818.910156
614.380859	45971.609375
613.160156	46028.683594
611.939453	46049.902344
610.718750	45561.621094
609.497070	45847.566406
608.276367	46177.164063
607.054688	45868.144531
605.832031	46265.230469
604.610352	45761.449219
603.387695	46168.339844
602.165039	46223.273438
600.942383	46464.984375
599.719727	46132.402344
598.496094	46515.074219
597.272461	46236.230469
596.048828	46350.660156
594.825195	46351.878906
593.600586	46386.839844
592.375977	46288.820313
591.151367	46454.734375
589.926758	45952.027344
588.701172	46282.566406
587.476563	46041.847656
586.250977	46511.035156
585.024414	46052.296875
583.798828	45940.578125
582.572266	45832.859375
581.345703	46135.300781
580.119141	46459.414063
578.892578	46678.437500
577.665039	46497.390625
576.437500	46617.332031
575.209961	46042.460938
573.982422	46154.523438
572.753906	46351.621094
571.525391	46243.992188
570.296875	46310.453125
569.068359	46080.261719
567.838867	46067.636719
566.610352	46515.609375
565.380859	46279.570313
564.150391	46369.664063
562.920898	46653.335938
561.690430	46397.648438
560.459961	46578.507813
559.229492	46305.152344
557.999023	46614.281250
556.767578	46597.613281
555.536133	46859.199219
554.304688	46686.617188
553.073242	46340.496094
551.840820	45917.585938
550.608398	46419.675781
549.375977	46675.125000
548.143555	46345.027344
546.910156	46111.625000
545.676758	46398.511719
544.443359	45968.171875
543.209961	46773.007813
541.975586	46447.132813
540.742188	46312.371094
539.507813	46276.085938
538.272461	46300.824219
537.038086	46400.335938
535.802734	46456.519531
534.567383	46131.058594
533.332031	46558.984375
532.096680	46253.285156
530.860352	45977.187500
529.624023	46188.675781
528.387695	46631.980469
527.151367	46627.121094
525.914063	46329.542969
524.676758	46729.355469
523.439453	46266.906250
522.202148	46142.339844
520.963867	46567.472656
519.725586	46236.812500
518.487305	46230.054688
517.249023	46342.976563
516.009766	46145.921875
514.771484	46258.812500
513.532227	45950.078125
512.291992	46543.269531
511.052734	46622.695313
509.812500	46229.792969
508.572266	46262.214844
507.332031	46030.160156
506.090820	46048.894531
504.850586	46514.097656
503.609375	46691.316406
502.368164	45981.714844
501.125977	46495.589844
499.884766	46357.667969
498.642578	46554.335938
497.400391	46813.519531
496.157227	46632.582031
494.915039	46314.843750
493.671875	46771.367188
492.428711	46875.898438
491.184570	46812.328125
489.941406	47100.464844
488.697266	46794.644531
487.453125	46986.968750
486.208984	46915.605469
484.963867	46307.375000
483.718750	46800.281250
482.473633	47076.371094
481.228516	46928.937500
479.982422	46892.757813
478.737305	46948.261719
477.491211	46986.191406
476.244141	46565.910156
474.998047	47235.492188
473.750977	47205.125000
472.503906	47406.652344
471.256836	47006.085938
470.009766	47595.207031
468.761719	47442.089844
467.513672	47633.675781
466.265625	47649.976563
465.017578	47868.695313
463.768555	48279.992188
462.519531	48589.957031
461.270508	48646.906250
460.021484	48653.261719
458.771484	48529.324219
457.521484	48605.687500
456.271484	49029.972656
455.021484	49164.511719
453.770508	49359.238281
452.519531	49180.875000
451.268555	49427.960938
450.017578	49855.562500
448.765625	50209.214844
447.514648	50568.550781
446.262695	51374.164063
445.009766	51669.105469
443.757813	51680.664063
442.504883	51820.242188
441.251953	52124.621094
439.999023	51439.949219
438.745117	51327.453125
437.492188	50784.687500
436.238281	50319.640625
434.983398	49533.128906
433.729492	48787.589844
432.474609	48799.652344
431.219727	48505.738281
429.964844	47944.746094
428.709961	48084.714844
427.454102	47988.511719
426.198242	47662.070313
424.942383	47447.960938
423.685547	47783.273438
422.429688	47692.988281
421.172852	47511.859375
419.916016	48017.085938
418.658203	47546.031250
417.401367	47766.984375
416.143555	47390.824219
414.885742	47341.269531
413.626953	47421.136719
412.369141	47402.488281
411.110352	47437.902344
409.851563	47758.980469
408.591797	47477.804688
407.333008	47889.437500
406.073242	47700.937500
404.813477	47441.140625
403.553711	47293.292969
402.292969	47639.085938
401.032227	47371.730469
