#Wave		#Intensity
2001.248047	39054.187500
2000.278320	38873.718750
1999.308594	38964.667969
1998.338867	38662.199219
1997.369141	38740.628906
1996.398438	38781.453125
1995.428711	39140.316406
1994.458008	38925.660156
1993.487305	38926.375000
1992.516602	39094.789063
1991.545898	38700.058594
1990.574219	38638.253906
1989.603516	38789.113281
1988.631836	38402.144531
1987.660156	39160.695313
1986.688477	38523.753906
1985.715820	39144.515625
1984.744141	38667.765625
1983.771484	39045.871094
1982.798828	39029.054688
1981.826172	38764.917969
1980.853516	38900.519531
1979.880859	38651.480469
1978.907227	39116.640625
1977.933594	39022.429688
1976.959961	39180.347656
1975.986328	39230.898438
1975.012695	39131.722656
1974.039063	39386.828125
1973.064453	39711.687500
1972.089844	39026.414063
1971.115234	39313.816406
1970.140625	39399.183594
1969.166016	39232.773438
1968.190430	39041.496094
1967.215820	39475.699219
1966.240234	39271.988281
1965.264648	39698.519531
1964.289063	39056.535156
1963.312500	39296.207031
1962.336914	39373.976563
1961.360352	39459.187500
1960.383789	39770.832031
1959.407227	39470.265625
1958.430664	39612.628906
1957.454102	39483.820313
1956.476563	39802.695313
1955.499023	39758.433594
1954.521484	39490.445313
1953.543945	39669.957031
1952.566406	39508.933594
1951.587891	39839.945313
1950.610352	39892.593750
1949.631836	39227.394531
1948.653320	39607.941406
1947.674805	40045.460938
1946.696289	40112.929688
1945.716797	39579.699219
1944.737305	40126.187500
1943.758789	40210.968750
1942.779297	39747.460938
1941.798828	39688.414063
1940.819336	40266.730469
1939.838867	39629.886719
1938.859375	40116.281250
1937.878906	39950.625000
1936.898438	39874.238281
1935.916992	40206.710938
1934.936523	40038.640625
1933.955078	40004.382813
1932.974609	40155.871094
1931.993164	40346.917969
1931.010742	40258.156250
1930.029297	40137.246094
1929.047852	40068.347656
1928.065430	40286.488281
1927.083008	40375.910156
1926.100586	40151.175781
1925.118164	40215.855469
1924.135742	40495.628906
1923.152344	40384.703125
1922.168945	40273.812500
1921.185547	40447.156250
1920.202148	40321.468750
1919.218750	40171.117188
1918.235352	40495.050781
1917.250977	40369.414063
1916.266602	40300.613281
1915.282227	40187.394531
1914.297852	40209.968750
1913.313477	40578.023438
1912.328125	40822.578125
1911.343750	40563.792969
1910.358398	40332.230469
1909.373047	40569.296875
1908.387695	40729.847656
1907.401367	40589.582031
1906.416016	40750.066406
1905.429688	40553.167969
1904.443359	40711.136719
1903.457031	40467.500000
1902.470703	40704.242188
1901.483398	40487.781250
1900.497070	40763.828125
1899.509766	40852.683594
1898.522461	40459.089844
1897.535156	40353.554688
1896.546875	40700.777344
1895.559570	40789.578125
1894.571289	40654.519531
1893.583008	40937.566406
1892.594727	40642.710938
1891.606445	40709.324219
1890.618164	40586.660156
1889.628906	40808.078125
1888.639648	40972.902344
1887.650391	40641.441406
1886.661133	40663.781250
1885.671875	41135.503906
1884.682617	40980.964844
1883.692383	40983.589844
1882.702148	41123.656250
1881.711914	40937.292969
1880.721680	41303.042969
1879.731445	41124.070313
1878.740234	41050.625000
1877.749023	41033.605469
1876.757813	41041.109375
1875.766602	41487.410156
1874.775391	41570.808594
1873.784180	41208.175781
1872.791992	41360.191406
1871.799805	41000.171875
1870.807617	40931.738281
1869.815430	40946.585938
1868.823242	41157.296875
1867.830078	41338.554688
1866.837891	41358.214844
1865.844727	41235.929688
1864.851563	41199.324219
1863.858398	41307.054688
1862.864258	41308.171875
1861.871094	41309.292969
1860.876953	41310.410156
1859.882813	41311.527344
1858.888672	41312.648438
1857.894531	41313.765625
1856.899414	41314.886719
1855.905273	41774.195313
1854.910156	41727.769531
1853.915039	41166.113281
1852.919922	41310.246094
1851.923828	41720.406250
1850.928711	41822.894531
1849.932617	41927.789063
1848.936523	41666.675781
1847.940430	41364.183594
1846.944336	41944.687500
1845.947266	41727.597656
1844.951172	42161.546875
1843.954102	42022.496094
1842.957031	41902.992188
1841.959961	42095.433594
1840.962891	42477.843750
1839.964844	42285.238281
1838.966797	42180.375000
1837.969727	42136.425781
1836.970703	41849.023438
1835.972656	41904.949219
1834.974609	42036.296875
1833.975586	42099.464844
1832.976563	42551.875000
1831.978516	42965.207031
1830.978516	42755.781250
1829.979492	42507.519531
1828.980469	42218.015625
1827.980469	42738.058594
1826.980469	42825.316406
1825.980469	42808.054688
1824.980469	42564.855469
1823.979492	42457.765625
1822.979492	42802.441406
1821.978516	42845.894531
1820.977539	42651.406250
1819.976563	42347.753906
1818.975586	43010.128906
1817.973633	42861.812500
1816.972656	43038.644531
1815.970703	42764.238281
1814.968750	42916.765625
1813.966797	43270.500000
1812.963867	43510.160156
1811.961914	43000.734375
1810.958984	42896.214844
1809.956055	43012.234375
1808.953125	42929.546875
1807.950195	43188.425781
1806.946289	43582.832031
1805.943359	43456.503906
1804.939453	43332.636719
1803.935547	43605.777344
1802.930664	43365.757813
1801.926758	43220.191406
1800.922852	43427.882813
1799.917969	43487.949219
1798.913086	43272.300781
1797.908203	43441.179688
1796.903320	43116.820313
1795.897461	43520.125000
1794.891602	43891.867188
1793.886719	43806.804688
1792.880859	43782.164063
1791.874023	43564.300781
1790.868164	43329.605469
1789.862305	43638.269531
1788.855469	43992.687500
1787.848633	44038.027344
1786.841797	43668.261719
1785.833984	44176.906250
1784.827148	44359.691406
1783.819336	44117.898438
1782.812500	44090.820313
1781.804688	44273.519531
1780.795898	44222.308594
1779.788086	44718.253906
1778.779297	44293.453125
1777.771484	44606.089844
1776.762695	44788.527344
1775.753906	44424.148438
1774.744141	44577.648438
1773.735352	44680.535156
1772.725586	44576.351563
1771.715820	45102.808594
1770.706055	44582.265625
1769.696289	45125.375000
1768.686523	45309.855469
1767.675781	44957.910156
1766.666016	45248.160156
1765.655273	45276.230469
1764.644531	45556.703125
1763.632813	45887.546875
1762.622070	45391.613281
1761.610352	45748.796875
1760.598633	46043.394531
1759.586914	45876.738281
1758.575195	45957.480469
1757.563477	45567.609375
1756.550781	45922.035156
1755.538086	46218.730469
1754.525391	46352.140625
1753.512695	46466.308594
1752.500000	46657.199219
1751.486328	46416.304688
1750.473633	46770.191406
1749.459961	46694.792969
1748.446289	46535.515625
1747.432617	46742.992188
1746.417969	47077.394531
1745.404297	47208.027344
1744.389648	46306.183594
1743.375000	47085.953125
1742.360352	47388.921875
1741.344727	47694.171875
1740.330078	47379.339844
1739.314453	47471.476563
1738.298828	47587.507813
1737.283203	48059.976563
1736.267578	48006.023438
1735.251953	48131.460938
1734.235352	48065.554688
1733.218750	48315.253906
1732.202148	48583.984375
1731.185547	48905.199219
1730.168945	49116.378906
1729.151367	49353.761719
1728.133789	49722.433594
1727.117188	49474.808594
1726.098633	49988.984375
1725.081055	49602.925781
1724.063477	49835.226563
1723.044922	50621.125000
1722.026367	50838.847656
1721.007813	51476.371094
1719.989258	51202.488281
1718.970703	51484.375000
1717.951172	51453.796875
1716.931641	51509.054688
1715.912109	52129.199219
1714.892578	52324.917969
1713.873047	52472.910156
1712.853516	52682.789063
1711.833008	52287.589844
1710.812500	51782.976563
1709.791992	52216.679688
1708.771484	52593.093750
1707.750000	52759.910156
1706.729492	52553.039063
1705.708008	52370.031250
1704.686523	52715.214844
1703.665039	52506.074219
1702.642578	52456.339844
1701.621094	52554.039063
1700.598633	53193.718750
1699.576172	52670.890625
1698.553711	52884.937500
1697.531250	52414.617188
1696.507813	52875.691406
1695.485352	52438.785156
1694.461914	52712.082031
1693.438477	52745.472656
1692.415039	52598.433594
1691.390625	52892.910156
1690.367188	53054.390625
1689.342773	53113.789063
1688.318359	53291.773438
1687.293945	53268.089844
1686.269531	53588.261719
1685.244141	53398.562500
1684.218750	53562.136719
1683.194336	53882.082031
1682.168945	53654.511719
1681.142578	54227.832031
1680.117188	54384.027344
1679.090820	54128.058594
1678.064453	54056.886719
1677.038086	54208.289063
1676.011719	54551.375000
1674.985352	54461.226563
1673.958008	54070.578125
1672.931641	54654.824219
1671.904297	54543.406250
1670.876953	55110.800781
1669.848633	55018.253906
1668.821289	54996.664063
1667.792969	55436.023438
1666.764648	55541.984375
1665.736328	55357.261719
1664.708008	55363.968750
1663.679688	55413.191406
1662.650391	55325.414063
1661.621094	55164.464844
1660.591797	55652.808594
1659.562500	55418.683594
1658.533203	55791.164063
1657.502930	55066.289063
1656.472656	55320.734375
1655.442383	55391.105469
1654.412109	55385.980469
1653.381836	55328.980469
1652.351563	55326.222656
1651.320313	55644.027344
1650.289063	55516.304688
1649.257813	55734.996094
1648.226563	55663.835938
1647.194336	55750.515625
1646.163086	55865.421875
1645.130859	55389.281250
1644.098633	55457.121094
1643.066406	55550.828125
1642.033203	55644.500000
1641.000977	55792.250000
1639.967773	55897.601563
1638.934570	56005.265625
1637.901367	55945.921875
1636.868164	55877.191406
1635.833984	56137.597656
1634.800781	55866.718750
1633.766602	56387.878906
1632.732422	56516.472656
1631.697266	56147.000000
1630.663086	56705.406250
1629.627930	56493.363281
1628.593750	56661.750000
1627.558594	56837.121094
1626.522461	56777.718750
1625.487305	57626.484375
1624.451172	56804.437500
1623.416016	57767.839844
1622.379883	58231.328125
1621.343750	58415.593750
1620.306641	58745.156250
1619.270508	59252.753906
1618.233398	60182.039063
1617.196289	60642.328125
1616.159180	62819.789063
1615.122070	62895.277344
1614.083984	64411.093750
1613.046875	65605.570313
1612.008789	66563.148438
1610.970703	66785.375000
1609.932617	67236.875000
1608.893555	67047.070313
1607.855469	66134.398438
1606.816406	66017.359375
1605.777344	64782.449219
1604.738281	63435.742188
1603.698242	62664.628906
1602.659180	61580.566406
1601.619141	60945.601563
1600.579102	60474.425781
1599.539063	58816.617188
1598.499023	59121.468750
1597.458008	58559.785156
1596.417969	58388.234375
1595.376953	57472.023438
1594.335938	57531.804688
1593.294922	57264.839844
1592.252930	57436.628906
1591.210938	57281.753906
1590.169922	57168.910156
1589.127930	56708.632813
1588.084961	56987.644531
1587.042969	57105.703125
1586.000000	57044.242188
1584.958008	57770.476563
1583.915039	57103.117188
1582.872070	57123.218750
1581.828125	57816.433594
1580.785156	57999.406250
1579.741211	57770.199219
1578.697266	58297.640625
1577.653320	58389.652344
1576.609375	58921.441406
1575.564453	58608.464844
1574.520508	58979.511719
1573.475586	58848.046875
1572.430664	58918.933594
1571.384766	59215.320313
1570.339844	58572.468750
1569.293945	58248.250000
1568.249023	58330.804688
1567.202148	58062.503906
1566.156250	57118.324219
1565.110352	57407.734375
1564.063477	56661.382813
1563.017578	56755.742188
1561.970703	56121.191406
1560.922852	55904.613281
1559.875977	56008.335938
1558.829102	55824.332031
1557.781250	56262.046875
1556.733398	56249.679688
1555.685547	55863.992188
1554.636719	55812.285156
1553.588867	55558.933594
1552.540039	55746.000000
1551.491211	55564.574219
1550.442383	56020.304688
1549.393555	55419.644531
1548.344727	55437.535156
1547.294922	55737.902344
1546.245117	55658.492188
1545.195313	55525.867188
1544.145508	55390.980469
1543.094727	55397.277344
1542.044922	55479.910156
1540.994141	55837.761719
1539.943359	55853.218750
1538.892578	55836.300781
1537.840820	55715.355469
1536.790039	56183.839844
1535.738281	55743.964844
1534.686523	56276.968750
1533.634766	56149.089844
1532.583008	56441.617188
1531.530273	56302.207031
1530.477539	56432.980469
1529.424805	56351.324219
1528.372070	56539.738281
1527.319336	55779.652344
1526.265625	55635.855469
1525.212891	55854.277344
1524.159180	55385.316406
1523.105469	55642.902344
1522.051758	55762.058594
1520.997070	55392.480469
1519.942383	55290.378906
1518.888672	54971.707031
1517.833984	54961.871094
1516.778320	54942.820313
1515.723633	54652.011719
1514.667969	55303.097656
1513.612305	54660.078125
1512.556641	55013.988281
1511.500977	54822.328125
1510.445313	54267.171875
1509.388672	54814.203125
1508.332031	54956.203125
1507.275391	54847.472656
1506.218750	54490.445313
1505.162109	54935.882813
1504.104492	54726.074219
1503.047852	54518.632813
1501.990234	54720.261719
1500.931641	54579.511719
1499.874023	54679.988281
1498.816406	54573.742188
1497.757813	54669.585938
1496.699219	54809.011719
1495.640625	54762.468750
1494.582031	54543.824219
1493.522461	54758.906250
1492.462891	54482.988281
1491.403320	54704.882813
1490.343750	54848.722656
1489.284180	54607.320313
1488.224609	55023.917969
1487.164063	54422.726563
1486.103516	55182.937500
1485.042969	54696.488281
1483.982422	54954.699219
1482.920898	54697.492188
1481.860352	54818.210938
1480.798828	54762.593750
1479.737305	54810.000000
1478.675781	55054.214844
1477.613281	54705.679688
1476.550781	55023.035156
1475.489258	54882.781250
1474.426758	54971.281250
1473.363281	55315.847656
1472.300781	55251.058594
1471.237305	54765.699219
1470.174805	55418.640625
1469.111328	55191.625000
1468.046875	55284.527344
1466.983398	55640.078125
1465.919922	55582.136719
1464.855469	56238.898438
1463.791016	55753.957031
1462.726563	55734.820313
1461.661133	56500.738281
1460.596680	56467.781250
1459.531250	56104.042969
1458.465820	56342.589844
1457.400391	56544.562500
1456.334961	56641.574219
1455.268555	56606.332031
1454.202148	56379.636719
1453.135742	56394.582031
1452.069336	57065.710938
1451.002930	56538.351563
1449.935547	57038.382813
1448.869141	57187.546875
1447.801758	57612.144531
1446.734375	57647.324219
1445.666016	57882.773438
1444.598633	57774.527344
1443.530273	58387.546875
1442.461914	58731.917969
1441.393555	59080.714844
1440.325195	59433.929688
1439.256836	59514.191406
1438.187500	60137.699219
1437.118164	60329.164063
1436.048828	60750.058594
1434.979492	61675.164063
1433.909180	61368.785156
1432.839844	61900.542969
1431.769531	61596.500000
1430.699219	61410.617188
1429.627930	61844.468750
1428.557617	62427.945313
1427.486328	62405.375000
1426.416016	61883.714844
1425.343750	62262.722656
1424.272461	62895.585938
1423.201172	62412.652344
1422.128906	62519.312500
1421.056641	63219.781250
1419.984375	62852.617188
1418.912109	62705.367188
1417.839844	62700.882813
1416.766602	62671.484375
1415.693359	62569.628906
1414.620117	62214.222656
1413.546875	62440.718750
1412.473633	61587.527344
1411.399414	60888.515625
1410.325195	61531.425781
1409.250977	61171.988281
1408.176758	61624.628906
1407.102539	62065.796875
1406.027344	62705.761719
1404.952148	63322.886719
1403.876953	63370.250000
1402.801758	64129.390625
1401.726563	64135.917969
1400.650391	65052.761719
1399.574219	64207.679688
1398.498047	64519.019531
1397.421875	64146.179688
1396.345703	63692.210938
1395.268555	63477.628906
1394.191406	62940.453125
1393.114258	62574.921875
1392.037109	62983.191406
1390.959961	62750.839844
1389.881836	62653.851563
1388.804688	62865.750000
1387.726563	63424.679688
1386.647461	63868.472656
1385.569336	63374.789063
1384.491211	63872.492188
1383.412109	64750.664063
1382.333008	64752.503906
1381.253906	65015.523438
1380.173828	64632.367188
1379.094727	65086.621094
1378.014648	64507.804688
1376.934570	64253.187500
1375.854492	64437.312500
1374.773438	63935.386719
1373.693359	63413.406250
1372.612305	63170.398438
1371.531250	62689.199219
1370.450195	62761.050781
1369.369141	62026.171875
1368.287109	61397.152344
1367.205078	60867.187500
1366.123047	61069.566406
1365.041016	60968.734375
1363.958984	60953.246094
1362.875977	60787.371094
1361.793945	60251.250000
1360.710938	60182.039063
1359.626953	59738.199219
1358.543945	60023.500000
1357.460938	60192.078125
1356.376953	59826.945313
1355.292969	59784.761719
1354.208984	59410.863281
1353.124023	59828.175781
1352.040039	58869.601563
1350.955078	59479.507813
1349.870117	58738.597656
1348.785156	59252.011719
1347.700195	59335.351563
1346.614258	59170.175781
1345.528320	58765.574219
1344.442383	59135.382813
1343.356445	59690.761719
1342.270508	59015.601563
1341.183594	59315.824219
1340.096680	59703.148438
1339.009766	59158.019531
1337.922852	59040.039063
1336.835938	60216.128906
1335.748047	60426.468750
1334.661133	60341.828125
1333.573242	60272.847656
1332.484375	60815.824219
1331.396484	60711.050781
1330.307617	60563.898438
1329.219727	61291.785156
1328.130859	60894.621094
1327.041992	61097.820313
1325.952148	60941.769531
1324.863281	60823.687500
1323.773438	61120.449219
1322.683594	60890.886719
1321.593750	60759.496094
1320.502930	60960.257813
1319.413086	61236.710938
1318.322266	60699.808594
1317.231445	60927.195313
1316.140625	60882.769531
1315.048828	61354.992188
1313.958008	61110.113281
1312.866211	61299.406250
1311.774414	60705.195313
1310.682617	61161.519531
1309.589844	61137.105469
1308.498047	61651.019531
1307.405273	62111.367188
1306.312500	62204.640625
1305.218750	62711.406250
1304.125977	63031.261719
1303.032227	63719.929688
1301.939453	64792.757813
1300.845703	65276.457031
1299.750977	66390.812500
1298.657227	68477.492188
1297.562500	69286.664063
1296.467773	70097.757813
1295.373047	70504.578125
1294.278320	70664.914063
1293.183594	70345.921875
1292.087891	70668.164063
1290.992188	69229.179688
1289.896484	68229.796875
1288.800781	68031.187500
1287.704102	67431.414063
1286.608398	66911.640625
1285.511719	65977.648438
1284.415039	66065.406250
1283.317383	64967.976563
1282.220703	64081.355469
1281.123047	64169.394531
1280.025391	63453.710938
1278.927734	62990.636719
1277.830078	62722.488281
1276.731445	62815.125000
1275.633789	61989.574219
1274.535156	62024.792969
1273.436523	61591.132813
1272.336914	62108.449219
1271.238281	61261.503906
1270.138672	61219.453125
1269.039063	60733.203125
1267.939453	61047.007813
1266.839844	60379.804688
1265.739258	60695.757813
1264.638672	60998.347656
1263.538086	60340.339844
1262.437500	60419.910156
1261.336914	60157.332031
1260.235352	60369.308594
1259.134766	60393.660156
1258.033203	60276.816406
1256.930664	60343.078125
1255.829102	59591.183594
1254.726563	59529.664063
1253.625000	59979.582031
1252.522461	59367.007813
1251.418945	59402.511719
1250.316406	59772.882813
1249.212891	59319.273438
1248.110352	59224.816406
1247.006836	59020.292969
1245.902344	59135.070313
1244.798828	59258.609375
1243.694336	59071.789063
1242.589844	59054.464844
1241.485352	58828.140625
1240.380859	58951.636719
1239.276367	58415.324219
1238.170898	58395.921875
1237.065430	58635.937500
1235.959961	58660.457031
1234.854492	58227.859375
1233.748047	59082.988281
1232.642578	58718.570313
1231.536133	58655.187500
1230.429688	59250.632813
1229.322266	58939.070313
1228.215820	59022.757813
1227.108398	59637.558594
1226.000977	60124.855469
1224.893555	60458.390625
1223.786133	59982.355469
1222.677734	60135.949219
1221.569336	60160.105469
1220.460938	59629.566406
1219.352539	60028.636719
1218.244141	59774.453125
1217.134766	59824.941406
1216.025391	59779.011719
1214.916016	59354.152344
1213.806641	59430.964844
1212.697266	59409.210938
1211.586914	59201.375000
1210.476563	59641.511719
1209.366211	59276.136719
1208.255859	59134.074219
1207.145508	59808.054688
1206.034180	59875.917969
1204.922852	59545.746094
1203.811523	59069.199219
1202.700195	60064.039063
1201.587891	59613.792969
1200.476563	60048.742188
1199.364258	59882.691406
1198.251953	60450.675781
1197.138672	60337.023438
1196.026367	60570.617188
1194.913086	60882.714844
1193.799805	60729.750000
1192.686523	61220.664063
1191.573242	60945.488281
1190.458984	60757.679688
1189.344727	61108.710938
1188.230469	60635.238281
1187.116211	60530.437500
1186.001953	60205.484375
1184.886719	60296.964844
1183.772461	60601.984375
1182.657227	60458.035156
1181.541016	60266.207031
1180.425781	59869.707031
1179.309570	59127.089844
1178.193359	59327.519531
1177.077148	59342.835938
1175.960938	59630.210938
1174.844727	59221.113281
1173.727539	58738.191406
1172.610352	58984.179688
1171.493164	58877.734375
1170.375977	58669.121094
1169.257813	58501.890625
1168.139648	58534.703125
1167.022461	58313.218750
1165.903320	57854.960938
1164.785156	58285.445313
1163.666992	58326.953125
1162.547852	58655.117188
1161.428711	58388.199219
1160.309570	58360.187500
1159.189453	58162.875000
1158.070313	58406.183594
1156.950195	58083.082031
1155.830078	58000.898438
1154.709961	58680.062500
1153.588867	58328.890625
1152.468750	57912.796875
1151.347656	58277.261719
1150.226563	58528.890625
1149.104492	58186.660156
1147.983398	57931.214844
1146.861328	58650.664063
1145.739258	58419.046875
1144.617188	59027.703125
1143.495117	58848.058594
1142.372070	59179.332031
1141.250000	59179.351563
1140.126953	59242.125000
1139.003906	59908.472656
1137.879883	59759.101563
1136.756836	59750.355469
1135.632813	59810.804688
1134.508789	60489.523438
1133.384766	60033.214844
1132.259766	59587.871094
1131.135742	60073.953125
1130.010742	59702.210938
1128.885742	60030.414063
1127.759766	59935.226563
1126.634766	60306.445313
1125.508789	60146.476563
1124.382813	59915.339844
1123.256836	59744.707031
1122.130859	60210.613281
1121.003906	60143.523438
1119.877930	59957.839844
1118.750977	59591.082031
1117.624023	59431.433594
1116.496094	59534.816406
1115.369141	59784.714844
1114.241211	59616.488281
1113.113281	59495.718750
1111.985352	59325.445313
1110.856445	60171.738281
1109.728516	59366.203125
1108.599609	59368.265625
1107.470703	60067.710938
1106.340820	59820.003906
1105.211914	59391.648438
1104.082031	59699.171875
1102.952148	59737.722656
1101.822266	59888.082031
1100.692383	59492.269531
1099.561523	59653.359375
1098.431641	59885.316406
1097.300781	59898.000000
1096.169922	59934.308594
1095.038086	59498.019531
1093.907227	59753.449219
1092.775391	59418.273438
1091.643555	59433.164063
1090.511719	59233.394531
1089.378906	59600.273438
1088.246094	58780.421875
1087.114258	59290.980469
1085.980469	59526.800781
1084.847656	59209.230469
1083.714844	59404.234375
1082.581055	58580.867188
1081.447266	58812.343750
1080.313477	58810.148438
1079.179688	58531.554688
1078.044922	59467.691406
1076.910156	59643.140625
1075.775391	59021.910156
1074.640625	59576.332031
1073.505859	59111.605469
1072.370117	60217.988281
1071.234375	60022.929688
1070.098633	59688.875000
1068.962891	60353.886719
1067.826172	60135.375000
1066.690430	59989.644531
1065.553711	60386.992188
1064.416992	60467.839844
1063.279297	60332.804688
1062.142578	60567.472656
1061.004883	60255.148438
1059.867188	60863.527344
1058.729492	60164.722656
1057.590820	60089.640625
1056.453125	60191.765625
1055.314453	60246.898438
1054.175781	60423.640625
1053.037109	59612.468750
1051.897461	59586.605469
1050.757813	60181.394531
1049.618164	59933.660156
1048.478516	59850.179688
1047.338867	60156.816406
1046.199219	60090.367188
1045.058594	60891.199219
1043.917969	60059.804688
1042.777344	60240.492188
1041.635742	60142.121094
1040.495117	60203.484375
1039.353516	59915.679688
1038.211914	59772.718750
1037.069336	59436.148438
1035.927734	59952.914063
1034.785156	59703.652344
1033.642578	59758.628906
1032.500000	60015.605469
1031.357422	59470.921875
1030.213867	59340.960938
1029.071289	59967.679688
1027.927734	59963.046875
1026.783203	59720.453125
1025.639648	60119.460938
1024.495117	60125.414063
1023.351563	59774.621094
1022.207031	59729.675781
1021.061523	60162.339844
1019.916992	60202.222656
1018.771484	60106.289063
1017.625977	59611.550781
1016.480469	60374.796875
1015.334961	60200.410156
1014.188477	60607.054688
1013.041992	60214.332031
1011.895508	60076.093750
1010.749023	60120.152344
1009.602539	60403.609375
1008.455078	60288.710938
1007.307617	59936.632813
1006.160156	60266.546875
1005.012695	60316.867188
1003.864258	60464.542969
1002.716797	60529.617188
1001.568359	61176.574219
1000.419922	61097.625000
999.270508	60942.554688
998.122070	61172.441406
996.972656	61774.390625
995.823242	61549.507813
994.673828	61508.593750
993.523438	61083.074219
992.373047	61707.824219
991.222656	61459.871094
990.072266	61934.355469
988.921875	61749.800781
987.771484	61637.093750
986.620117	61287.996094
985.468750	61760.042969
984.317383	62098.968750
983.165039	62026.355469
982.013672	62240.648438
980.861328	62286.136719
979.708984	62645.796875
978.555664	62811.359375
977.403320	62658.566406
976.250000	62990.550781
975.096680	62766.136719
973.943359	62611.324219
972.790039	62563.988281
971.635742	62419.792969
970.481445	62107.207031
969.327148	62462.066406
968.172852	62387.417969
967.018555	61403.703125
965.863281	61533.363281
964.708008	61648.242188
963.552734	62080.664063
962.397461	61865.253906
961.241211	61902.210938
960.084961	61926.539063
958.929688	61692.351563
957.772461	62208.406250
956.616211	62243.160156
955.458984	62149.769531
954.301758	62108.910156
953.144531	61979.878906
951.987305	62157.394531
950.830078	62072.472656
949.671875	62025.355469
948.513672	61720.171875
947.355469	61576.632813
946.196289	61607.226563
945.038086	61679.746094
943.878906	61494.351563
942.719727	62214.601563
941.560547	61750.417969
940.400391	61845.898438
939.241211	61310.718750
938.081055	61749.769531
936.919922	62044.148438
935.759766	62181.371094
934.599609	62640.945313
933.438477	62242.152344
932.277344	62592.718750
931.116211	62702.523438
929.954102	62529.871094
928.791992	62731.671875
927.630859	62749.371094
926.467773	63218.683594
925.305664	63041.867188
924.143555	63209.976563
922.980469	63146.062500
921.817383	63520.925781
920.654297	62709.144531
919.490234	62891.796875
918.327148	63448.156250
917.163086	63597.199219
915.999023	63591.714844
914.833984	64229.023438
913.669922	63925.035156
912.504883	64570.382813
911.339844	64716.976563
910.174805	65130.453125
909.008789	65474.964844
907.843750	65861.039063
906.677734	65923.906250
905.511719	66030.507813
904.345703	65828.703125
903.178711	65770.710938
902.011719	64681.773438
900.844727	65275.785156
899.677734	64897.289063
898.510742	64402.363281
897.342773	64278.074219
896.174805	64203.765625
895.006836	64179.410156
893.838867	64117.625000
892.670898	64186.875000
891.501953	64218.667969
890.333008	64055.035156
889.164063	64036.953125
887.994141	64232.921875
886.825195	63689.136719
885.655273	64468.828125
884.485352	63713.343750
883.315430	64538.425781
882.144531	64489.113281
880.973633	63835.750000
879.803711	64072.992188
878.631836	63882.679688
877.460938	64252.597656
876.289063	64313.308594
875.118164	64645.671875
873.945313	64737.382813
872.773438	65030.148438
871.601563	65175.640625
870.428711	64689.003906
869.255859	65018.902344
868.083008	64880.496094
866.910156	64893.339844
865.736328	65562.625000
864.562500	65573.257813
863.388672	66060.000000
862.214844	66343.734375
861.040039	66606.664063
859.866211	66908.796875
858.691406	66960.531250
857.516602	66780.601563
856.340820	66319.523438
855.166016	66408.539063
853.990234	66013.843750
852.814453	65780.476563
851.637695	65757.960938
850.461914	66425.437500
849.285156	66026.882813
848.108398	65985.734375
846.931641	66002.406250
845.754883	66469.093750
844.577148	66830.343750
843.399414	67309.085938
842.221680	68086.796875
841.043945	68610.500000
839.865234	69428.929688
838.687500	69801.656250
837.508789	70683.460938
836.329102	71200.101563
835.150391	71566.093750
833.970703	71649.664063
832.791992	71591.046875
831.611328	70807.429688
830.431641	70238.265625
829.251953	68862.195313
828.071289	68365.656250
826.890625	67268.296875
825.709961	67368.992188
824.528320	66523.226563
823.347656	66780.351563
822.166016	65698.492188
820.984375	65673.953125
819.801758	65392.441406
818.620117	64946.585938
817.437500	64897.535156
816.254883	64597.820313
815.072266	64550.898438
813.888672	64329.406250
812.706055	64099.777344
811.522461	64432.816406
810.338867	64496.804688
809.154297	63844.453125
807.970703	63943.410156
806.786133	63863.824219
805.601563	63962.734375
804.416992	63801.128906
803.231445	63219.218750
802.045898	63320.230469
800.861328	63521.648438
799.674805	63495.496094
798.489258	63356.656250
797.302734	63381.757813
796.117188	63138.519531
794.930664	62711.058594
793.743164	62586.789063
792.556641	62304.933594
791.369141	62845.976563
790.181641	62674.675781
788.994141	62798.058594
787.805664	62710.691406
786.618164	62259.304688
785.429688	62812.109375
784.241211	62454.910156
783.052734	61879.121094
781.863281	61883.960938
780.673828	61878.582031
779.484375	61480.949219
778.294922	61694.195313
777.105469	61411.105469
775.915039	61297.589844
774.724609	61324.972656
773.534180	61521.750000
772.343750	61514.378906
771.152344	61480.488281
769.960938	61566.964844
768.769531	61437.210938
767.578125	61003.667969
766.385742	61899.570313
765.194336	61631.210938
764.001953	61923.402344
762.808594	62557.804688
761.616211	62507.449219
760.422852	63031.511719
759.230469	63211.207031
758.037109	62566.199219
756.842773	62672.621094
755.649414	63377.398438
754.455078	63506.007813
753.260742	64047.593750
752.066406	63618.640625
750.871094	63515.265625
749.676758	63474.964844
748.481445	62755.621094
747.286133	62640.257813
746.089844	62295.281250
744.894531	62220.679688
743.698242	62298.472656
742.501953	61990.308594
741.304688	61347.164063
740.108398	61354.003906
738.911133	61391.289063
737.713867	60910.984375
736.516602	61187.789063
735.319336	61336.667969
734.121094	60773.464844
732.922852	60831.089844
731.724609	60562.214844
730.526367	60206.257813
729.327148	59830.160156
728.127930	60420.917969
726.928711	60707.511719
725.729492	60021.562500
724.530273	60085.308594
723.330078	59665.015625
722.129883	59753.097656
720.929688	60304.730469
719.728516	59961.539063
718.528320	59383.730469
717.327148	60252.765625
716.125977	59830.875000
714.923828	59665.996094
713.722656	59578.015625
712.520508	59849.941406
711.318359	60154.101563
710.116211	59975.128906
708.913086	60357.949219
707.710938	60185.062500
706.507813	60024.351563
705.304688	60207.011719
704.100586	60179.617188
702.897461	60283.445313
701.693359	60570.902344
700.489258	60745.242188
699.284180	60752.050781
698.080078	60563.187500
696.875000	61273.902344
695.669922	61177.761719
694.464844	61103.832031
693.258789	61376.628906
692.053711	61711.796875
690.847656	62103.257813
689.641602	61745.140625
688.434570	62420.445313
687.228516	62062.398438
686.021484	62479.664063
684.814453	61719.117188
683.607422	61709.589844
682.399414	61488.769531
681.191406	61308.265625
679.983398	60476.078125
678.775391	60989.691406
677.567383	60791.281250
676.358398	60846.253906
675.149414	60993.667969
673.940430	60755.164063
672.730469	61007.019531
671.521484	61005.652344
670.311523	60522.222656
669.101563	60818.152344
667.890625	60447.371094
666.680664	60731.156250
665.469727	60549.187500
664.258789	60218.792969
663.047852	60608.785156
661.835938	60286.519531
660.625000	59557.242188
659.413086	59746.613281
658.201172	59978.007813
656.988281	59605.980469
655.776367	59454.535156
654.563477	59255.054688
653.350586	59608.562500
652.136719	59423.144531
650.923828	59704.390625
649.709961	59172.636719
648.496094	59153.546875
647.282227	59292.574219
646.067383	59107.375000
644.852539	59712.511719
643.637695	58941.207031
642.422852	59140.156250
641.208008	59461.000000
639.992188	59849.695313
638.776367	59308.792969
637.560547	59409.589844
636.344727	59438.417969
635.127930	59267.460938
633.911133	59861.539063
632.694336	59870.285156
631.477539	59499.679688
630.259766	59322.839844
629.042969	58910.554688
627.825195	58819.691406
626.606445	58908.414063
625.388672	58759.734375
624.169922	58547.285156
622.951172	58905.187500
621.732422	58642.945313
620.513672	58621.980469
619.293945	58784.359375
618.074219	58803.214844
616.854492	58465.484375
615.634766	58649.699219
614.414063	58895.574219
613.193359	58339.000000
611.972656	58574.882813
610.751953	58663.402344
609.530273	58821.527344
608.309570	58623.476563
607.087891	58592.582031
605.866211	58603.457031
604.643555	58312.097656
603.420898	58931.335938
602.198242	58683.746094
600.975586	59115.875000
599.752930	58623.957031
598.529297	58801.664063
597.305664	59001.144531
596.082031	58980.136719
594.858398	58843.980469
593.633789	59478.042969
592.410156	59258.484375
591.185547	59207.667969
589.959961	59202.496094
588.735352	59772.535156
587.509766	59900.121094
586.284180	59871.019531
585.058594	60040.164063
583.832031	60322.214844
582.606445	60707.203125
581.379883	61036.566406
580.153320	61777.828125
578.925781	61649.363281
577.699219	61833.808594
576.471680	61990.460938
575.244141	62475.632813
574.015625	62582.625000
572.788086	62159.296875
571.559570	62483.914063
570.331055	61819.453125
569.101563	61479.554688
567.873047	61088.375000
566.643555	61302.234375
565.414063	60272.847656
564.184570	60326.714844
562.954102	60188.921875
561.724609	59377.597656
560.494141	58951.691406
559.263672	59165.695313
558.032227	58503.078125
556.800781	58634.179688
555.570313	58019.269531
554.337891	57690.683594
553.106445	57894.847656
551.874023	57615.710938
550.642578	58174.757813
549.409180	57617.675781
548.176758	57800.003906
546.944336	57718.167969
545.710938	57559.515625
544.477539	57375.304688
543.243164	56876.003906
542.009766	57001.175781
540.775391	57539.785156
539.541016	56940.328125
538.306641	56624.523438
537.071289	56979.878906
535.836914	56858.960938
534.601563	56818.742188
533.366211	56973.242188
532.129883	57082.453125
530.894531	57042.207031
529.658203	57102.218750
528.421875	57168.097656
527.184570	57064.972656
525.948242	57313.531250
524.710938	57053.277344
523.473633	57411.714844
522.235352	57271.300781
520.998047	57060.269531
519.759766	57253.628906
518.521484	57325.250000
517.283203	57799.039063
516.043945	57870.523438
514.804688	57865.488281
513.565430	58223.210938
512.326172	58129.886719
511.085938	57907.226563
509.846680	58017.804688
508.606445	57836.394531
507.366211	57847.027344
506.125000	57953.628906
504.883789	57911.359375
503.643555	57847.562500
502.401367	57456.886719
501.160156	57430.382813
499.917969	57579.996094
498.675781	57095.675781
497.433594	57286.367188
496.191406	57074.117188
494.948242	57247.136719
493.705078	57349.710938
492.461914	57745.429688
491.218750	57406.218750
489.975586	57645.464844
488.731445	57341.558594
487.487305	57389.320313
486.242188	57935.000000
484.998047	57217.304688
483.752930	57831.125000
482.507813	57392.796875
481.262695	57904.882813
480.016602	57236.496094
478.771484	57892.750000
477.525391	58509.750000
476.278320	57872.816406
475.032227	57935.953125
473.785156	58589.617188
472.538086	57734.773438
471.291016	58275.222656
470.043945	58570.027344
468.795898	58081.800781
467.547852	58096.132813
466.299805	58538.753906
465.051758	58675.609375
463.802734	59195.792969
462.553711	59464.777344
461.304688	59488.542969
460.055664	59718.468750
458.805664	60175.816406
457.555664	60316.082031
456.305664	60310.500000
455.055664	59723.812500
453.804688	60563.601563
452.553711	61142.742188
451.302734	61723.601563
450.051758	61426.437500
448.799805	62436.125000
447.548828	62412.660156
446.296875	63318.902344
445.043945	63815.339844
443.791992	64356.210938
442.539063	64464.296875
441.286133	64510.273438
440.033203	63511.058594
438.779297	63010.468750
437.526367	62139.843750
436.272461	60986.597656
435.017578	60124.425781
433.763672	60300.949219
432.508789	59782.062500
431.253906	59007.746094
429.999023	58679.035156
428.744141	58418.199219
427.488281	58323.906250
426.232422	58382.515625
424.976563	58450.769531
423.720703	58145.675781
422.463867	58347.386719
421.207031	58063.691406
419.950195	58131.945313
418.693359	57838.726563
417.435547	57704.082031
416.177734	57432.304688
414.919922	57568.226563
413.662109	57729.199219
412.403320	57621.703125
411.144531	57747.847656
409.885742	57449.281250
408.626953	57839.808594
407.367188	57917.593750
406.107422	57918.183594
404.847656	57594.722656
403.587891	57608.863281
402.327148	57588.292969
401.067383	57490.617188
