#Wave		#Intensity
2001.182617	36261.492188
2000.212891	36206.347656
1999.243164	36310.292969
1998.273438	36111.023438
1997.303711	36022.046875
1996.333008	36697.050781
1995.363281	36400.144531
1994.392578	36371.253906
1993.421875	36387.433594
1992.451172	36173.328125
1991.479492	36249.597656
1990.508789	36290.808594
1989.537109	36512.121094
1988.566406	36285.636719
1987.594727	36636.914063
1986.622070	36490.492188
1985.650391	36209.125000
1984.677734	36580.226563
1983.706055	36843.734375
1982.733398	36532.464844
1981.760742	36383.683594
1980.788086	36749.492188
1979.814453	36595.730469
1978.841797	37093.707031
1977.868164	36240.929688
1976.894531	36608.996094
1975.920898	36989.414063
1974.947266	36591.210938
1973.972656	36657.160156
1972.999023	36947.570313
1972.024414	36971.039063
1971.049805	36493.324219
1970.075195	36788.593750
1969.099609	36884.355469
1968.125000	36633.679688
1967.149414	36465.320313
1966.173828	36927.292969
1965.198242	36803.765625
1964.222656	36702.699219
1963.247070	36892.984375
1962.270508	37195.226563
1961.294922	37119.027344
1960.318359	36716.847656
1959.341797	37242.890625
1958.364258	37166.722656
1957.387695	37093.062500
1956.410156	37006.992188
1955.433594	37005.492188
1954.456055	37210.328125
1953.478516	37116.820313
1952.500000	37095.417969
1951.522461	37019.355469
1950.543945	37286.144531
1949.565430	36802.726563
1948.586914	37059.523438
1947.608398	37065.453125
1946.629883	37230.257813
1945.650391	37367.703125
1944.671875	37269.339844
1943.692383	37607.703125
1942.712891	37328.234375
1941.733398	37807.847656
1940.752930	37322.605469
1939.773438	37380.535156
1938.792969	37483.070313
1937.812500	37597.957031
1936.832031	37358.425781
1935.851563	37478.246094
1934.870117	37256.160156
1933.888672	38005.078125
1932.908203	37223.296875
1931.926758	37575.796875
1930.945313	37782.113281
1929.962891	37743.320313
1928.981445	37632.769531
1927.999023	38036.906250
1927.016602	37669.062500
1926.034180	37838.074219
1925.051758	37964.984375
1924.069336	37772.890625
1923.085938	37511.644531
1922.102539	37539.675781
1921.119141	38059.468750
1920.135742	37709.355469
1919.152344	37722.511719
1918.168945	38101.207031
1917.184570	37506.789063
1916.200195	37974.273438
1915.215820	38387.285156
1914.231445	38037.472656
1913.247070	38001.191406
1912.261719	37708.316406
1911.276367	38459.046875
1910.291992	38333.910156
1909.306641	37920.292969
1908.320313	38374.710938
1907.334961	38508.496094
1906.348633	38188.718750
1905.363281	37891.234375
1904.376953	38214.746094
1903.390625	38336.140625
1902.403320	38294.933594
1901.416992	38076.433594
1900.429688	38456.312500
1899.443359	38331.402344
1898.456055	38445.281250
1897.467773	38517.281250
1896.480469	38552.347656
1895.493164	38075.726563
1894.504883	38504.386719
1893.516602	38308.277344
1892.528320	38301.550781
1891.540039	38734.859375
1890.550781	38917.312500
1889.562500	38330.535156
1888.573242	38429.457031
1887.583984	38378.492188
1886.594727	38560.875000
1885.605469	39153.289063
1884.615234	38748.664063
1883.625000	38403.093750
1882.635742	38924.042969
1881.645508	38958.925781
1880.654297	39057.585938
1879.664063	38545.390625
1878.673828	38970.289063
1877.682617	38882.519531
1876.691406	38917.371094
1875.700195	38876.214844
1874.708984	38732.132813
1873.716797	38999.785156
1872.725586	39029.683594
1871.733398	39248.191406
1870.741211	39493.566406
1869.749023	38862.187500
1868.755859	38945.945313
1867.763672	39526.605469
1866.770508	39328.753906
1865.777344	39197.039063
1864.784180	39628.097656
1863.791016	39134.339844
1862.797852	39628.843750
1861.803711	39528.953125
1860.809570	39629.582031
1859.815430	39500.390625
1858.821289	39549.656250
1857.827148	39997.218750
1856.832031	39970.640625
1855.837891	39692.464844
1854.842773	40144.644531
1853.847656	39715.132813
1852.852539	39742.332031
1851.856445	39752.429688
1850.861328	39716.148438
1849.865234	39443.183594
1848.869141	40085.218750
1847.873047	40346.496094
1846.876953	40295.496094
1845.879883	40385.945313
1844.883789	40344.707031
1843.886719	40571.621094
1842.889648	40503.550781
1841.892578	40437.941406
1840.895508	40257.847656
1839.897461	40423.710938
1838.899414	40684.496094
1837.901367	40472.792969
1836.903320	40565.488281
1835.905273	40745.781250
1834.907227	40777.546875
1833.908203	40677.902344
1832.909180	40753.460938
1831.910156	40945.750000
1830.911133	40780.457031
1829.912109	40870.539063
1828.912109	40795.269531
1827.913086	40807.531250
1826.913086	41215.933594
1825.913086	40771.292969
1824.913086	41164.972656
1823.912109	41109.144531
1822.912109	40791.039063
1821.911133	41043.671875
1820.910156	41264.648438
1819.909180	41019.500000
1818.908203	41684.527344
1817.906250	41007.476563
1816.904297	41354.453125
1815.903320	41609.132813
1814.900391	41516.921875
1813.898438	41322.898438
1812.896484	41502.289063
1811.893555	41647.679688
1810.891602	41691.234375
1809.888672	41783.230469
1808.885742	41632.929688
1807.881836	41412.437500
1806.878906	41770.828125
1805.875000	41773.148438
1804.871094	42332.281250
1803.867188	41881.863281
1802.863281	41959.183594
1801.859375	42007.437500
1800.854492	42162.117188
1799.849609	42362.695313
1798.844727	42130.316406
1797.839844	42413.039063
1796.834961	42233.917969
1795.830078	42618.035156
1794.824219	42228.683594
1793.818359	42218.820313
1792.812500	42694.531250
1791.806641	42851.246094
1790.799805	42722.937500
1789.793945	42459.460938
1788.787109	42954.101563
1787.780273	42734.117188
1786.773438	43025.820313
1785.766602	42924.128906
1784.758789	43070.945313
1783.751953	42672.605469
1782.744141	42978.574219
1781.736328	43368.820313
1780.728516	43156.257813
1779.719727	43148.640625
1778.711914	43172.351563
1777.703125	43453.859375
1776.694336	43643.722656
1775.685547	43375.890625
1774.676758	43589.781250
1773.666992	43632.648438
1772.657227	44065.476563
1771.648438	43583.539063
1770.638672	43633.597656
1769.627930	44006.042969
1768.618164	43846.718750
1767.607422	44161.265625
1766.597656	44259.273438
1765.586914	44208.175781
1764.576172	44371.042969
1763.564453	44368.007813
1762.553711	44593.265625
1761.541992	44522.917969
1760.530273	44322.875000
1759.518555	44776.183594
1758.506836	44936.363281
1757.495117	45091.683594
1756.482422	44850.867188
1755.469727	45051.746094
1754.457031	45108.570313
1753.444336	45527.660156
1752.431641	45442.851563
1751.417969	45223.757813
1750.405273	45311.683594
1749.391602	45672.890625
1748.377930	45835.007813
1747.364258	46064.175781
1746.349609	45871.515625
1745.335938	45853.820313
1744.321289	46013.390625
1743.306641	46194.457031
1742.291992	46715.484375
1741.276367	46010.527344
1740.261719	46248.941406
1739.246094	46645.226563
1738.230469	46459.902344
1737.214844	46358.378906
1736.199219	47163.460938
1735.182617	47439.718750
1734.166992	47381.109375
1733.150391	47843.703125
1732.133789	48236.808594
1731.117188	48204.375000
1730.099609	48544.707031
1729.083008	48562.394531
1728.065430	48802.218750
1727.047852	49440.785156
1726.030273	49491.726563
1725.012695	49399.410156
1723.994141	50326.343750
1722.976563	50107.421875
1721.958008	50821.539063
1720.939453	50810.152344
1719.920898	50631.800781
1718.901367	51025.875000
1717.882813	51143.210938
1716.863281	51465.527344
1715.843750	51196.601563
1714.824219	51325.757813
1713.803711	52334.089844
1712.784180	52177.113281
1711.763672	52408.441406
1710.743164	51749.019531
1709.722656	52344.632813
1708.702148	52387.734375
1707.681641	52135.671875
1706.660156	51541.011719
1705.638672	51784.085938
1704.617188	52207.875000
1703.595703	52098.726563
1702.574219	52179.859375
1701.551758	51576.195313
1700.529297	51500.492188
1699.507813	51983.363281
1698.484375	51489.363281
1697.461914	51698.824219
1696.439453	51183.664063
1695.416016	51438.230469
1694.392578	51448.109375
1693.369141	52027.808594
1692.345703	51258.945313
1691.322266	51622.484375
1690.297852	51399.757813
1689.273438	51682.472656
1688.249023	51818.007813
1687.224609	51709.203125
1686.200195	51768.800781
1685.174805	52093.917969
1684.150391	51902.148438
1683.125000	51838.425781
1682.099609	52123.066406
1681.073242	52118.558594
1680.047852	52450.421875
1679.021484	52332.167969
1677.995117	52543.101563
1676.968750	52178.644531
1675.942383	52448.707031
1674.916016	52600.332031
1673.888672	52664.351563
1672.862305	52484.660156
1671.834961	52491.902344
1670.806641	53038.367188
1669.779297	52740.468750
1668.751953	52811.488281
1667.723633	53227.589844
1666.695313	53076.335938
1665.666992	53220.503906
1664.638672	53856.019531
1663.609375	53485.054688
1662.581055	53454.300781
1661.551758	53317.296875
1660.522461	53598.210938
1659.493164	53376.253906
1658.462891	54015.773438
1657.433594	53904.714844
1656.403320	54043.765625
1655.373047	53614.308594
1654.342773	54140.121094
1653.312500	54205.953125
1652.281250	54368.417969
1651.250977	54412.968750
1650.219727	54172.347656
1649.188477	54174.500000
1648.156250	54183.718750
1647.125000	54487.355469
1646.092773	54637.808594
1645.060547	54526.851563
1644.028320	54710.195313
1642.996094	55460.722656
1641.963867	55486.160156
1640.930664	55050.425781
1639.898438	55631.105469
1638.865234	55825.839844
1637.832031	55985.230469
1636.797852	55566.164063
1635.764648	55826.621094
1634.730469	56531.207031
1633.696289	56269.707031
1632.662109	56934.015625
1631.627930	56670.183594
1630.592773	56584.941406
1629.558594	57002.261719
1628.523438	57992.312500
1627.488281	58141.621094
1626.453125	58553.742188
1625.416992	58564.441406
1624.381836	59532.382813
1623.345703	60145.765625
1622.309570	60920.757813
1621.273438	62220.738281
1620.237305	62793.453125
1619.200195	64383.300781
1618.163086	65681.960938
1617.125977	66928.609375
1616.088867	68708.976563
1615.051758	70760.437500
1614.014648	72216.289063
1612.976563	73671.617188
1611.938477	75042.140625
1610.900391	75225.398438
1609.862305	75832.195313
1608.823242	74721.257813
1607.785156	73975.679688
1606.746094	72690.031250
1605.707031	70759.359375
1604.667969	69392.898438
1603.628906	67573.375000
1602.588867	66631.031250
1601.548828	65142.164063
1600.508789	63952.906250
1599.468750	63084.132813
1598.428711	62972.453125
1597.387695	62062.117188
1596.347656	61308.546875
1595.306641	61199.570313
1594.265625	61606.468750
1593.224609	60176.601563
1592.182617	60501.867188
1591.140625	59522.945313
1590.099609	59516.996094
1589.057617	59751.250000
1588.014648	59316.242188
1586.972656	58986.292969
1585.929688	58766.003906
1584.887695	58557.445313
1583.844727	58353.617188
1582.800781	58387.472656
1581.757813	58880.148438
1580.714844	58531.984375
1579.670898	58970.902344
1578.626953	59025.566406
1577.583008	58980.125000
1576.538086	58967.273438
1575.494141	58942.796875
1574.449219	59539.421875
1573.404297	59028.750000
1572.359375	59178.667969
1571.314453	59196.007813
1570.269531	59231.937500
1569.223633	58786.750000
1568.177734	58755.347656
1567.131836	58373.128906
1566.085938	58081.640625
1565.040039	58043.402344
1563.993164	56848.789063
1562.946289	56896.679688
1561.899414	56937.589844
1560.852539	56901.894531
1559.805664	55931.089844
1558.757813	56412.937500
1557.709961	56690.492188
1556.662109	56058.832031
1555.614258	56243.597656
1554.566406	56421.335938
1553.517578	55674.160156
1552.469727	56574.996094
1551.420898	56303.058594
1550.372070	55920.015625
1549.322266	55998.042969
1548.273438	56490.578125
1547.223633	56103.070313
1546.173828	55775.886719
1545.124023	56251.988281
1544.074219	56052.171875
1543.024414	55852.425781
1541.973633	56554.960938
1540.922852	55816.273438
1539.872070	55644.417969
1538.821289	56346.609375
1537.770508	55897.308594
1536.718750	55891.941406
1535.666992	55905.054688
1534.615234	55945.890625
1533.563477	55873.519531
1532.511719	55637.179688
1531.458984	55507.152344
1530.407227	55229.402344
1529.354492	55868.191406
1528.300781	55073.476563
1527.248047	55047.476563
1526.195313	55535.976563
1525.141602	55544.500000
1524.087891	54964.894531
1523.034180	54436.226563
1521.980469	54899.121094
1520.925781	54598.855469
1519.871094	54669.750000
1518.817383	54544.753906
1517.762695	54346.074219
1516.707031	54550.570313
1515.652344	53882.136719
1514.596680	53837.953125
1513.541016	53998.683594
1512.485352	54645.035156
1511.429688	54499.468750
1510.374023	54075.535156
1509.317383	54275.207031
1508.260742	54166.582031
1507.204102	54458.152344
1506.147461	54264.457031
1505.090820	54284.625000
1504.033203	54557.621094
1502.975586	53543.578125
1501.917969	54326.695313
1500.860352	54153.859375
1499.802734	54454.234375
1498.744141	54573.082031
1497.686523	53927.300781
1496.627930	54245.917969
1495.569336	54389.980469
1494.509766	54350.402344
1493.451172	53702.820313
1492.391602	54333.222656
1491.332031	54250.093750
1490.272461	53914.742188
1489.212891	53756.050781
1488.152344	53952.726563
1487.092773	53963.683594
1486.032227	54396.277344
1484.971680	54129.921875
1483.910156	54346.996094
1482.849609	53851.710938
1481.788086	54446.585938
1480.726563	54484.906250
1479.665039	54422.488281
1478.603516	54236.503906
1477.541992	54302.289063
1476.479492	54441.261719
1475.416992	54575.605469
1474.354492	54533.796875
1473.291992	54334.230469
1472.229492	54603.398438
1471.166016	54931.898438
1470.102539	54631.804688
1469.039063	55026.441406
1467.975586	54625.910156
1466.912109	55011.265625
1465.847656	55286.863281
1464.783203	55340.875000
1463.718750	55314.964844
1462.654297	54528.988281
1461.589844	55463.988281
1460.524414	55184.792969
1459.458984	55549.019531
1458.393555	55612.035156
1457.328125	55969.203125
1456.262695	55480.347656
1455.196289	55766.742188
1454.130859	55959.578125
1453.064453	55960.925781
1451.998047	55511.144531
1450.930664	55744.921875
1449.864258	56112.992188
1448.796875	56196.281250
1447.729492	56033.644531
1446.662109	56481.128906
1445.594727	57162.875000
1444.526367	56783.968750
1443.458008	56641.808594
1442.390625	57314.050781
1441.321289	57281.011719
1440.252930	57486.742188
1439.184570	57778.789063
1438.115234	58736.746094
1437.045898	58483.011719
1435.976563	59111.011719
1434.907227	59770.589844
1433.836914	60032.421875
1432.767578	59908.082031
1431.697266	60439.996094
1430.626953	60903.609375
1429.555664	60926.710938
1428.485352	61539.847656
1427.414063	61903.167969
1426.342773	62068.992188
1425.271484	62450.226563
1424.200195	63257.671875
1423.128906	62951.535156
1422.056641	63314.265625
1420.984375	63021.824219
1419.912109	63903.355469
1418.839844	63128.300781
1417.767578	63250.601563
1416.694336	63719.390625
1415.621094	63209.730469
1414.547852	62741.007813
1413.474609	62799.894531
1412.400391	62415.148438
1411.327148	61774.832031
1410.252930	61489.957031
1409.178711	61230.062500
1408.104492	60895.621094
1407.029297	60796.472656
1405.955078	61287.441406
1404.879883	61393.953125
1403.804688	61468.785156
1402.729492	62058.781250
1401.653320	61744.871094
1400.578125	61512.390625
1399.501953	62038.820313
1398.425781	62614.734375
1397.349609	62752.460938
1396.272461	62707.300781
1395.196289	62750.171875
1394.119141	63336.812500
1393.041992	64164.628906
1391.964844	64394.417969
1390.886719	64827.089844
1389.809570	65397.140625
1388.731445	66136.054688
1387.653320	66541.125000
1386.575195	66887.445313
1385.497070	66023.710938
1384.417969	65822.585938
1383.338867	65835.500000
1382.259766	66165.929688
1381.180664	65757.734375
1380.101563	65748.132813
1379.021484	65855.570313
1377.941406	65296.878906
1376.861328	64601.140625
1375.781250	64683.972656
1374.701172	64685.804688
1373.620117	64716.867188
1372.539063	64640.000000
1371.458008	64021.421875
1370.376953	63866.039063
1369.295898	64393.812500
1368.213867	63914.898438
1367.132813	64125.750000
1366.050781	64693.609375
1364.967773	64199.171875
1363.885742	64717.417969
1362.802734	65069.371094
1361.720703	65879.015625
1360.637695	65815.523438
1359.554688	66389.179688
1358.470703	65850.093750
1357.387695	65369.507813
1356.303711	65339.773438
1355.219727	64151.042969
1354.135742	64126.015625
1353.050781	63404.050781
1351.966797	62521.023438
1350.881836	62012.421875
1349.796875	62283.437500
1348.711914	61627.257813
1347.626953	60866.078125
1346.541016	60886.429688
1345.455078	60620.285156
1344.369141	60685.421875
1343.283203	60766.195313
1342.197266	60446.523438
1341.110352	60024.085938
1340.023438	60033.371094
1338.936523	60076.183594
1337.849609	60539.222656
1336.762695	60425.480469
1335.674805	60577.683594
1334.586914	60486.308594
1333.499023	60245.308594
1332.411133	60743.617188
1331.323242	60873.316406
1330.234375	60853.382813
1329.145508	61161.578125
1328.056641	61788.785156
1326.967773	61835.632813
1325.878906	62279.554688
1324.789063	61991.718750
1323.699219	62765.500000
1322.609375	63648.253906
1321.519531	64461.574219
1320.429688	65169.843750
1319.338867	66189.843750
1318.248047	67635.023438
1317.157227	68685.390625
1316.066406	70209.773438
1314.975586	70998.742188
1313.883789	71549.195313
1312.791992	72342.078125
1311.700195	72369.054688
1310.608398	72324.812500
1309.516602	71766.648438
1308.423828	71117.468750
1307.331055	69581.140625
1306.238281	68981.515625
1305.145508	67495.031250
1304.051758	66675.929688
1302.958984	66781.656250
1301.865234	65223.039063
1300.771484	65213.457031
1299.677734	65397.121094
1298.583008	65702.859375
1297.489258	65906.351563
1296.394531	66380.601563
1295.299805	66057.835938
1294.204102	66536.320313
1293.109375	67201.015625
1292.013672	66716.328125
1290.917969	66835.109375
1289.822266	66168.812500
1288.726563	66272.125000
1287.630859	66062.828125
1286.534180	65563.250000
1285.437500	65498.191406
1284.340820	65089.738281
1283.244141	65044.718750
1282.146484	64448.230469
1281.048828	63993.675781
1279.951172	63851.457031
1278.853516	63149.246094
1277.755859	63168.789063
1276.658203	62964.828125
1275.559570	62749.878906
1274.460938	62353.621094
1273.362305	62205.203125
1272.262695	61831.292969
1271.164063	61912.937500
1270.064453	61249.652344
1268.964844	61324.738281
1267.865234	61260.589844
1266.765625	61032.984375
1265.665039	60293.019531
1264.564453	60966.683594
1263.463867	60324.148438
1262.363281	59959.996094
1261.262695	60094.796875
1260.161133	59825.703125
1259.059570	59640.546875
1257.958008	59715.761719
1256.856445	59477.757813
1255.754883	59548.558594
1254.652344	59286.410156
1253.549805	59361.625000
1252.447266	59392.730469
1251.344727	59203.460938
1250.242188	58732.253906
1249.138672	59210.613281
1248.035156	58951.000000
1246.931641	59142.882813
1245.828125	58874.562500
1244.724609	59471.402344
1243.620117	59443.000000
1242.515625	58996.531250
1241.411133	59148.621094
1240.306641	59588.796875
1239.201172	59591.171875
1238.096680	59710.078125
1236.991211	59617.894531
1235.885742	59747.738281
1234.779297	59831.386719
1233.673828	59987.503906
1232.567383	60426.949219
1231.460938	59447.367188
1230.354492	59438.765625
1229.248047	59546.527344
1228.140625	59566.441406
1227.033203	59013.507813
1225.926758	59279.277344
1224.818359	59272.894531
1223.710938	59525.355469
1222.602539	59365.402344
1221.495117	59358.996094
1220.386719	59479.753906
1219.278320	59216.863281
1218.168945	59109.667969
1217.060547	58936.773438
1215.951172	58476.945313
1214.841797	58711.640625
1213.731445	58665.925781
1212.622070	58611.464844
1211.511719	58863.511719
1210.402344	58725.859375
1209.291992	59297.296875
1208.180664	59124.601563
1207.070313	59420.113281
1205.958984	59582.097656
1204.847656	60050.171875
1203.736328	59949.605469
1202.625000	59899.351563
1201.512695	60332.136719
1200.401367	60559.351563
1199.289063	60537.406250
1198.176758	60731.730469
1197.063477	61083.226563
1195.951172	61290.476563
1194.837891	61757.453125
1193.724609	61835.710938
1192.611328	62164.917969
1191.498047	61680.093750
1190.383789	61623.050781
1189.269531	61363.171875
1188.155273	61437.054688
1187.041016	60856.765625
1185.926758	60684.359375
1184.811523	60677.667969
1183.696289	59999.761719
1182.581055	59834.136719
1181.465820	59132.660156
1180.350586	59315.742188
1179.234375	59472.617188
1178.118164	59524.925781
1177.001953	59405.238281
1175.885742	59118.000000
1174.768555	58789.519531
1173.652344	58848.433594
1172.535156	58374.367188
1171.417969	58746.515625
1170.299805	58546.628906
1169.182617	58109.832031
1168.064453	58390.519531
1166.946289	58184.277344
1165.828125	58566.972656
1164.709961	58115.273438
1163.590820	58182.875000
1162.471680	58339.492188
1161.352539	57814.250000
1160.233398	58164.085938
1159.114258	58277.203125
1157.994141	58140.707031
1156.874023	58494.625000
1155.753906	58282.207031
1154.633789	58063.355469
1153.513672	57749.164063
1152.392578	58532.183594
1151.271484	58792.480469
1150.150391	58079.523438
1149.029297	58584.671875
1147.907227	58478.652344
1146.786133	58769.085938
1145.664063	58660.898438
1144.541992	58702.164063
1143.418945	58972.906250
1142.296875	58886.382813
1141.173828	58994.667969
1140.050781	59585.445313
1138.927734	59823.363281
1137.803711	59989.812500
1136.680664	60052.390625
1135.556641	59598.167969
1134.432617	60263.949219
1133.308594	59896.304688
1132.183594	59749.218750
1131.059570	59986.785156
1129.934570	59911.023438
1128.809570	60126.871094
1127.684570	59982.000000
1126.558594	60027.179688
1125.432617	59439.843750
1124.307617	60350.582031
1123.180664	59616.656250
1122.054688	59439.636719
1120.928711	59812.746094
1119.801758	59422.234375
1118.674805	59795.203125
1117.547852	59387.582031
1116.419922	59471.574219
1115.292969	59264.585938
1114.165039	59227.898438
1113.037109	58771.117188
1111.909180	59115.781250
1110.780273	58652.722656
1109.652344	58853.011719
1108.523438	58689.406250
1107.394531	58747.550781
1106.264648	58846.562500
1105.135742	58689.492188
1104.005859	58926.152344
1102.875977	58833.644531
1101.746094	58992.765625
1100.616211	58855.125000
1099.485352	59472.054688
1098.355469	59764.222656
1097.224609	59194.585938
1096.092773	59177.312500
1094.961914	59359.812500
1093.830078	59059.015625
1092.699219	59151.277344
1091.567383	58953.675781
1090.434570	59097.433594
1089.302734	58923.515625
1088.169922	58902.003906
1087.037109	58916.964844
1085.904297	58700.269531
1084.771484	58575.863281
1083.637695	58515.824219
1082.504883	58595.148438
1081.371094	58490.113281
1080.236328	58998.003906
1079.102539	58526.546875
1077.968750	59049.234375
1076.833984	58779.261719
1075.699219	59010.476563
1074.564453	58980.398438
1073.428711	59008.128906
1072.292969	58926.691406
1071.158203	59014.332031
1070.022461	59324.433594
1068.885742	59225.867188
1067.750000	59125.191406
1066.613281	59028.828125
1065.476563	58885.464844
1064.339844	58799.863281
1063.203125	59171.625000
1062.065430	59301.800781
1060.927734	59466.109375
1059.790039	59280.066406
1058.652344	59036.429688
1057.514648	59102.468750
1056.375977	58575.027344
1055.237305	59144.832031
1054.098633	59304.703125
1052.959961	59255.425781
1051.820313	58877.656250
1050.681641	59419.250000
1049.541992	59303.863281
1048.402344	59474.207031
1047.261719	59222.429688
1046.122070	59816.832031
1044.981445	60014.679688
1043.840820	59843.886719
1042.700195	60037.394531
1041.558594	60066.839844
1040.417969	59223.281250
1039.276367	59491.292969
1038.134766	59082.351563
1036.992188	58692.710938
1035.850586	59447.910156
1034.708008	58637.132813
1033.565430	59104.925781
1032.422852	59017.523438
1031.280273	58689.894531
1030.136719	59097.890625
1028.994141	59180.558594
1027.850586	58530.078125
1026.706055	58591.566406
1025.562500	58980.156250
1024.417969	58642.257813
1023.273438	58495.593750
1022.128906	58833.023438
1020.984375	58709.718750
1019.839844	59288.917969
1018.694336	58705.128906
1017.548828	58456.742188
1016.403320	58853.246094
1015.256836	59132.968750
1014.111328	59001.246094
1012.964844	58810.214844
1011.818359	58793.046875
1010.671875	59002.632813
1009.524414	58835.003906
1008.377930	59146.179688
1007.230469	58751.957031
1006.083008	58669.160156
1004.934570	59160.148438
1003.787109	59269.929688
1002.638672	59125.699219
1001.490234	59091.550781
1000.341797	59567.277344
999.193359	59340.574219
998.043945	59232.378906
996.894531	59912.910156
995.745117	59500.218750
994.595703	60045.171875
993.446289	59945.371094
992.295898	59784.328125
991.145508	59532.503906
989.995117	60045.359375
988.844727	59875.933594
987.693359	60038.046875
986.541992	59875.011719
985.390625	59836.554688
984.239258	60180.054688
983.087891	60215.394531
981.935547	60923.617188
980.783203	59938.039063
979.630859	60129.433594
978.478516	60586.394531
977.325195	60874.554688
976.172852	60528.261719
975.019531	60664.613281
973.865234	60126.773438
972.711914	60614.894531
971.557617	60753.250000
970.404297	60348.332031
969.250000	60764.558594
968.094727	60862.812500
966.940430	60944.195313
965.785156	60337.546875
964.629883	61214.140625
963.474609	60674.964844
962.319336	61088.550781
961.163086	61022.632813
960.007813	61166.937500
958.851563	61302.781250
957.694336	60976.296875
956.538086	61603.722656
955.380859	61445.335938
954.223633	61776.328125
953.066406	61389.093750
951.909180	60779.472656
950.751953	61234.230469
949.593750	60666.824219
948.435547	60884.339844
947.277344	60594.109375
946.118164	60597.621094
944.959961	60691.292969
943.800781	60472.539063
942.641602	60471.867188
941.482422	60259.511719
940.322266	60483.089844
939.162109	60725.433594
938.001953	60628.351563
936.841797	60811.933594
935.681641	61290.691406
934.520508	60753.906250
933.360352	61142.484375
932.198242	61087.257813
931.037109	61452.609375
929.875977	61108.644531
928.713867	61400.644531
927.551758	61876.562500
926.389648	61551.519531
925.227539	61694.847656
924.064453	61677.187500
922.901367	62014.773438
921.738281	62354.324219
920.575195	62474.410156
919.412109	62431.546875
918.248047	62363.636719
917.083984	63068.210938
915.919922	63044.039063
914.755859	63393.441406
913.590820	63575.781250
912.426758	63949.984375
911.261719	63890.195313
910.095703	64489.417969
908.930664	64506.695313
907.764648	65245.250000
906.598633	65370.753906
905.432617	65685.843750
904.266602	65152.832031
903.099609	64701.257813
901.933594	64518.515625
900.766602	64231.722656
899.599609	64153.226563
898.431641	64266.261719
897.264648	63459.371094
896.096680	63919.976563
894.928711	63298.597656
893.759766	63403.375000
892.591797	63662.007813
891.422852	63315.472656
890.253906	63203.976563
889.084961	62880.515625
887.916016	63155.664063
886.746094	63484.726563
885.576172	63645.402344
884.406250	63482.011719
883.236328	63632.238281
882.065430	63255.058594
880.895508	63637.753906
879.724609	63455.796875
878.552734	64350.843750
877.381836	65000.746094
876.209961	64602.902344
875.039063	64885.437500
873.866211	65055.894531
872.694336	65502.007813
871.522461	65077.410156
870.349609	65247.730469
869.176758	65163.128906
868.003906	65339.578125
866.830078	65520.101563
865.657227	65485.187500
864.483398	65675.960938
863.309570	66121.281250
862.135742	66616.101563
860.960938	67193.507813
859.786133	67613.453125
858.611328	67751.929688
857.436523	67638.046875
856.261719	67077.562500
855.085938	67276.000000
853.910156	66583.500000
852.734375	66308.703125
851.558594	65860.445313
850.382813	65757.343750
849.206055	66494.914063
848.029297	66412.382813
846.852539	66670.539063
845.674805	66802.679688
844.498047	66660.273438
843.320313	67685.867188
842.142578	68199.421875
840.963867	68751.976563
839.786133	69731.234375
838.607422	70419.382813
837.428711	71608.250000
836.250000	71479.539063
835.070313	71874.328125
833.891602	72174.187500
832.711914	71353.242188
831.532227	71105.203125
830.352539	69916.132813
829.171875	69631.382813
827.991211	68408.031250
826.810547	67837.570313
825.629883	67399.015625
824.449219	66771.343750
823.267578	66518.281250
822.085938	66261.187500
820.904297	65560.039063
819.722656	65817.195313
818.540039	64717.613281
817.357422	64777.527344
816.174805	64710.023438
814.992188	64726.769531
813.809570	64061.585938
812.625977	63680.039063
811.442383	64333.457031
810.258789	64292.769531
809.074219	64048.902344
807.890625	64314.035156
806.706055	65120.714844
805.521484	64958.871094
804.336914	65344.683594
803.151367	65195.156250
801.966797	65031.332031
800.781250	64965.953125
799.594727	64209.945313
798.409180	64154.984375
797.222656	63505.933594
796.037109	63303.640625
794.849609	63480.281250
793.663086	62575.769531
792.476563	63309.289063
791.289063	62775.601563
790.101563	62864.203125
788.914063	62516.972656
787.725586	62427.617188
786.538086	62763.695313
785.349609	62420.757813
784.161133	62358.039063
782.971680	62119.546875
781.783203	61932.234375
780.593750	62159.785156
779.404297	61682.429688
778.214844	61993.679688
777.024414	61918.839844
775.834961	61596.964844
774.644531	61750.859375
773.454102	61565.878906
772.262695	61738.082031
771.072266	61963.265625
769.880859	61815.058594
768.689453	62066.652344
767.497070	62002.082031
766.305664	62518.578125
765.113281	62170.609375
763.920898	63100.589844
762.728516	63400.597656
761.536133	63551.773438
760.342773	63611.230469
759.149414	63780.628906
757.956055	63789.113281
756.762695	64098.878906
755.568359	64449.230469
754.374023	64862.535156
753.179688	64474.050781
751.985352	64866.847656
750.791016	63715.820313
749.595703	63988.632813
748.400391	64098.695313
747.205078	63619.230469
746.009766	63761.832031
744.813477	62825.417969
743.617188	62901.066406
742.420898	62302.332031
741.224609	62656.261719
740.027344	62419.207031
738.830078	61784.347656
737.632813	61791.093750
736.435547	61552.292969
735.238281	61613.859375
734.040039	61202.750000
732.841797	61663.894531
731.643555	61502.339844
730.445313	61592.238281
729.246094	61001.023438
728.046875	60997.753906
726.847656	61223.449219
725.648438	60754.175781
724.449219	60979.828125
723.249023	60927.945313
722.048828	60629.062500
720.848633	60834.359375
719.647461	60746.093750
718.447266	60740.828125
717.246094	60727.468750
716.044922	60882.011719
714.842773	60431.765625
713.641602	60705.605469
712.439453	61199.703125
711.237305	61018.484375
710.035156	61797.292969
708.832031	61102.792969
707.629883	61723.710938
706.426758	61623.312500
705.223633	61395.722656
704.019531	61384.253906
702.815430	61039.703125
701.612305	61718.570313
700.408203	61297.398438
699.203125	61390.859375
697.999023	61575.058594
696.793945	61341.703125
695.588867	61683.121094
694.383789	61441.761719
693.177734	62028.941406
691.971680	61896.433594
690.766602	61663.218750
689.559570	61673.855469
688.353516	61642.183594
687.146484	61334.632813
685.939453	61085.582031
684.732422	61496.902344
683.525391	61221.746094
682.318359	61180.113281
681.110352	60993.636719
679.902344	60877.628906
678.693359	60582.667969
677.485352	60965.453125
676.276367	60634.394531
675.067383	60874.308594
673.858398	60860.910156
672.649414	61028.355469
671.439453	60916.492188
670.229492	60899.066406
669.019531	60590.464844
667.809570	60579.125000
666.598633	60433.292969
665.387695	60428.003906
664.176758	60298.300781
662.965820	60317.109375
661.754883	60721.042969
660.542969	60230.355469
659.331055	60339.386719
658.119141	60717.019531
656.906250	60268.691406
655.694336	60732.363281
654.481445	60278.179688
653.268555	60405.121094
652.054688	60369.773438
650.841797	60797.023438
649.627930	60731.578125
648.414063	60912.371094
647.200195	61745.558594
645.985352	62034.144531
644.770508	62734.761719
643.555664	63367.097656
642.340820	63537.218750
641.125977	63691.273438
639.910156	63765.300781
638.694336	63089.753906
637.478516	63103.910156
636.262695	62218.937500
635.045898	62057.449219
633.829102	62017.855469
632.612305	61652.777344
631.395508	60950.414063
630.177734	60976.914063
628.959961	60708.023438
627.742188	60511.066406
626.524414	60142.605469
625.306641	60302.867188
624.087891	60323.464844
622.869141	59883.457031
621.650391	60123.414063
620.430664	60138.046875
619.211914	60599.058594
617.992188	59896.316406
616.772461	60082.289063
615.551758	60053.093750
614.332031	60398.265625
613.111328	60207.750000
611.890625	59637.101563
610.669922	60047.828125
609.448242	59654.515625
608.226563	59947.699219
607.004883	59856.882813
605.783203	59793.941406
604.561523	59699.207031
603.338867	59950.406250
602.116211	60165.730469
600.893555	59540.390625
599.669922	60365.660156
598.447266	59937.167969
597.223633	59612.113281
596.000000	59934.511719
594.775391	59615.527344
593.551758	60015.214844
592.327148	60069.433594
591.102539	59625.589844
589.877930	60044.878906
588.652344	60005.828125
587.426758	60553.785156
586.201172	60431.371094
584.975586	60257.460938
583.750000	59982.535156
582.523438	60216.976563
581.296875	60385.949219
580.070313	60691.535156
578.842773	60884.117188
577.616211	61203.347656
576.388672	61564.031250
575.161133	60742.894531
573.932617	60915.519531
572.705078	61125.667969
571.476563	61300.128906
570.248047	61504.187500
569.018555	61259.273438
567.790039	60755.441406
566.560547	60639.242188
565.331055	60578.425781
564.101563	60323.976563
562.871094	60369.921875
561.641602	59795.605469
560.411133	60145.761719
559.179688	60047.562500
557.949219	60227.753906
556.717773	59626.253906
555.486328	59863.683594
554.254883	59637.351563
553.023438	59044.183594
551.791016	59573.480469
550.558594	59556.347656
549.326172	59111.390625
548.093750	59510.265625
546.860352	59309.859375
545.627930	59005.093750
544.393555	59326.925781
543.160156	59045.898438
541.926758	59017.054688
540.692383	59228.429688
539.458008	58904.265625
538.223633	59292.714844
536.988281	59734.152344
535.752930	59447.449219
534.517578	59322.152344
533.282227	59332.609375
532.046875	59852.343750
530.810547	59949.195313
529.574219	59949.687500
528.337891	59838.160156
527.101563	59862.246094
525.864258	59913.824219
524.626953	60232.507813
523.389648	59989.421875
522.152344	60025.234375
520.914063	59823.500000
519.675781	59719.972656
518.437500	59922.597656
517.199219	59658.210938
515.959961	59654.800781
514.721680	59694.539063
513.482422	59553.863281
512.242188	59740.632813
511.002930	59921.449219
509.762695	59320.273438
508.522461	59363.941406
507.282227	59391.917969
506.041016	59633.367188
504.800781	59402.789063
503.559570	59432.691406
502.318359	59613.308594
501.076172	59484.628906
499.833984	59543.839844
498.592773	59501.296875
497.349609	59484.195313
496.107422	59267.621094
494.864258	59721.781250
493.622070	59749.601563
492.377930	59116.777344
491.134766	59510.125000
489.891602	59954.117188
488.647461	59794.332031
487.403320	59884.593750
486.158203	59623.335938
484.914063	59834.636719
483.668945	59534.441406
482.423828	60237.472656
481.178711	59911.941406
479.932617	60290.789063
478.686523	60439.332031
477.440430	60271.902344
476.194336	60311.203125
474.948242	60822.230469
473.701172	60793.191406
472.454102	61284.445313
471.207031	60875.414063
469.958984	61060.640625
468.711914	61333.433594
467.463867	61171.902344
466.215820	61136.972656
464.966797	61516.640625
463.718750	61454.406250
462.469727	61831.917969
461.220703	61896.089844
459.970703	62450.359375
458.721680	62568.832031
457.471680	62726.140625
456.221680	62801.742188
454.970703	63157.175781
453.720703	63189.914063
452.469727	63704.437500
451.218750	63746.769531
449.966797	64426.054688
448.715820	64446.867188
447.463867	65001.519531
446.211914	65474.437500
444.959961	66504.109375
443.707031	66710.757813
442.454102	67037.593750
441.201172	67209.140625
439.948242	66178.406250
438.695313	65688.953125
437.441406	64030.863281
436.187500	63838.503906
434.933594	62665.789063
433.678711	62500.875000
432.424805	61625.195313
431.169922	61013.203125
429.914063	61187.511719
428.659180	60670.683594
427.403320	60701.765625
426.147461	60707.675781
424.891602	60498.832031
423.635742	60802.656250
422.378906	60309.582031
421.122070	60100.925781
419.865234	60161.058594
418.608398	59902.250000
417.350586	59618.414063
416.092773	59804.183594
414.834961	60146.351563
413.577148	59997.816406
412.318359	60001.886719
411.059570	59976.992188
409.800781	60023.523438
408.541992	59689.843750
407.282227	59657.292969
406.022461	59723.140625
404.762695	59871.902344
403.502930	59470.996094
402.242188	59899.312500
400.981445	59706.738281
