#Wave		#Intensity
2001.221680	41984.117188
2000.251953	41999.156250
1999.282227	41959.246094
1998.312500	41959.437500
1997.342773	42147.519531
1996.372070	41859.625000
1995.402344	41734.613281
1994.431641	41812.460938
1993.460938	41880.261719
1992.490234	42273.429688
1991.518555	41933.207031
1990.547852	41833.304688
1989.576172	41873.531250
1988.604492	41798.683594
1987.632813	42138.996094
1986.661133	41961.609375
1985.689453	42064.277344
1984.716797	42161.910156
1983.745117	41877.144531
1982.772461	42342.074219
1981.799805	42349.664063
1980.827148	42037.539063
1979.853516	42374.824219
1978.880859	42207.617188
1977.907227	42190.257813
1976.933594	42449.960938
1975.959961	41778.710938
1974.986328	42223.035156
1974.011719	42068.464844
1973.038086	42128.457031
1972.063477	41844.277344
1971.088867	42228.429688
1970.114258	42265.917969
1969.138672	42153.843750
1968.164063	42278.554688
1967.188477	42266.179688
1966.212891	42306.121094
1965.237305	42303.707031
1964.261719	42654.921875
1963.286133	42373.570313
1962.309570	42077.378906
1961.333984	42483.203125
1960.357422	42269.214844
1959.380859	42771.898438
1958.404297	42699.738281
1957.426758	42806.683594
1956.450195	42413.730469
1955.472656	42766.843750
1954.495117	42993.046875
1953.517578	42779.218750
1952.540039	42856.230469
1951.561523	42791.582031
1950.583008	42776.640625
1949.605469	42885.894531
1948.626953	42930.542969
1947.647461	43409.687500
1946.668945	43218.382813
1945.690430	42994.875000
1944.710938	42853.339844
1943.731445	43081.554688
1942.751953	43123.628906
1941.772461	42766.347656
1940.791992	42991.976563
1939.812500	43086.105469
1938.832031	42870.320313
1937.851563	42763.671875
1936.871094	43078.347656
1935.890625	43422.644531
1934.909180	43122.714844
1933.928711	43149.839844
1932.947266	43228.957031
1931.965820	43468.988281
1930.984375	43312.835938
1930.002930	43278.023438
1929.020508	43146.707031
1928.038086	43661.218750
1927.056641	43025.210938
1926.074219	43116.609375
1925.090820	43121.421875
1924.108398	43165.789063
1923.125000	43061.812500
1922.142578	43546.128906
1921.159180	43345.742188
1920.175781	43422.152344
1919.191406	43449.125000
1918.208008	43661.335938
1917.223633	43100.511719
1916.240234	42809.011719
1915.255859	43426.074219
1914.271484	43675.156250
1913.286133	43437.996094
1912.301758	43398.304688
1911.316406	43420.296875
1910.331055	44068.769531
1909.345703	43587.558594
1908.360352	43730.316406
1907.375000	43577.203125
1906.388672	43596.671875
1905.402344	43874.886719
1904.416016	43647.902344
1903.429688	43684.589844
1902.443359	43435.550781
1901.457031	43839.183594
1900.469727	43553.265625
1899.482422	43688.406250
1898.495117	43582.289063
1897.507813	43621.398438
1896.520508	43980.347656
1895.532227	43901.289063
1894.543945	43413.968750
1893.556641	43644.886719
1892.568359	44190.437500
1891.579102	43432.906250
1890.590820	43852.945313
1889.601563	44120.480469
1888.613281	43466.546875
1887.624023	43635.789063
1886.634766	43394.796875
1885.644531	44072.316406
1884.655273	43723.296875
1883.665039	44039.656250
1882.674805	44088.375000
1881.684570	44480.628906
1880.694336	43930.585938
1879.704102	44195.164063
1878.712891	44219.285156
1877.722656	44287.539063
1876.731445	43892.375000
1875.740234	44536.730469
1874.748047	43761.757813
1873.756836	44126.550781
1872.764648	43763.535156
1871.773438	44375.609375
1870.781250	44394.753906
1869.788086	44269.410156
1868.795898	44254.285156
1867.803711	44523.125000
1866.810547	44613.203125
1865.817383	44135.523438
1864.824219	44538.800781
1863.831055	44736.457031
1862.837891	44422.867188
1861.843750	44605.796875
1860.849609	44465.929688
1859.855469	44350.554688
1858.861328	45007.542969
1857.867188	45082.714844
1856.872070	44915.980469
1855.877930	45105.945313
1854.882813	45012.531250
1853.887695	44904.496094
1852.892578	44808.707031
1851.896484	45237.777344
1850.901367	44885.691406
1849.905273	44990.042969
1848.909180	45296.859375
1847.913086	44966.898438
1846.916992	44798.019531
1845.919922	45094.949219
1844.923828	45486.855469
1843.926758	45822.558594
1842.929688	45663.390625
1841.932617	45494.527344
1840.935547	45791.066406
1839.937500	45573.519531
1838.939453	45302.464844
1837.942383	46032.312500
1836.943359	45634.671875
1835.945313	45986.898438
1834.947266	45983.671875
1833.948242	45800.375000
1832.949219	46011.277344
1831.951172	45876.687500
1830.951172	45944.003906
1829.952148	46509.777344
1828.953125	46268.191406
1827.953125	46551.738281
1826.953125	46193.570313
1825.953125	46119.828125
1824.953125	46347.363281
1823.952148	46188.601563
1822.952148	46418.468750
1821.951172	46446.718750
1820.950195	46251.597656
1819.949219	46294.421875
1818.948242	46742.527344
1817.946289	46389.730469
1816.945313	46439.781250
1815.943359	46974.945313
1814.941406	46559.230469
1813.939453	46568.000000
1812.936523	46697.980469
1811.934570	46764.894531
1810.931641	46761.496094
1809.928711	46993.140625
1808.925781	46701.406250
1807.921875	46327.417969
1806.918945	47116.023438
1805.915039	46979.382813
1804.912109	47406.871094
1803.908203	46948.296875
1802.903320	47361.113281
1801.899414	47423.226563
1800.894531	47485.398438
1799.890625	47547.511719
1798.885742	47609.683594
1797.880859	47671.855469
1796.875000	47734.089844
1795.870117	47672.496094
1794.864258	47115.500000
1793.858398	47704.003906
1792.852539	47507.152344
1791.846680	47849.003906
1790.840820	47946.820313
1789.833984	47807.976563
1788.828125	48019.226563
1787.821289	47880.414063
1786.814453	48043.304688
1785.806641	48191.660156
1784.799805	48303.777344
1783.791992	48222.890625
1782.784180	48472.417969
1781.776367	48550.664063
1780.768555	48498.699219
1779.760742	48685.371094
1778.751953	49014.156250
1777.743164	48651.316406
1776.735352	48382.554688
1775.725586	49038.781250
1774.716797	48688.164063
1773.708008	49197.226563
1772.698242	49345.015625
1771.688477	49581.804688
1770.678711	49320.367188
1769.668945	49203.386719
1768.659180	49673.410156
1767.648438	49683.878906
1766.637695	49641.433594
1765.626953	49974.082031
1764.616211	50184.007813
1763.605469	50237.632813
1762.593750	50086.976563
1761.583008	49986.824219
1760.571289	49805.031250
1759.559570	50764.152344
1758.547852	50695.144531
1757.535156	50448.492188
1756.523438	50602.812500
1755.510742	50337.058594
1754.498047	50294.566406
1753.485352	50633.566406
1752.472656	51080.390625
1751.458984	51380.750000
1750.445313	51184.625000
1749.432617	51657.484375
1748.417969	51008.316406
1747.404297	50999.296875
1746.390625	51428.796875
1745.375977	51697.621094
1744.361328	52095.699219
1743.346680	51940.390625
1742.332031	51871.339844
1741.317383	52542.105469
1740.302734	52549.566406
1739.287109	52552.238281
1738.271484	52875.550781
1737.255859	52849.449219
1736.240234	53490.734375
1735.223633	54026.558594
1734.208008	53914.175781
1733.191406	54698.371094
1732.174805	54146.082031
1731.158203	55078.128906
1730.140625	55097.054688
1729.124023	55221.093750
1728.106445	55720.101563
1727.088867	56304.906250
1726.071289	56507.457031
1725.053711	56542.812500
1724.035156	57155.800781
1723.017578	57150.453125
1721.999023	57319.292969
1720.980469	57717.097656
1719.961914	57985.953125
1718.942383	58514.660156
1717.923828	57994.031250
1716.904297	58129.183594
1715.884766	58011.628906
1714.865234	58256.351563
1713.844727	58551.023438
1712.825195	58867.027344
1711.804688	58654.140625
1710.784180	58393.695313
1709.763672	58230.960938
1708.743164	57915.921875
1707.722656	58034.191406
1706.701172	58278.546875
1705.679688	58051.695313
1704.658203	58353.050781
1703.636719	58004.960938
1702.615234	57661.746094
1701.592773	57354.316406
1700.571289	57070.765625
1699.548828	57457.578125
1698.526367	57473.535156
1697.502930	57546.503906
1696.480469	57206.097656
1695.457031	57276.710938
1694.433594	57283.179688
1693.410156	57078.328125
1692.386719	56555.445313
1691.363281	57153.023438
1690.338867	57140.515625
1689.314453	57320.191406
1688.290039	57098.898438
1687.265625	56481.593750
1686.241211	56907.906250
1685.215820	57172.839844
1684.191406	57326.261719
1683.166016	57192.847656
1682.140625	57611.613281
1681.115234	57333.664063
1680.088867	57603.015625
1679.062500	57400.949219
1678.037109	57594.410156
1677.010742	57551.042969
1675.983398	57486.386719
1674.957031	57663.156250
1673.930664	57806.730469
1672.903320	57907.667969
1671.875977	58233.285156
1670.848633	58421.613281
1669.820313	58356.851563
1668.792969	58055.695313
1667.764648	58804.164063
1666.736328	58375.406250
1665.708008	59340.941406
1664.679688	59457.980469
1663.651367	59289.160156
1662.622070	59240.839844
1661.592773	59501.867188
1660.563477	59566.847656
1659.534180	59716.773438
1658.504883	59675.488281
1657.474609	59313.304688
1656.444336	60114.324219
1655.415039	59992.785156
1654.383789	60317.007813
1653.353516	60735.433594
1652.323242	60427.597656
1651.291992	61013.199219
1650.260742	61195.605469
1649.229492	61281.335938
1648.198242	60905.289063
1647.166016	61626.996094
1646.134766	61458.257813
1645.102539	61572.125000
1644.070313	61803.660156
1643.038086	61639.679688
1642.004883	62151.156250
1640.972656	62076.578125
1639.939453	62618.371094
1638.906250	62447.296875
1637.873047	62760.718750
1636.839844	62566.164063
1635.805664	63509.464844
1634.772461	63413.554688
1633.738281	63902.820313
1632.704102	64051.222656
1631.668945	64674.093750
1630.634766	65101.800781
1629.599609	64646.390625
1628.565430	65667.960938
1627.530273	66590.562500
1626.494141	66592.796875
1625.458984	67625.203125
1624.422852	67784.437500
1623.387695	69104.789063
1622.351563	70410.593750
1621.315430	71364.179688
1620.278320	72690.218750
1619.242188	74182.203125
1618.205078	76620.515625
1617.167969	78528.375000
1616.130859	80473.039063
1615.093750	83304.796875
1614.055664	85388.437500
1613.018555	88115.273438
1611.980469	89162.484375
1610.942383	90569.812500
1609.904297	90469.429688
1608.865234	90111.679688
1607.827148	88483.687500
1606.788086	86683.179688
1605.749023	84544.195313
1604.709961	81952.335938
1603.669922	80053.414063
1602.630859	77217.843750
1601.590820	76320.687500
1600.550781	75017.273438
1599.510742	74300.710938
1598.470703	73163.953125
1597.429688	72214.429688
1596.389648	71916.695313
1595.348633	71077.453125
1594.307617	71111.468750
1593.265625	70295.992188
1592.224609	70453.796875
1591.182617	69949.000000
1590.140625	69374.406250
1589.098633	69548.601563
1588.056641	68946.296875
1587.014648	68875.726563
1585.971680	68847.125000
1584.928711	68357.125000
1583.886719	68673.460938
1582.842773	68577.351563
1581.799805	67912.960938
1580.755859	68517.960938
1579.712891	68810.742188
1578.668945	69003.328125
1577.625000	68863.007813
1576.580078	69316.132813
1575.536133	69703.945313
1574.491211	70126.515625
1573.446289	69606.976563
1572.401367	70366.585938
1571.356445	70470.281250
1570.311523	70836.609375
1569.265625	71088.921875
1568.219727	70346.578125
1567.173828	70164.421875
1566.127930	70300.562500
1565.082031	69681.843750
1564.035156	69288.585938
1562.988281	69538.562500
1561.941406	69981.117188
1560.894531	69423.226563
1559.847656	68881.773438
1558.799805	69191.953125
1557.751953	69193.515625
1556.704102	69600.929688
1555.656250	70107.906250
1554.608398	68954.750000
1553.560547	69510.335938
1552.511719	69400.578125
1551.462891	69246.835938
1550.414063	68981.953125
1549.365234	69122.500000
1548.315430	69195.835938
1547.265625	69651.195313
1546.216797	70050.828125
1545.166992	69413.359375
1544.116211	69396.328125
1543.066406	69647.703125
1542.015625	69209.593750
1540.965820	68762.382813
1539.915039	68932.789063
1538.863281	69211.796875
1537.812500	68665.414063
1536.760742	69029.882813
1535.709961	69001.367188
1534.658203	68011.687500
1533.605469	67844.757813
1532.553711	67597.039063
1531.501953	67912.867188
1530.449219	67314.273438
1529.396484	67655.429688
1528.343750	66907.070313
1527.290039	66334.351563
1526.237305	66398.625000
1525.183594	65699.328125
1524.129883	66028.921875
1523.076172	65581.281250
1522.022461	66009.906250
1520.968750	65585.484375
1519.914063	65721.250000
1518.859375	65492.882813
1517.804688	65647.046875
1516.750000	65969.304688
1515.694336	64980.996094
1514.639648	65084.500000
1513.583984	65577.039063
1512.528320	64897.773438
1511.472656	64872.347656
1510.416016	65380.761719
1509.360352	65143.597656
1508.303711	65251.546875
1507.247070	65092.679688
1506.190430	65189.093750
1505.132813	65296.964844
1504.076172	65069.210938
1503.018555	64657.683594
1501.960938	64887.363281
1500.903320	64829.796875
1499.844727	65123.671875
1498.787109	64344.984375
1497.728516	65026.871094
1496.669922	64971.601563
1495.611328	64354.019531
1494.552734	64459.527344
1493.493164	64470.921875
1492.434570	64060.210938
1491.375000	64204.699219
1490.315430	63991.390625
1489.254883	63723.132813
1488.195313	64188.523438
1487.134766	63571.945313
1486.074219	63929.488281
1485.013672	63727.867188
1483.953125	63879.082031
1482.892578	64137.886719
1481.831055	64158.449219
1480.769531	64801.742188
1479.708008	64728.316406
1478.646484	64920.402344
1477.583984	64725.699219
1476.522461	64897.121094
1475.459961	65448.191406
1474.397461	64800.660156
1473.334961	64745.593750
1472.271484	65159.214844
1471.208984	64790.941406
1470.145508	65286.675781
1469.082031	65060.175781
1468.018555	65391.187500
1466.954102	64867.804688
1465.890625	65077.687500
1464.826172	64917.593750
1463.761719	65079.445313
1462.697266	65626.984375
1461.631836	65535.332031
1460.567383	65854.421875
1459.501953	65518.656250
1458.436523	65680.242188
1457.371094	65875.976563
1456.305664	65861.867188
1455.239258	65546.851563
1454.172852	65530.523438
1453.107422	65297.710938
1452.040039	66233.812500
1450.973633	65841.492188
1449.907227	66323.906250
1448.839844	65981.804688
1447.772461	66076.960938
1446.705078	66695.648438
1445.637695	66128.335938
1444.569336	66712.656250
1443.500977	67055.593750
1442.432617	67478.023438
1441.364258	67584.164063
1440.295898	67683.445313
1439.227539	68057.781250
1438.158203	68356.968750
1437.088867	68856.046875
1436.019531	68898.203125
1434.950195	68610.921875
1433.879883	69604.859375
1432.810547	69621.867188
1431.740234	70222.437500
1430.669922	69962.351563
1429.598633	70147.257813
1428.528320	70903.984375
1427.457031	70884.429688
1426.386719	71155.257813
1425.314453	71587.031250
1424.243164	71163.687500
1423.171875	71404.843750
1422.099609	71679.906250
1421.027344	71877.804688
1419.955078	71629.195313
1418.882813	72178.226563
1417.810547	71521.882813
1416.737305	71468.242188
1415.664063	71244.781250
1414.590820	71263.664063
1413.517578	71223.679688
1412.444336	70814.781250
1411.370117	70903.875000
1410.295898	70486.125000
1409.221680	70254.015625
1408.147461	69770.937500
1407.073242	69998.078125
1405.998047	69761.656250
1404.922852	69459.757813
1403.847656	69967.070313
1402.772461	70067.453125
1401.697266	69609.765625
1400.621094	69378.125000
1399.544922	69776.671875
1398.468750	70461.835938
1397.392578	69577.710938
1396.316406	70143.023438
1395.239258	70581.757813
1394.162109	71787.500000
1393.084961	72744.656250
1392.007813	72878.164063
1390.930664	73611.500000
1389.852539	74049.195313
1388.774414	74784.312500
1387.696289	75070.617188
1386.618164	74879.054688
1385.540039	75325.210938
1384.460938	75856.804688
1383.382813	75964.757813
1382.303711	75412.851563
1381.223633	75903.609375
1380.144531	75581.523438
1379.064453	75736.703125
1377.985352	75236.984375
1376.905273	74759.937500
1375.825195	75403.320313
1374.744141	74712.742188
1373.664063	75054.570313
1372.583008	74103.500000
1371.501953	74494.757813
1370.420898	74326.250000
1369.338867	74115.101563
1368.257813	74223.054688
1367.175781	73737.953125
1366.093750	74384.937500
1365.011719	74155.953125
1363.929688	74059.515625
1362.846680	74373.867188
1361.763672	74246.000000
1360.680664	75022.429688
1359.597656	75100.875000
1358.514648	74605.078125
1357.430664	74185.695313
1356.346680	74201.460938
1355.262695	73697.117188
1354.178711	73378.984375
1353.094727	72480.546875
1352.009766	72003.664063
1350.925781	71804.726563
1349.840820	71287.812500
1348.755859	70685.984375
1347.669922	70433.656250
1346.584961	69594.906250
1345.499023	70233.648438
1344.413086	69162.507813
1343.327148	69546.023438
1342.240234	69770.585938
1341.154297	69037.812500
1340.067383	69846.007813
1338.980469	69357.179688
1337.893555	69351.359375
1336.805664	69513.156250
1335.718750	69402.281250
1334.630859	69809.757813
1333.542969	69696.625000
1332.455078	69411.570313
1331.367188	69646.882813
1330.278320	69841.921875
1329.189453	70322.593750
1328.100586	70568.765625
1327.011719	70522.539063
1325.922852	70730.648438
1324.833008	71177.351563
1323.743164	71742.078125
1322.653320	71675.593750
1321.563477	73145.109375
1320.473633	74059.101563
1319.382813	74932.648438
1318.291992	76015.312500
1317.201172	76705.515625
1316.110352	78326.460938
1315.019531	78604.015625
1313.927734	80604.750000
1312.835938	79926.804688
1311.744141	80439.828125
1310.652344	80296.210938
1309.560547	79936.835938
1308.467773	78850.187500
1307.375000	78529.000000
1306.282227	77974.445313
1305.189453	76310.687500
1304.095703	76090.156250
1303.002930	75291.867188
1301.909180	74696.062500
1300.815430	74766.968750
1299.721680	74049.304688
1298.626953	74098.085938
1297.533203	73831.546875
1296.438477	74395.382813
1295.343750	73565.093750
1294.248047	73820.304688
1293.153320	74441.523438
1292.057617	74802.953125
1290.961914	74523.250000
1289.866211	75285.921875
1288.770508	75077.171875
1287.674805	75702.015625
1286.578125	74892.609375
1285.481445	75519.476563
1284.384766	74947.460938
1283.288086	74993.695313
1282.190430	75066.484375
1281.092773	74643.218750
1279.996094	74186.898438
1278.897461	74286.351563
1277.799805	73854.593750
1276.702148	73976.187500
1275.603516	73498.179688
1274.504883	72989.367188
1273.406250	73613.085938
1272.307617	72507.406250
1271.208008	72458.890625
1270.108398	72215.875000
1269.008789	72140.906250
1267.909180	71827.320313
1266.809570	71513.843750
1265.708984	70891.250000
1264.609375	70792.273438
1263.508789	70671.242188
1262.407227	70682.710938
1261.306641	70378.539063
1260.206055	70590.867188
1259.104492	70114.726563
1258.002930	69963.031250
1256.901367	69617.289063
1255.798828	68932.078125
1254.697266	69212.812500
1253.594727	68741.742188
1252.492188	69414.710938
1251.389648	69146.500000
1250.286133	68730.765625
1249.183594	68533.257813
1248.080078	68483.382813
1246.976563	68508.382813
1245.872070	68401.281250
1244.768555	68873.125000
1243.664063	68319.234375
1242.560547	68095.593750
1241.455078	68296.625000
1240.350586	68367.812500
1239.246094	67777.007813
1238.140625	68266.031250
1237.035156	68209.664063
1235.929688	68568.742188
1234.824219	68000.296875
1233.717773	68304.343750
1232.612305	68142.554688
1231.505859	67638.179688
1230.399414	68150.734375
1229.291992	68335.960938
1228.185547	67902.070313
1227.078125	67211.539063
1225.970703	67368.296875
1224.863281	67176.140625
1223.755859	66681.343750
1222.647461	66765.726563
1221.539063	66389.585938
1220.430664	66528.796875
1219.322266	66411.484375
1218.213867	66815.820313
1217.104492	66455.273438
1215.995117	66557.117188
1214.885742	66742.156250
1213.776367	66583.289063
1212.666992	66323.750000
1211.556641	66955.328125
1210.446289	65914.398438
1209.335938	66782.164063
1208.225586	66822.531250
1207.115234	67016.015625
1206.003906	67318.789063
1204.892578	67177.515625
1203.781250	68140.453125
1202.669922	67459.125000
1201.557617	68065.390625
1200.446289	68282.460938
1199.333984	68298.437500
1198.221680	68428.000000
1197.108398	68823.968750
1195.996094	69010.156250
1194.882813	69458.265625
1193.769531	69766.500000
1192.656250	69323.859375
1191.542969	70057.507813
1190.428711	69185.179688
1189.314453	69386.343750
1188.200195	69033.500000
1187.085938	68508.515625
1185.971680	68825.234375
1184.856445	68636.148438
1183.741211	68699.921875
1182.625977	68556.679688
1181.510742	68794.718750
1180.395508	68237.664063
1179.279297	68545.359375
1178.163086	68315.140625
1177.046875	68108.953125
1175.930664	68621.085938
1174.813477	68830.546875
1173.697266	67897.679688
1172.580078	67996.250000
1171.462891	67849.015625
1170.344727	67893.187500
1169.227539	68161.281250
1168.109375	67677.156250
1166.991211	67992.992188
1165.873047	66898.476563
1164.754883	67307.757813
1163.635742	67297.656250
1162.516602	66974.828125
1161.397461	67485.914063
1160.278320	67391.117188
1159.159180	67784.726563
1158.039063	67123.484375
1156.918945	67588.593750
1155.798828	67509.015625
1154.678711	66928.429688
1153.558594	67326.085938
1152.437500	67240.085938
1151.316406	66985.023438
1150.195313	67239.398438
1149.074219	67359.320313
1147.952148	67305.867188
1146.831055	67393.234375
1145.708984	67822.765625
1144.586914	67658.804688
1143.463867	68430.203125
1142.341797	68833.320313
1141.218750	68638.960938
1140.095703	69654.265625
1138.972656	69745.398438
1137.849609	69466.609375
1136.725586	69209.546875
1135.601563	69594.773438
1134.477539	69210.218750
1133.353516	69247.296875
1132.229492	68806.757813
1131.104492	68532.750000
1129.979492	68165.945313
1128.854492	68699.953125
1127.729492	68300.859375
1126.603516	68197.695313
1125.478516	68114.007813
1124.352539	68252.640625
1123.226563	67966.117188
1122.099609	67632.226563
1120.973633	67902.460938
1119.846680	67469.484375
1118.719727	67103.515625
1117.592773	66858.414063
1116.465820	66863.437500
1115.337891	66555.960938
1114.209961	66418.820313
1113.082031	66322.656250
1111.954102	66086.523438
1110.826172	66240.265625
1109.697266	65864.265625
1108.568359	65888.820313
1107.439453	66132.914063
1106.310547	65711.937500
1105.180664	65794.593750
1104.051758	66081.585938
1102.921875	66022.179688
1101.791992	66403.640625
1100.661133	65931.382813
1099.531250	65915.023438
1098.400391	65761.117188
1097.269531	66024.140625
1096.138672	66089.406250
1095.006836	65896.875000
1093.875977	65528.304688
1092.744141	65355.265625
1091.612305	65321.835938
1090.480469	65449.406250
1089.347656	65177.750000
1088.215820	64833.230469
1087.083008	64857.835938
1085.950195	64579.992188
1084.816406	64733.300781
1083.683594	64669.992188
1082.549805	64846.804688
1081.416016	65029.980469
1080.282227	64688.054688
1079.148438	64794.050781
1078.013672	64385.878906
1076.878906	65106.585938
1075.744141	65028.277344
1074.609375	64603.152344
1073.474609	65173.570313
1072.338867	65185.175781
1071.203125	64856.539063
1070.067383	65002.976563
1068.931641	65530.109375
1067.794922	64589.921875
1066.659180	64541.738281
1065.522461	64611.152344
1064.385742	64575.796875
1063.248047	64788.359375
1062.111328	64603.414063
1060.973633	65033.789063
1059.835938	64853.132813
1058.698242	64249.703125
1057.559570	64808.007813
1056.421875	65195.324219
1055.283203	64276.269531
1054.144531	64746.761719
1053.005859	64711.421875
1051.866211	64560.898438
1050.726563	65020.406250
1049.587891	64808.035156
1048.447266	64489.140625
1047.307617	65477.042969
1046.167969	65207.156250
1045.027344	65448.761719
1043.886719	66173.890625
1042.746094	65788.992188
1041.604492	65670.437500
1040.463867	65032.382813
1039.322266	65363.199219
1038.180664	64919.121094
1037.038086	64964.667969
1035.896484	65118.707031
1034.753906	65613.054688
1033.611328	65203.277344
1032.468750	65208.324219
1031.326172	65232.496094
1030.182617	65118.484375
1029.040039	65061.898438
1027.896484	64848.078125
1026.751953	65441.679688
1025.608398	65111.035156
1024.463867	65630.031250
1023.319336	65250.625000
1022.174805	65329.933594
1021.030273	65239.398438
1019.885742	65350.503906
1018.740234	64861.082031
1017.594727	65534.402344
1016.449219	65787.500000
1015.303711	65728.757813
1014.157227	65485.566406
1013.010742	65168.265625
1011.864258	65294.062500
1010.717773	65243.917969
1009.571289	65138.703125
1008.423828	65143.679688
1007.276367	65010.980469
1006.128906	65551.718750
1004.981445	65755.625000
1003.833008	65898.062500
1002.684570	66046.796875
1001.536133	66455.742188
1000.387695	66276.382813
999.239258	67364.125000
998.089844	67563.218750
996.941406	67576.171875
995.791992	67033.109375
994.641602	67331.492188
993.492188	67044.382813
992.341797	66998.242188
991.191406	67146.468750
990.041016	67125.664063
988.890625	66676.187500
987.739258	67079.859375
986.588867	66645.320313
985.437500	66968.640625
984.285156	66814.929688
983.133789	66471.398438
981.981445	66916.906250
980.829102	66856.085938
979.676758	66407.289063
978.524414	66835.687500
977.372070	66321.710938
976.218750	66435.953125
975.065430	66396.328125
973.912109	67220.460938
972.757813	66894.242188
971.604492	67100.945313
970.450195	67305.453125
969.295898	67551.992188
968.141602	67053.351563
966.986328	67459.773438
965.832031	67722.968750
964.676758	67058.375000
963.521484	67546.585938
962.365234	67912.648438
961.209961	67942.187500
960.053711	67610.156250
958.897461	68022.234375
957.741211	67471.773438
956.584961	68119.015625
955.427734	67572.937500
954.270508	68142.210938
953.113281	67911.281250
951.956055	67344.539063
950.797852	67712.031250
949.639648	67603.015625
948.481445	67494.031250
947.323242	67013.781250
946.165039	67171.320313
945.005859	66787.757813
943.847656	66966.234375
942.687500	66742.164063
941.528320	67008.601563
940.369141	66671.445313
939.208984	66866.562500
938.048828	66730.640625
936.888672	66915.195313
935.728516	66921.695313
934.567383	66285.476563
933.406250	66796.531250
932.245117	66524.703125
931.083984	67066.906250
929.922852	66935.281250
928.760742	67309.875000
927.598633	67023.507813
926.436523	67132.398438
925.274414	67536.007813
924.111328	67780.617188
922.948242	67935.273438
921.785156	67891.398438
920.622070	68004.195313
919.458984	67644.945313
918.294922	68739.164063
917.130859	68440.445313
915.966797	68843.187500
914.802734	68959.867188
913.637695	69015.984375
912.472656	69562.343750
911.307617	69134.414063
910.142578	70095.539063
908.977539	70107.609375
907.811523	70434.453125
906.645508	70264.984375
905.479492	70095.523438
904.313477	69926.054688
903.146484	69756.453125
901.980469	69586.984375
900.813477	69417.375000
899.646484	69247.773438
898.478516	69078.023438
897.311523	68908.414063
896.143555	68822.843750
894.975586	69134.664063
893.806641	69255.007813
892.638672	69219.320313
891.469727	69235.632813
890.300781	68992.070313
889.131836	68879.539063
887.962891	68696.398438
886.792969	69032.750000
885.623047	68963.890625
884.453125	69117.289063
883.283203	69314.242188
882.112305	69149.851563
880.942383	69346.718750
879.771484	69699.156250
878.600586	69509.882813
877.428711	69482.492188
876.257813	70120.960938
875.085938	70437.734375
873.914063	70497.265625
872.741211	70347.390625
871.569336	70183.054688
870.396484	70874.664063
869.223633	70472.015625
868.050781	70222.804688
866.877930	70160.093750
865.704102	70907.093750
864.530273	71219.023438
863.356445	71272.070313
862.182617	72097.093750
861.007813	72296.875000
859.833984	72248.312500
858.659180	72851.343750
857.484375	72672.398438
856.308594	72596.906250
855.133789	72345.703125
853.958008	72243.421875
852.782227	71651.382813
851.605469	71326.101563
850.429688	71405.851563
849.252930	71248.031250
848.076172	71022.125000
846.899414	71636.625000
845.722656	71937.125000
844.544922	71564.664063
843.367188	71621.554688
842.189453	72043.601563
841.011719	72498.500000
839.833008	72373.687500
838.655273	73354.156250
837.476563	73736.382813
836.296875	74225.656250
835.118164	74679.703125
833.938477	74579.312500
832.758789	73838.257813
831.579102	73760.710938
830.399414	72824.445313
829.219727	72341.492188
828.039063	71500.523438
826.858398	70643.390625
825.677734	70119.945313
824.496094	69652.242188
823.315430	69373.953125
822.133789	68925.062500
820.952148	68211.078125
819.769531	68161.414063
818.587891	68331.703125
817.405273	68238.867188
816.222656	67786.476563
815.040039	67471.898438
813.856445	67615.468750
812.673828	67719.968750
811.490234	67695.078125
810.305664	67475.164063
809.122070	67353.851563
807.938477	67655.312500
806.753906	67767.898438
805.569336	68030.187500
804.383789	67892.445313
803.199219	68125.898438
802.013672	67348.523438
800.828125	67336.007813
799.642578	67137.000000
798.457031	67106.078125
797.270508	66794.500000
796.083984	66233.148438
794.897461	66177.835938
793.710938	65487.804688
792.523438	65318.000000
791.336914	65062.292969
790.149414	64710.500000
788.961914	65183.371094
787.773438	65171.250000
786.585938	64529.199219
785.397461	64455.851563
784.208984	64137.195313
783.019531	64454.367188
781.831055	63810.871094
780.641602	64234.230469
779.452148	63903.582031
778.262695	63462.753906
777.072266	63673.542969
775.882813	63967.968750
774.692383	62959.847656
773.501953	63548.203125
772.310547	63338.429688
771.120117	63051.203125
769.928711	63482.128906
768.737305	63549.855469
767.544922	63713.394531
766.353516	63622.023438
765.161133	63767.136719
763.968750	63547.386719
762.776367	64578.824219
761.583984	64860.164063
760.390625	64813.460938
759.197266	65375.683594
758.003906	65275.957031
756.810547	65400.195313
755.616211	65015.542969
754.421875	65550.843750
753.227539	65400.277344
752.033203	65799.007813
750.838867	65329.132813
749.643555	64979.406250
748.448242	64520.019531
747.252930	64030.312500
746.057617	64093.574219
744.861328	63805.285156
743.665039	63234.710938
742.468750	63570.261719
741.272461	63288.312500
740.075195	62636.929688
738.878906	62775.476563
737.681641	62420.757813
736.484375	62356.355469
735.286133	62068.796875
734.087891	62448.730469
732.890625	62652.070313
731.691406	62656.609375
730.493164	62131.988281
729.294922	61771.753906
728.095703	62370.253906
726.896484	61935.128906
725.696289	62474.617188
724.497070	61774.285156
723.296875	61906.546875
722.096680	61307.812500
720.896484	61966.445313
719.696289	61726.167969
718.495117	61856.304688
717.293945	62312.128906
716.092773	61501.464844
714.891602	61732.683594
713.689453	61654.429688
712.487305	61847.117188
711.285156	62138.777344
710.083008	61955.390625
708.880859	62523.738281
707.677734	62449.437500
706.474609	62247.906250
705.271484	62488.718750
704.068359	62462.914063
702.864258	62927.664063
701.660156	62550.589844
700.456055	62607.519531
699.251953	62349.675781
698.046875	62618.421875
696.841797	62405.039063
695.636719	62510.332031
694.431641	62496.636719
693.226563	62831.660156
692.020508	62817.902344
690.814453	62975.417969
689.608398	62522.453125
688.402344	62438.257813
687.195313	62734.699219
685.988281	62032.359375
684.781250	62310.644531
683.574219	62443.910156
682.366211	62667.675781
681.158203	62533.230469
679.950195	62875.570313
678.742188	62586.269531
677.534180	62731.406250
676.325195	62884.531250
675.116211	62842.617188
673.907227	62959.480469
672.697266	62543.832031
671.488281	63062.488281
670.278320	63394.152344
669.068359	63215.613281
667.858398	62994.972656
666.647461	62395.007813
665.436523	62341.183594
664.225586	61970.316406
663.014648	61790.191406
661.802734	61830.777344
660.591797	62467.000000
659.379883	61486.800781
658.167969	61964.464844
656.955078	61197.191406
655.743164	61586.542969
654.530273	61775.378906
653.317383	61807.886719
652.103516	61297.582031
650.890625	62257.339844
649.676758	61951.359375
648.462891	61871.691406
647.249023	62402.488281
646.034180	63303.277344
644.819336	63179.378906
643.604492	63985.667969
642.389648	63991.675781
641.174805	63855.714844
639.958984	63891.726563
638.743164	64105.621094
637.527344	63388.160156
636.311523	63392.261719
635.094727	62749.113281
633.877930	62781.292969
632.661133	61904.851563
631.444336	61991.078125
630.226563	61254.839844
629.008789	61474.867188
627.791016	60928.562500
626.573242	61112.656250
625.355469	60578.585938
624.136719	60371.781250
622.917969	60755.257813
621.699219	60797.687500
620.480469	60744.425781
619.260742	60996.082031
618.041016	60544.308594
616.821289	60819.808594
615.601563	60543.500000
614.380859	60832.828125
613.160156	60688.019531
611.939453	60718.429688
610.718750	61029.449219
609.497070	60986.156250
608.276367	60541.007813
607.054688	60595.281250
605.832031	59959.453125
604.610352	60296.152344
603.387695	60358.386719
602.165039	60434.507813
600.942383	59972.062500
599.719727	60173.390625
598.496094	60122.359375
597.272461	60015.738281
596.048828	59917.093750
594.825195	59737.082031
593.600586	59833.050781
592.375977	59869.441406
591.151367	59276.812500
589.926758	60215.941406
588.701172	59889.253906
587.476563	60042.597656
586.250977	59950.019531
585.024414	59706.816406
583.798828	59689.648438
582.572266	59763.640625
581.345703	59623.625000
580.119141	60121.500000
578.892578	60276.558594
577.665039	59970.187500
576.437500	60245.976563
575.209961	59898.152344
573.982422	60353.937500
572.753906	60158.574219
571.525391	60263.976563
570.296875	59876.839844
569.068359	60019.824219
567.838867	60142.980469
566.610352	60256.203125
565.380859	60260.679688
564.150391	59889.703125
562.920898	59834.968750
561.690430	59987.660156
560.459961	60286.433594
559.229492	60081.582031
557.999023	60459.187500
556.767578	59922.777344
555.536133	60464.058594
554.304688	59866.675781
553.073242	60376.195313
551.840820	60114.343750
550.608398	59826.953125
549.375977	60071.992188
548.143555	59944.378906
546.910156	60106.527344
545.676758	59925.746094
544.443359	60208.003906
543.209961	59572.261719
541.975586	60403.921875
540.742188	60183.832031
539.507813	60324.074219
538.272461	60094.234375
537.038086	59988.457031
535.802734	60238.828125
534.567383	59977.652344
533.332031	59814.910156
532.096680	59992.410156
530.860352	60254.378906
529.624023	60296.093750
528.387695	60685.644531
527.151367	60898.203125
525.914063	60578.289063
524.676758	60580.617188
523.439453	60490.644531
522.202148	60357.503906
520.963867	60088.964844
519.725586	60040.339844
518.487305	59575.722656
517.249023	59729.289063
516.009766	59606.214844
514.771484	59969.558594
513.532227	59856.281250
512.291992	59870.476563
511.052734	59445.601563
509.812500	59804.769531
508.572266	59419.250000
507.332031	59733.226563
506.090820	59861.015625
504.850586	59755.722656
503.609375	60128.187500
502.368164	59523.714844
501.125977	59451.804688
499.884766	59980.648438
498.642578	60137.574219
497.400391	60249.449219
496.157227	60462.972656
494.915039	59992.062500
493.671875	60232.917969
492.428711	60280.179688
491.184570	60454.441406
489.941406	60482.097656
488.697266	60324.164063
487.453125	60543.230469
486.208984	59940.125000
484.963867	60508.644531
483.718750	60356.667969
482.473633	60550.183594
481.228516	60646.058594
479.982422	60858.945313
478.737305	60671.898438
477.491211	61327.371094
476.244141	61165.648438
474.998047	61573.203125
473.750977	61458.265625
472.503906	61501.207031
471.256836	61345.406250
470.009766	60965.652344
468.761719	61688.347656
467.513672	61754.570313
466.265625	61678.644531
465.017578	61659.195313
463.768555	61785.703125
462.519531	61810.984375
461.270508	61754.546875
460.021484	62509.179688
458.771484	62841.546875
457.521484	62512.750000
456.271484	62751.679688
455.021484	62914.718750
453.770508	63258.402344
452.519531	62978.332031
451.268555	63292.730469
450.017578	64251.761719
448.765625	64249.308594
447.514648	64433.214844
446.262695	65372.066406
445.009766	65375.214844
443.757813	65764.453125
442.504883	66328.125000
441.251953	66005.250000
439.999023	65475.019531
438.745117	65020.589844
437.492188	64271.703125
436.238281	63348.679688
434.983398	63065.414063
433.729492	62528.472656
432.474609	62096.324219
431.219727	61997.414063
429.964844	61865.625000
428.709961	61290.589844
427.454102	61488.000000
426.198242	60648.148438
424.942383	61306.050781
423.685547	60936.585938
422.429688	61033.335938
421.172852	60863.210938
419.916016	60401.234375
418.658203	60714.500000
417.401367	60789.949219
416.143555	60521.453125
414.885742	60992.910156
413.626953	60108.359375
412.369141	60683.988281
411.110352	60805.691406
409.851563	60664.832031
408.591797	60377.343750
407.333008	61164.722656
406.073242	60693.972656
404.813477	60798.187500
403.553711	60372.035156
402.292969	60690.281250
401.032227	60726.957031
