#Wave		#Intensity
2001.182617	36795.375000
2000.212891	36880.593750
1999.243164	36415.546875
1998.273438	36679.800781
1997.303711	36811.179688
1996.333008	36631.925781
1995.363281	36685.632813
1994.392578	36771.871094
1993.421875	36460.031250
1992.451172	36446.156250
1991.479492	36757.617188
1990.508789	36676.132813
1989.537109	36594.679688
1988.566406	36813.398438
1987.594727	36676.925781
1986.622070	37233.105469
1985.650391	36691.613281
1984.677734	36870.167969
1983.706055	36363.914063
1982.733398	36732.355469
1981.760742	37153.128906
1980.788086	36604.625000
1979.814453	36832.976563
1978.841797	36918.921875
1977.868164	37102.203125
1976.894531	36673.890625
1975.920898	37189.058594
1974.947266	36783.335938
1973.972656	36741.980469
1972.999023	37152.101563
1972.024414	36539.605469
1971.049805	37385.960938
1970.075195	37037.890625
1969.099609	37303.097656
1968.125000	37012.480469
1967.149414	37053.347656
1966.173828	37163.957031
1965.198242	37316.867188
1964.222656	37367.621094
1963.247070	36962.699219
1962.270508	37344.593750
1961.294922	37166.320313
1960.318359	37184.703125
1959.341797	36804.972656
1958.364258	37129.406250
1957.387695	37195.042969
1956.410156	36997.046875
1955.433594	37172.082031
1954.456055	37834.312500
1953.478516	37678.558594
1952.500000	37483.093750
1951.522461	37302.609375
1950.543945	37231.492188
1949.565430	37567.742188
1948.586914	37245.777344
1947.608398	37725.917969
1946.629883	37826.062500
1945.650391	37695.335938
1944.671875	37433.128906
1943.692383	37483.644531
1942.712891	37491.964844
1941.733398	37659.027344
1940.752930	36915.902344
1939.773438	37489.632813
1938.792969	37716.097656
1937.812500	37652.488281
1936.832031	37350.992188
1935.851563	37443.558594
1934.870117	37617.843750
1933.888672	37502.273438
1932.908203	37958.800781
1931.926758	38011.574219
1930.945313	37831.625000
1929.962891	37735.894531
1928.981445	37833.222656
1927.999023	37831.542969
1927.016602	37476.101563
1926.034180	37971.636719
1925.051758	38194.968750
1924.069336	37797.617188
1923.085938	38196.417969
1922.102539	37905.480469
1921.119141	37713.496094
1920.135742	37845.250000
1919.152344	38305.515625
1918.168945	37925.843750
1917.184570	37872.273438
1916.200195	38184.144531
1915.215820	38416.910156
1914.231445	38010.324219
1913.247070	38144.324219
1912.261719	37977.257813
1911.276367	38084.078125
1910.291992	38171.125000
1909.306641	38028.796875
1908.320313	38068.976563
1907.334961	38237.328125
1906.348633	37801.753906
1905.363281	38379.167969
1904.376953	38330.546875
1903.390625	38193.261719
1902.403320	38149.617188
1901.416992	38364.558594
1900.429688	37981.117188
1899.443359	38070.460938
1898.456055	38524.039063
1897.467773	38495.132813
1896.480469	38102.093750
1895.493164	38097.867188
1894.504883	38290.402344
1893.516602	38094.332031
1892.528320	38601.511719
1891.540039	38729.941406
1890.550781	38673.988281
1889.562500	38391.968750
1888.573242	38198.500000
1887.583984	38315.140625
1886.594727	38431.785156
1885.605469	38548.425781
1884.615234	38665.183594
1883.625000	38682.945313
1882.635742	38663.878906
1881.645508	38821.503906
1880.654297	38772.976563
1879.664063	38798.058594
1878.673828	38234.488281
1877.682617	38257.199219
1876.691406	38910.015625
1875.700195	38510.960938
1874.708984	38756.640625
1873.716797	38916.468750
1872.725586	38887.578125
1871.733398	38706.820313
1870.741211	38753.902344
1869.749023	39217.261719
1868.755859	38559.105469
1867.763672	38794.675781
1866.770508	39252.878906
1865.777344	39179.910156
1864.784180	38896.554688
1863.791016	38980.226563
1862.797852	39210.617188
1861.803711	39174.378906
1860.809570	39304.406250
1859.815430	39189.941406
1858.821289	39219.710938
1857.827148	39225.035156
1856.832031	39135.066406
1855.837891	39587.425781
1854.842773	39262.960938
1853.847656	39644.320313
1852.852539	39312.628906
1851.856445	39615.730469
1850.861328	39252.429688
1849.865234	39445.621094
1848.869141	39638.742188
1847.873047	39351.250000
1846.876953	39683.332031
1845.879883	39449.574219
1844.883789	39252.464844
1843.886719	39584.386719
1842.889648	39674.910156
1841.892578	39572.894531
1840.895508	39604.910156
1839.897461	39354.351563
1838.899414	39895.406250
1837.901367	39837.250000
1836.903320	39857.015625
1835.905273	39886.515625
1834.907227	39920.867188
1833.908203	40193.671875
1832.909180	40137.937500
1831.910156	39909.515625
1830.911133	40279.457031
1829.912109	40089.992188
1828.912109	40326.050781
1827.913086	40248.460938
1826.913086	40479.542969
1825.913086	40535.593750
1824.913086	40159.171875
1823.912109	40443.585938
1822.912109	39778.304688
1821.911133	40133.097656
1820.910156	40424.644531
1819.909180	40575.300781
1818.908203	40417.683594
1817.906250	40245.562500
1816.904297	40973.562500
1815.903320	40825.656250
1814.900391	40602.621094
1813.898438	40539.695313
1812.896484	40770.136719
1811.893555	40518.136719
1810.891602	40896.332031
1809.888672	40719.507813
1808.885742	40823.773438
1807.881836	41024.886719
1806.878906	40964.375000
1805.875000	41167.808594
1804.871094	41218.656250
1803.867188	41327.570313
1802.863281	41112.156250
1801.859375	41107.328125
1800.854492	41257.328125
1799.849609	41042.035156
1798.844727	41083.167969
1797.839844	41225.832031
1796.834961	41402.292969
1795.830078	41501.339844
1794.824219	41361.105469
1793.818359	41440.792969
1792.812500	41534.945313
1791.806641	41230.527344
1790.799805	41563.761719
1789.793945	41628.863281
1788.787109	41983.632813
1787.780273	42022.085938
1786.773438	41623.722656
1785.766602	41572.945313
1784.758789	42098.750000
1783.751953	41891.125000
1782.744141	41975.371094
1781.736328	41779.894531
1780.728516	41755.644531
1779.719727	42321.917969
1778.711914	42131.296875
1777.703125	42278.062500
1776.694336	42077.878906
1775.685547	42345.023438
1774.676758	42544.648438
1773.666992	42253.023438
1772.657227	42286.488281
1771.648438	42182.746094
1770.638672	42538.667969
1769.627930	42372.355469
1768.618164	42526.046875
1767.607422	42963.492188
1766.597656	42563.929688
1765.586914	42950.718750
1764.576172	42822.933594
1763.564453	43423.445313
1762.553711	43302.832031
1761.541992	43521.027344
1760.530273	43321.160156
1759.518555	43630.539063
1758.506836	43608.417969
1757.495117	43655.933594
1756.482422	43753.839844
1755.469727	43760.507813
1754.457031	44623.843750
1753.444336	44090.523438
1752.431641	43744.500000
1751.417969	43595.261719
1750.405273	44314.132813
1749.391602	44109.703125
1748.377930	43982.046875
1747.364258	43832.867188
1746.349609	44445.746094
1745.335938	44090.488281
1744.321289	44779.757813
1743.306641	44963.433594
1742.291992	45065.632813
1741.276367	44885.281250
1740.261719	45020.964844
1739.246094	44821.539063
1738.230469	45352.003906
1737.214844	45698.062500
1736.199219	45448.382813
1735.182617	45813.429688
1734.166992	45838.800781
1733.150391	45737.449219
1732.133789	46386.695313
1731.117188	46674.835938
1730.099609	46958.089844
1729.083008	47160.019531
1728.065430	47507.578125
1727.047852	47544.542969
1726.030273	47533.738281
1725.012695	48069.644531
1723.994141	48364.277344
1722.976563	48544.250000
1721.958008	49132.179688
1720.939453	48672.585938
1719.920898	49276.976563
1718.901367	49039.308594
1717.882813	49190.378906
1716.863281	49482.050781
1715.843750	49723.558594
1714.824219	50062.691406
1713.803711	49334.242188
1712.784180	49975.871094
1711.763672	49959.871094
1710.743164	50139.156250
1709.722656	49944.550781
1708.702148	49707.164063
1707.681641	49960.179688
1706.660156	49908.488281
1705.638672	50406.445313
1704.617188	50200.062500
1703.595703	50153.109375
1702.574219	50638.863281
1701.551758	50549.105469
1700.529297	50459.351563
1699.507813	50369.679688
1698.484375	50279.839844
1697.461914	50190.082031
1696.439453	49893.742188
1695.416016	50381.296875
1694.392578	49581.585938
1693.369141	49857.707031
1692.345703	50352.128906
1691.322266	50027.527344
1690.297852	50365.117188
1689.273438	49627.796875
1688.249023	50627.171875
1687.224609	50350.183594
1686.200195	50471.675781
1685.174805	50797.023438
1684.150391	50911.277344
1683.125000	51115.550781
1682.099609	50492.742188
1681.073242	50865.230469
1680.047852	51168.890625
1679.021484	51481.910156
1677.995117	51598.277344
1676.968750	51584.386719
1675.942383	51736.195313
1674.916016	51956.585938
1673.888672	51507.230469
1672.862305	51495.722656
1671.834961	51503.140625
1670.806641	52333.585938
1669.779297	51964.871094
1668.751953	51482.804688
1667.723633	51667.496094
1666.695313	51956.105469
1665.666992	51764.933594
1664.638672	51843.152344
1663.609375	52726.820313
1662.581055	52490.734375
1661.551758	52394.046875
1660.522461	52391.820313
1659.493164	52495.816406
1658.462891	52996.250000
1657.433594	52977.398438
1656.403320	52892.492188
1655.373047	53116.613281
1654.342773	53177.921875
1653.312500	52972.769531
1652.281250	53055.296875
1651.250977	53293.363281
1650.219727	53109.500000
1649.188477	52734.843750
1648.156250	53264.953125
1647.125000	53434.496094
1646.092773	53253.082031
1645.060547	53610.925781
1644.028320	53380.109375
1642.996094	53662.480469
1641.963867	53518.800781
1640.930664	53699.867188
1639.898438	54803.035156
1638.865234	54706.265625
1637.832031	54336.738281
1636.797852	54705.621094
1635.764648	54540.738281
1634.730469	55088.078125
1633.696289	54481.390625
1632.662109	54904.011719
1631.627930	55678.851563
1630.592773	55650.160156
1629.558594	56239.070313
1628.523438	56109.324219
1627.488281	56587.609375
1626.453125	57084.500000
1625.416992	57452.148438
1624.381836	57495.886719
1623.345703	58273.835938
1622.309570	59112.484375
1621.273438	59798.410156
1620.237305	60427.824219
1619.200195	61340.648438
1618.163086	62780.472656
1617.125977	63106.726563
1616.088867	65166.578125
1615.051758	67089.835938
1614.014648	68286.375000
1612.976563	69430.968750
1611.938477	70525.984375
1610.900391	70733.460938
1609.862305	70124.070313
1608.823242	70822.921875
1607.785156	69341.093750
1606.746094	67979.078125
1605.707031	67040.843750
1604.667969	66236.226563
1603.628906	64964.324219
1602.588867	63398.355469
1601.548828	62127.406250
1600.508789	61948.101563
1599.468750	60853.070313
1598.428711	60526.898438
1597.387695	60343.292969
1596.347656	59480.285156
1595.306641	59112.503906
1594.265625	59064.621094
1593.224609	58533.679688
1592.182617	58511.582031
1591.140625	58186.214844
1590.099609	57725.679688
1589.057617	57974.242188
1588.014648	57686.445313
1586.972656	57263.539063
1585.929688	57071.527344
1584.887695	56949.492188
1583.844727	56508.296875
1582.800781	56745.148438
1581.757813	56681.457031
1580.714844	56680.664063
1579.670898	56807.921875
1578.626953	56902.542969
1577.583008	56952.906250
1576.538086	57340.671875
1575.494141	57467.714844
1574.449219	57480.722656
1573.404297	58182.160156
1572.359375	57843.898438
1571.314453	58182.324219
1570.269531	58037.117188
1569.223633	58033.730469
1568.177734	57802.621094
1567.131836	57553.003906
1566.085938	57491.625000
1565.040039	56698.687500
1563.993164	56804.667969
1562.946289	56125.894531
1561.899414	56445.488281
1560.852539	55750.769531
1559.805664	56376.605469
1558.757813	56150.781250
1557.709961	55502.871094
1556.662109	55539.339844
1555.614258	56394.316406
1554.566406	55593.691406
1553.517578	55871.183594
1552.469727	55838.027344
1551.420898	55550.003906
1550.372070	55530.812500
1549.322266	55601.960938
1548.273438	55152.015625
1547.223633	55128.269531
1546.173828	55088.324219
1545.124023	55134.031250
1544.074219	55668.015625
1543.024414	55644.183594
1541.973633	55007.316406
1540.922852	55318.988281
1539.872070	54795.714844
1538.821289	55181.292969
1537.770508	55793.281250
1536.718750	55344.160156
1535.666992	55047.714844
1534.615234	55183.433594
1533.563477	54713.867188
1532.511719	54916.570313
1531.458984	54509.562500
1530.407227	55049.312500
1529.354492	55101.796875
1528.300781	54851.910156
1527.248047	55269.003906
1526.195313	55044.550781
1525.141602	54580.273438
1524.087891	54695.050781
1523.034180	55423.167969
1521.980469	54366.542969
1520.925781	54919.265625
1519.871094	54466.937500
1518.817383	54348.886719
1517.762695	55099.441406
1516.707031	54608.156250
1515.652344	54939.234375
1514.596680	54560.980469
1513.541016	54148.328125
1512.485352	53949.886719
1511.429688	54299.246094
1510.374023	54535.734375
1509.317383	54707.714844
1508.260742	54727.824219
1507.204102	54241.976563
1506.147461	54701.328125
1505.090820	54799.585938
1504.033203	54555.324219
1502.975586	54490.398438
1501.917969	54878.140625
1500.860352	54569.664063
1499.802734	54987.109375
1498.744141	54476.632813
1497.686523	54542.644531
1496.627930	54581.082031
1495.569336	55172.652344
1494.509766	55002.128906
1493.451172	54847.730469
1492.391602	54431.863281
1491.332031	54837.250000
1490.272461	55098.015625
1489.212891	54641.054688
1488.152344	54906.343750
1487.092773	54763.570313
1486.032227	54778.960938
1484.971680	55002.835938
1483.910156	54846.371094
1482.849609	55358.726563
1481.788086	55548.023438
1480.726563	55755.562500
1479.665039	55482.324219
1478.603516	55820.250000
1477.541992	55668.371094
1476.479492	55781.929688
1475.416992	56165.363281
1474.354492	56029.503906
1473.291992	56193.238281
1472.229492	56356.906250
1471.166016	55983.359375
1470.102539	56453.246094
1469.039063	56625.914063
1467.975586	56455.835938
1466.912109	56100.800781
1465.847656	56819.246094
1464.783203	56717.718750
1463.718750	56721.238281
1462.654297	57201.796875
1461.589844	56949.628906
1460.524414	57404.871094
1459.458984	57207.503906
1458.393555	57261.097656
1457.328125	57034.175781
1456.262695	57691.992188
1455.196289	57155.039063
1454.130859	57500.335938
1453.064453	57697.386719
1451.998047	58165.492188
1450.930664	57202.843750
1449.864258	57527.375000
1448.796875	57494.273438
1447.729492	57866.445313
1446.662109	57717.195313
1445.594727	58250.781250
1444.526367	58401.878906
1443.458008	58662.128906
1442.390625	59111.085938
1441.321289	58848.019531
1440.252930	59110.312500
1439.184570	59595.316406
1438.115234	60152.882813
1437.045898	60212.527344
1435.976563	59592.734375
1434.907227	60511.218750
1433.836914	60834.250000
1432.767578	60852.839844
1431.697266	61466.328125
1430.626953	61711.816406
1429.555664	61525.945313
1428.485352	62243.367188
1427.414063	61991.660156
1426.342773	62645.214844
1425.271484	62779.117188
1424.200195	63255.402344
1423.128906	63221.351563
1422.056641	63366.406250
1420.984375	63905.785156
1419.912109	63935.082031
1418.839844	63683.410156
1417.767578	63835.062500
1416.694336	63954.945313
1415.621094	63662.636719
1414.547852	63757.597656
1413.474609	63275.273438
1412.400391	62686.746094
1411.327148	62505.750000
1410.252930	62365.539063
1409.178711	62019.527344
1408.104492	62110.140625
1407.029297	62013.035156
1405.955078	62130.742188
1404.879883	61920.640625
1403.804688	62255.281250
1402.729492	62268.929688
1401.653320	62820.269531
1400.578125	62827.027344
1399.501953	63226.750000
1398.425781	63253.750000
1397.349609	63650.988281
1396.272461	63725.296875
1395.196289	63907.906250
1394.119141	63878.347656
1393.041992	64760.210938
1391.964844	64660.578125
1390.886719	65316.460938
1389.809570	65284.402344
1388.731445	65863.281250
1387.653320	66714.679688
1386.575195	66269.976563
1385.497070	66918.203125
1384.417969	66320.437500
1383.338867	66484.171875
1382.259766	66544.250000
1381.180664	66401.664063
1380.101563	66524.765625
1379.021484	66501.523438
1377.941406	66262.257813
1376.861328	66662.039063
1375.781250	65959.429688
1374.701172	66093.726563
1373.620117	65512.898438
1372.539063	65775.375000
1371.458008	64680.046875
1370.376953	65261.710938
1369.295898	64796.035156
1368.213867	64550.699219
1367.132813	64646.878906
1366.050781	65513.339844
1364.967773	65440.894531
1363.885742	65007.027344
1362.802734	64941.429688
1361.720703	65430.171875
1360.637695	66428.085938
1359.554688	66247.843750
1358.470703	66114.765625
1357.387695	66217.210938
1356.303711	65929.468750
1355.219727	65348.160156
1354.135742	65000.156250
1353.050781	64589.531250
1351.966797	64179.050781
1350.881836	63753.035156
1349.796875	63123.347656
1348.711914	63387.394531
1347.626953	62966.222656
1346.541016	62433.269531
1345.455078	62507.046875
1344.369141	62486.808594
1343.283203	62280.875000
1342.197266	62262.917969
1341.110352	62414.941406
1340.023438	62110.734375
1338.936523	62153.171875
1337.849609	61768.648438
1336.762695	61728.437500
1335.674805	62233.457031
1334.586914	61869.222656
1333.499023	61947.394531
1332.411133	62530.261719
1331.323242	62534.593750
1330.234375	62614.824219
1329.145508	62509.761719
1328.056641	62790.816406
1326.967773	63439.925781
1325.878906	63914.792969
1324.789063	63309.933594
1323.699219	64315.402344
1322.609375	64526.742188
1321.519531	65197.234375
1320.429688	65863.023438
1319.338867	66363.664063
1318.248047	67133.710938
1317.157227	67927.984375
1316.066406	69049.375000
1314.975586	69560.195313
1313.883789	69930.562500
1312.791992	71164.500000
1311.700195	70900.132813
1310.608398	70849.476563
1309.516602	70084.664063
1308.423828	70189.882813
1307.331055	69803.546875
1306.238281	68716.898438
1305.145508	68173.117188
1304.051758	67467.257813
1302.958984	66926.109375
1301.865234	66954.000000
1300.771484	66801.914063
1299.677734	67058.593750
1298.583008	67417.328125
1297.489258	67633.828125
1296.394531	68669.437500
1295.299805	68694.734375
1294.204102	68782.164063
1293.109375	68585.546875
1292.013672	68854.867188
1290.917969	68582.890625
1289.822266	67721.132813
1288.726563	68283.125000
1287.630859	67461.625000
1286.534180	67509.250000
1285.437500	66575.164063
1284.340820	67141.375000
1283.244141	66792.507813
1282.146484	66169.125000
1281.048828	65590.250000
1279.951172	65903.820313
1278.853516	65464.660156
1277.755859	65127.460938
1276.658203	64916.507813
1275.559570	64550.761719
1274.460938	64266.988281
1273.362305	64175.722656
1272.262695	63973.929688
1271.164063	63933.593750
1270.064453	63968.421875
1268.964844	63384.441406
1267.865234	63317.707031
1266.765625	63052.171875
1265.665039	63290.332031
1264.564453	62532.425781
1263.463867	62651.355469
1262.363281	62626.750000
1261.262695	62434.402344
1260.161133	61922.140625
1259.059570	62217.593750
1257.958008	62113.660156
1256.856445	62183.996094
1255.754883	62038.199219
1254.652344	62060.019531
1253.549805	61574.816406
1252.447266	61409.367188
1251.344727	61089.722656
1250.242188	60882.554688
1249.138672	61303.250000
1248.035156	61173.195313
1246.931641	60825.191406
1245.828125	60957.253906
1244.724609	61487.679688
1243.620117	61150.800781
1242.515625	61058.285156
1241.411133	60715.003906
1240.306641	61535.421875
1239.201172	61341.718750
1238.096680	61623.015625
1236.991211	61618.421875
1235.885742	61651.191406
1234.779297	61778.441406
1233.673828	61406.886719
1232.567383	61654.953125
1231.460938	61327.472656
1230.354492	61257.042969
1229.248047	61390.820313
1228.140625	61048.195313
1227.033203	61256.582031
1225.926758	61427.585938
1224.818359	61585.363281
1223.710938	61150.808594
1222.602539	61231.808594
1221.495117	61512.324219
1220.386719	61299.441406
1219.278320	60792.910156
1218.168945	60672.277344
1217.060547	60810.250000
1215.951172	60336.937500
1214.841797	60407.011719
1213.731445	60374.128906
1212.622070	60851.437500
1211.511719	60693.695313
1210.402344	61179.519531
1209.291992	60883.898438
1208.180664	61319.179688
1207.070313	61185.523438
1205.958984	61285.941406
1204.847656	61268.234375
1203.736328	61567.558594
1202.625000	61551.988281
1201.512695	61838.035156
1200.401367	62095.570313
1199.289063	62029.648438
1198.176758	62228.070313
1197.063477	62734.363281
1195.951172	62797.191406
1194.837891	62482.289063
1193.724609	62988.253906
1192.611328	62867.664063
1191.498047	63022.058594
1190.383789	62977.859375
1189.269531	62709.007813
1188.155273	62409.718750
1187.041016	62086.546875
1185.926758	61863.777344
1184.811523	61791.480469
1183.696289	61538.328125
1182.581055	61618.636719
1181.465820	61204.394531
1180.350586	61750.835938
1179.234375	60938.203125
1178.118164	61231.921875
1177.001953	61037.910156
1175.885742	61355.441406
1174.768555	60787.179688
1173.652344	60349.667969
1172.535156	61424.148438
1171.417969	60745.257813
1170.299805	60227.527344
1169.182617	60107.847656
1168.064453	60327.304688
1166.946289	60185.910156
1165.828125	60101.062500
1164.709961	60105.312500
1163.590820	60226.859375
1162.471680	60298.406250
1161.352539	59909.597656
1160.233398	60165.703125
1159.114258	60502.019531
1157.994141	59963.640625
1156.874023	59980.910156
1155.753906	60000.343750
1154.633789	60188.945313
1153.513672	60199.656250
1152.392578	60056.414063
1151.271484	59976.089844
1150.150391	59941.308594
1149.029297	59863.195313
1147.907227	60567.253906
1146.786133	60187.949219
1145.664063	59986.375000
1144.541992	60261.261719
1143.418945	61059.984375
1142.296875	60704.664063
1141.173828	61033.371094
1140.050781	61050.359375
1138.927734	61454.597656
1137.803711	61612.093750
1136.680664	61592.199219
1135.556641	61725.824219
1134.432617	61699.421875
1133.308594	61441.750000
1132.183594	61590.449219
1131.059570	61365.296875
1129.934570	60883.148438
1128.809570	60934.667969
1127.684570	60906.261719
1126.558594	60990.136719
1125.432617	61466.863281
1124.307617	61129.730469
1123.180664	60667.562500
1122.054688	61036.199219
1120.928711	61027.207031
1119.801758	60481.187500
1118.674805	60808.679688
1117.547852	60747.980469
1116.419922	60409.238281
1115.292969	60243.027344
1114.165039	59658.851563
1113.037109	60686.351563
1111.909180	60414.625000
1110.780273	60196.839844
1109.652344	60224.593750
1108.523438	59875.593750
1107.394531	60415.660156
1106.264648	59814.964844
1105.135742	60326.867188
1104.005859	60496.539063
1102.875977	60074.667969
1101.746094	60190.558594
1100.616211	60136.546875
1099.485352	60119.097656
1098.355469	60563.742188
1097.224609	60155.125000
1096.092773	60206.425781
1094.961914	60133.117188
1093.830078	60107.082031
1092.699219	59707.425781
1091.567383	59709.382813
1090.434570	59299.207031
1089.302734	59247.578125
1088.169922	60101.457031
1087.037109	58741.050781
1085.904297	58955.515625
1084.771484	59075.539063
1083.637695	59326.312500
1082.504883	59188.968750
1081.371094	59205.996094
1080.236328	59085.863281
1079.102539	59563.554688
1077.968750	59130.636719
1076.833984	59252.597656
1075.699219	59520.128906
1074.564453	59532.777344
1073.428711	59641.750000
1072.292969	59647.945313
1071.158203	59395.218750
1070.022461	59961.988281
1068.885742	59454.742188
1067.750000	59557.199219
1066.613281	59505.660156
1065.476563	59856.054688
1064.339844	59291.480469
1063.203125	59472.953125
1062.065430	59519.746094
1060.927734	59607.105469
1059.790039	59529.968750
1058.652344	59905.585938
1057.514648	60120.925781
1056.375977	59343.535156
1055.237305	59151.234375
1054.098633	59481.824219
1052.959961	59345.035156
1051.820313	59534.671875
1050.681641	59440.578125
1049.541992	59062.906250
1048.402344	59685.277344
1047.261719	59192.585938
1046.122070	59324.519531
1044.981445	59893.222656
1043.840820	59628.714844
1042.700195	59568.785156
1041.558594	59719.707031
1040.417969	59791.792969
1039.276367	59919.199219
1038.134766	59431.421875
1036.992188	59488.617188
1035.850586	59328.757813
1034.708008	59045.574219
1033.565430	59519.675781
1032.422852	59413.054688
1031.280273	59210.796875
1030.136719	59195.675781
1028.994141	59922.308594
1027.850586	59375.812500
1026.706055	59233.187500
1025.562500	59347.640625
1024.417969	59279.398438
1023.273438	59264.265625
1022.128906	59111.140625
1020.984375	59197.921875
1019.839844	58724.402344
1018.694336	59174.054688
1017.548828	59572.628906
1016.403320	59211.707031
1015.256836	59302.621094
1014.111328	59359.574219
1012.964844	59261.750000
1011.818359	59473.410156
1010.671875	58879.722656
1009.524414	59184.593750
1008.377930	59491.468750
1007.230469	59427.585938
1006.083008	59395.484375
1004.934570	59918.093750
1003.787109	59953.648438
1002.638672	59932.046875
1001.490234	59821.574219
1000.341797	59967.128906
999.193359	60603.363281
998.043945	60752.945313
996.894531	60786.179688
995.745117	60660.839844
994.595703	60896.980469
993.446289	60165.152344
992.295898	60301.988281
991.145508	60381.734375
989.995117	60605.070313
988.844727	60224.367188
987.693359	60325.187500
986.541992	60550.515625
985.390625	60431.734375
984.239258	60450.156250
983.087891	60546.628906
981.935547	60115.714844
980.783203	60439.984375
979.630859	60369.816406
978.478516	60390.328125
977.325195	60343.378906
976.172852	60288.011719
975.019531	60605.613281
973.865234	60347.976563
972.711914	60088.320313
971.557617	60068.832031
970.404297	60217.789063
969.250000	60463.523438
968.094727	60479.750000
966.940430	60601.183594
965.785156	60066.132813
964.629883	60227.562500
963.474609	60651.828125
962.319336	60487.148438
961.163086	60131.207031
960.007813	60843.226563
958.851563	60977.027344
957.694336	61150.703125
956.538086	60532.281250
955.380859	60764.781250
954.223633	60772.484375
953.066406	60345.539063
951.909180	60544.347656
950.751953	60096.609375
949.593750	60444.378906
948.435547	60246.500000
947.277344	59987.855469
946.118164	59997.765625
944.959961	59550.527344
943.800781	59803.718750
942.641602	60035.851563
941.482422	59590.941406
940.322266	59619.761719
939.162109	59575.246094
938.001953	59985.285156
936.841797	59576.304688
935.681641	60176.730469
934.520508	59816.011719
933.360352	60321.976563
932.198242	59618.148438
931.037109	59826.843750
929.875977	59953.875000
928.713867	59951.175781
927.551758	60421.085938
926.389648	59774.324219
925.227539	60465.675781
924.064453	60515.125000
922.901367	60303.343750
921.738281	60733.046875
920.575195	60807.476563
919.412109	60537.277344
918.248047	60392.457031
917.083984	60613.042969
915.919922	61073.589844
914.755859	61304.394531
913.590820	61516.335938
912.426758	61555.039063
911.261719	61785.621094
910.095703	61828.429688
908.930664	62300.734375
907.764648	62568.562500
906.598633	62465.296875
905.432617	62259.953125
904.266602	62381.789063
903.099609	62174.449219
901.933594	62296.253906
900.766602	61420.570313
899.599609	61842.261719
898.431641	61189.707031
897.264648	61461.437500
896.096680	61129.628906
894.928711	61020.546875
893.759766	60934.382813
892.591797	60906.480469
891.422852	61288.195313
890.253906	61493.066406
889.084961	60908.027344
887.916016	60585.046875
886.746094	61047.562500
885.576172	60886.699219
884.406250	61679.218750
883.236328	60914.011719
882.065430	61247.390625
880.895508	61198.691406
879.724609	61195.667969
878.552734	61618.027344
877.381836	61967.613281
876.209961	61902.214844
875.039063	61830.613281
873.866211	62215.207031
872.694336	61940.406250
871.522461	62028.429688
870.349609	62139.214844
869.176758	62260.316406
868.003906	62907.546875
866.830078	62262.117188
865.657227	63134.820313
864.483398	63400.566406
863.309570	63811.113281
862.135742	63718.578125
860.960938	63508.125000
859.786133	64638.390625
858.611328	64268.562500
857.436523	64165.660156
856.261719	64269.566406
855.085938	63602.304688
853.910156	64012.183594
852.734375	63272.882813
851.558594	63440.917969
850.382813	63617.148438
849.206055	63343.046875
848.029297	63556.398438
846.852539	63635.464844
845.674805	63669.082031
844.498047	64055.613281
843.320313	64829.945313
842.142578	64465.125000
840.963867	65404.109375
839.786133	66204.562500
838.607422	67153.171875
837.428711	67701.484375
836.250000	67695.109375
835.070313	68418.273438
833.891602	68104.757813
832.711914	68065.343750
831.532227	67152.625000
830.352539	66376.156250
829.171875	66061.179688
827.991211	64885.832031
826.810547	64565.066406
825.629883	64013.941406
824.449219	63619.382813
823.267578	63157.085938
822.085938	62263.062500
820.904297	62666.871094
819.722656	62443.480469
818.540039	62072.175781
817.357422	62171.628906
816.174805	62205.289063
814.992188	61891.750000
813.809570	61506.433594
812.625977	61199.292969
811.442383	61561.613281
810.258789	61443.433594
809.074219	61826.093750
807.890625	61773.566406
806.706055	61872.882813
805.521484	62132.164063
804.336914	61728.894531
803.151367	62096.777344
801.966797	61921.226563
800.781250	61587.902344
799.594727	60885.808594
798.409180	60528.210938
797.222656	60754.601563
796.037109	60096.058594
794.849609	60893.804688
793.663086	60212.953125
792.476563	59970.433594
791.289063	59742.332031
790.101563	60375.828125
788.914063	59855.152344
787.725586	60247.007813
786.538086	59642.687500
785.349609	59224.675781
784.161133	59387.441406
782.971680	59384.570313
781.783203	59301.996094
780.593750	58692.273438
779.404297	58981.667969
778.214844	59021.757813
777.024414	58708.535156
775.834961	58883.417969
774.644531	59107.222656
773.454102	58700.261719
772.262695	58881.160156
771.072266	58902.847656
769.880859	58849.046875
768.689453	58927.832031
767.497070	59224.773438
766.305664	58693.867188
765.113281	59388.218750
763.920898	59915.195313
762.728516	60030.371094
761.536133	59526.183594
760.342773	60199.484375
759.149414	60579.277344
757.956055	60688.125000
756.762695	61193.898438
755.568359	60862.949219
754.374023	60841.437500
753.179688	61064.082031
751.985352	61479.890625
750.791016	60382.371094
749.595703	60704.609375
748.400391	60363.941406
747.205078	60356.757813
746.009766	60243.894531
744.813477	59696.234375
743.617188	59646.511719
742.420898	59348.996094
741.224609	58935.835938
740.027344	59200.988281
738.830078	58749.433594
737.632813	59136.292969
736.435547	58729.558594
735.238281	58615.132813
734.040039	58395.265625
732.841797	58345.839844
731.643555	58509.347656
730.445313	58184.191406
729.246094	58061.851563
728.046875	58318.539063
726.847656	58293.476563
725.648438	58003.027344
724.449219	58000.308594
723.249023	58100.871094
722.048828	57792.390625
720.848633	57666.218750
719.647461	58317.304688
718.447266	57917.886719
717.246094	58206.515625
716.044922	58401.984375
714.842773	58536.703125
713.641602	57846.347656
712.439453	58316.718750
711.237305	58322.003906
710.035156	58028.179688
708.832031	58924.589844
707.629883	58770.152344
706.426758	58977.320313
705.223633	58841.101563
704.019531	59280.367188
702.815430	59172.398438
701.612305	58814.191406
700.408203	59307.695313
699.203125	59004.066406
697.999023	58874.027344
696.793945	58943.699219
695.588867	59071.820313
694.383789	59540.609375
693.177734	59390.398438
691.971680	59937.542969
690.766602	59612.011719
689.559570	59516.257813
688.353516	59662.238281
687.146484	59880.660156
685.939453	59283.558594
684.732422	59316.761719
683.525391	58806.527344
682.318359	59119.511719
681.110352	59241.246094
679.902344	58695.093750
678.693359	59203.000000
677.485352	58713.359375
676.276367	59219.054688
675.067383	58544.664063
673.858398	59178.816406
672.649414	59368.675781
671.439453	58925.648438
670.229492	58934.710938
669.019531	59395.601563
667.809570	58625.542969
666.598633	58889.589844
665.387695	58330.644531
664.176758	58600.664063
662.965820	58621.792969
661.754883	58807.402344
660.542969	58369.214844
659.331055	58612.941406
658.119141	58642.066406
656.906250	58274.300781
655.694336	58379.621094
654.481445	58567.054688
653.268555	58582.128906
652.054688	58573.160156
650.841797	58640.289063
649.627930	58653.332031
648.414063	58848.531250
647.200195	59533.996094
645.985352	59592.882813
644.770508	60291.953125
643.555664	60678.710938
642.340820	60795.335938
641.125977	61047.882813
639.910156	60512.664063
638.694336	60475.339844
637.478516	60468.000000
636.262695	60418.707031
635.045898	59822.062500
633.829102	59776.894531
632.612305	59248.488281
631.395508	59151.531250
630.177734	58998.710938
628.959961	58592.480469
627.742188	58639.363281
626.524414	58552.554688
625.306641	58370.031250
624.087891	58422.902344
622.869141	58715.019531
621.650391	58919.308594
620.430664	58300.339844
619.211914	58438.863281
617.992188	57770.398438
616.772461	58197.808594
615.551758	58710.699219
614.332031	58554.320313
613.111328	58196.910156
611.890625	58482.578125
610.669922	58280.546875
609.448242	58472.566406
608.226563	58992.769531
607.004883	58743.007813
605.783203	58029.972656
604.561523	58293.464844
603.338867	58417.703125
602.116211	58649.214844
600.893555	58204.992188
599.669922	58802.031250
598.447266	58580.425781
597.223633	58625.031250
596.000000	58866.203125
594.775391	58126.531250
593.551758	58500.691406
592.327148	58279.335938
591.102539	58446.964844
589.877930	58685.949219
588.652344	58797.894531
587.426758	58864.187500
586.201172	58950.277344
584.975586	58750.875000
583.750000	58737.851563
582.523438	59561.066406
581.296875	59339.859375
580.070313	59651.585938
578.842773	59911.699219
577.616211	59631.136719
576.388672	59663.480469
575.161133	59778.941406
573.932617	60503.886719
572.705078	59766.351563
571.476563	59978.656250
570.248047	60262.078125
569.018555	59655.511719
567.790039	59790.597656
566.560547	59542.140625
565.331055	59479.550781
564.101563	58808.367188
562.871094	59433.460938
561.641602	59139.812500
560.411133	58719.878906
559.179688	58298.125000
557.949219	58528.000000
556.717773	58441.980469
555.486328	58140.886719
554.254883	58118.105469
553.023438	57878.332031
551.791016	58210.617188
550.558594	58475.726563
549.326172	58190.671875
548.093750	57767.734375
546.860352	57652.402344
545.627930	57838.589844
544.393555	57677.968750
543.160156	57964.531250
541.926758	58079.648438
540.692383	58058.863281
539.458008	57805.789063
538.223633	57698.457031
536.988281	57630.515625
535.752930	57885.265625
534.517578	57671.746094
533.282227	57635.312500
532.046875	58251.718750
530.810547	58468.796875
529.574219	58100.031250
528.337891	58458.546875
527.101563	58746.191406
525.864258	59033.722656
524.626953	58596.371094
523.389648	58618.707031
522.152344	58699.933594
520.914063	58337.480469
519.675781	58489.382813
518.437500	58639.257813
517.199219	58033.734375
515.959961	58446.484375
514.721680	58500.179688
513.482422	58302.863281
512.242188	58097.781250
511.002930	58439.632813
509.762695	58215.000000
508.522461	58172.664063
507.282227	58004.968750
506.041016	58254.515625
504.800781	58437.386719
503.559570	58257.980469
502.318359	58215.664063
501.076172	58247.730469
499.833984	57984.312500
498.592773	57922.500000
497.349609	58253.863281
496.107422	58508.832031
494.864258	58374.601563
493.622070	58347.937500
492.377930	58000.738281
491.134766	58269.230469
489.891602	58080.429688
488.647461	58282.378906
487.403320	58328.007813
486.158203	58609.894531
484.914063	58792.097656
483.668945	58476.484375
482.423828	58512.273438
481.178711	58969.507813
479.932617	58907.640625
478.686523	59267.097656
477.440430	59095.988281
476.194336	59392.875000
474.948242	59430.382813
473.701172	59606.250000
472.454102	59602.777344
471.207031	59310.957031
469.958984	59648.417969
468.711914	59549.500000
467.463867	59569.390625
466.215820	60011.726563
464.966797	59733.718750
463.718750	59761.339844
462.469727	60117.769531
461.220703	59964.390625
459.970703	60285.632813
458.721680	61106.507813
457.471680	60651.664063
456.221680	60955.089844
454.970703	60931.894531
453.720703	61592.679688
452.469727	62000.656250
451.218750	61685.910156
449.966797	62317.039063
448.715820	62903.265625
447.463867	63205.843750
446.211914	63915.894531
444.959961	64105.609375
443.707031	64704.625000
442.454102	64756.382813
441.201172	65186.312500
439.948242	64504.988281
438.695313	63509.851563
437.441406	63191.566406
436.187500	62197.046875
434.933594	61613.675781
433.678711	60457.097656
432.424805	60753.605469
431.169922	60391.589844
429.914063	59458.546875
428.659180	59373.722656
427.403320	59399.242188
426.147461	59355.089844
424.891602	59103.941406
423.635742	59054.050781
422.378906	59213.042969
421.122070	58751.300781
419.865234	59064.937500
418.608398	58647.843750
417.350586	59059.933594
416.092773	59228.421875
414.834961	58960.269531
413.577148	58769.468750
412.318359	58611.566406
411.059570	58704.703125
409.800781	59060.320313
408.541992	59091.574219
407.282227	59103.519531
406.022461	59125.101563
404.762695	59177.531250
403.502930	59023.601563
402.242188	59052.890625
400.981445	58920.238281
