#Wave		#Intensity
2001.182617	32862.679688
2000.212891	32915.316406
1999.243164	32666.484375
1998.273438	32730.939453
1997.303711	32404.560547
1996.333008	32459.017578
1995.363281	32653.695313
1994.392578	32760.667969
1993.421875	32599.734375
1992.451172	32781.765625
1991.479492	32388.144531
1990.508789	32780.328125
1989.537109	32907.191406
1988.566406	33026.507813
1987.594727	32885.695313
1986.622070	32337.367188
1985.650391	32884.207031
1984.677734	32923.453125
1983.706055	32847.726563
1982.733398	32931.937500
1981.760742	32786.285156
1980.788086	33250.136719
1979.814453	33271.796875
1978.841797	32968.855469
1977.868164	32920.652344
1976.894531	32662.802734
1975.920898	33053.890625
1974.947266	33197.820313
1973.972656	33266.859375
1972.999023	33278.503906
1972.024414	33115.578125
1971.049805	33062.414063
1970.075195	33089.042969
1969.099609	32637.095703
1968.125000	33020.156250
1967.149414	32989.464844
1966.173828	33053.449219
1965.198242	33055.144531
1964.222656	33599.730469
1963.247070	33354.820313
1962.270508	33154.808594
1961.294922	33027.046875
1960.318359	33436.867188
1959.341797	33162.296875
1958.364258	33268.445313
1957.387695	33066.128906
1956.410156	33259.292969
1955.433594	33255.960938
1954.456055	33250.140625
1953.478516	33338.773438
1952.500000	33365.250000
1951.522461	33520.914063
1950.543945	33485.238281
1949.565430	33188.769531
1948.586914	33160.613281
1947.608398	33273.988281
1946.629883	33799.425781
1945.650391	33716.562500
1944.671875	33661.027344
1943.692383	33238.292969
1942.712891	33502.878906
1941.733398	33675.597656
1940.752930	33768.898438
1939.773438	33569.585938
1938.792969	33489.335938
1937.812500	34056.031250
1936.832031	33916.246094
1935.851563	33704.656250
1934.870117	34033.187500
1933.888672	33583.867188
1932.908203	33741.429688
1931.926758	34037.593750
1930.945313	33672.671875
1929.962891	33807.855469
1928.981445	34061.777344
1927.999023	33961.789063
1927.016602	33819.777344
1926.034180	33935.046875
1925.051758	33845.019531
1924.069336	34212.441406
1923.085938	33894.960938
1922.102539	33950.812500
1921.119141	34149.976563
1920.135742	33968.566406
1919.152344	33886.031250
1918.168945	34102.382813
1917.184570	34432.257813
1916.200195	33999.074219
1915.215820	34143.699219
1914.231445	34135.246094
1913.247070	34065.097656
1912.261719	34345.335938
1911.276367	34504.597656
1910.291992	34343.160156
1909.306641	34443.175781
1908.320313	34193.042969
1907.334961	34357.140625
1906.348633	34442.312500
1905.363281	34303.199219
1904.376953	34595.308594
1903.390625	34650.828125
1902.403320	34423.078125
1901.416992	34316.074219
1900.429688	34243.574219
1899.443359	34601.902344
1898.456055	34571.214844
1897.467773	34629.132813
1896.480469	34468.050781
1895.493164	34757.199219
1894.504883	34544.496094
1893.516602	34698.277344
1892.528320	34465.988281
1891.540039	34624.640625
1890.550781	34638.226563
1889.562500	34826.281250
1888.573242	34903.703125
1887.583984	34880.382813
1886.594727	34810.398438
1885.605469	34622.566406
1884.615234	34965.132813
1883.625000	34890.257813
1882.635742	34940.582031
1881.645508	35366.339844
1880.654297	34773.738281
1879.664063	35307.312500
1878.673828	34862.085938
1877.682617	35275.292969
1876.691406	34692.921875
1875.700195	34907.453125
1874.708984	35474.839844
1873.716797	35238.257813
1872.725586	35256.570313
1871.733398	35216.078125
1870.741211	35146.210938
1869.749023	35211.050781
1868.755859	35341.972656
1867.763672	35450.812500
1866.770508	35302.628906
1865.777344	35788.281250
1864.784180	35388.085938
1863.791016	35447.914063
1862.797852	35527.285156
1861.803711	35401.214844
1860.809570	35514.792969
1859.815430	35430.328125
1858.821289	35656.281250
1857.827148	35102.640625
1856.832031	35834.312500
1855.837891	35974.578125
1854.842773	35521.304688
1853.847656	35461.335938
1852.852539	35828.644531
1851.856445	35505.007813
1850.861328	35713.539063
1849.865234	35382.710938
1848.869141	35993.746094
1847.873047	35702.011719
1846.876953	35976.207031
1845.879883	35830.882813
1844.883789	35934.289063
1843.886719	35613.515625
1842.889648	36294.535156
1841.892578	35764.246094
1840.895508	36177.000000
1839.897461	36090.250000
1838.899414	35854.964844
1837.901367	36272.351563
1836.903320	36207.535156
1835.905273	36461.621094
1834.907227	36265.367188
1833.908203	36244.382813
1832.909180	36162.582031
1831.910156	36290.003906
1830.911133	36242.269531
1829.912109	36539.839844
1828.912109	36428.863281
1827.913086	36580.449219
1826.913086	36722.257813
1825.913086	36786.257813
1824.913086	36459.085938
1823.912109	36530.394531
1822.912109	36502.101563
1821.911133	36563.664063
1820.910156	36525.660156
1819.909180	36708.558594
1818.908203	36512.792969
1817.906250	36746.582031
1816.904297	36293.710938
1815.903320	36988.324219
1814.900391	36841.144531
1813.898438	36764.332031
1812.896484	36648.757813
1811.893555	37078.605469
1810.891602	36681.886719
1809.888672	36917.730469
1808.885742	36770.707031
1807.881836	36933.781250
1806.878906	37573.886719
1805.875000	36911.074219
1804.871094	37132.132813
1803.867188	36905.324219
1802.863281	36971.417969
1801.859375	37400.433594
1800.854492	36980.152344
1799.849609	37350.960938
1798.844727	37189.601563
1797.839844	37458.687500
1796.834961	37621.304688
1795.830078	37322.203125
1794.824219	37397.785156
1793.818359	37338.031250
1792.812500	37435.324219
1791.806641	37631.613281
1790.799805	37412.457031
1789.793945	37654.550781
1788.787109	37698.605469
1787.780273	37708.847656
1786.773438	37921.796875
1785.766602	37726.906250
1784.758789	37944.601563
1783.751953	37759.417969
1782.744141	37923.972656
1781.736328	38276.535156
1780.728516	38011.835938
1779.719727	38429.332031
1778.711914	38063.480469
1777.703125	38191.687500
1776.694336	38240.351563
1775.685547	38544.304688
1774.676758	38217.214844
1773.666992	38181.574219
1772.657227	38408.339844
1771.648438	38673.531250
1770.638672	38214.292969
1769.627930	39030.398438
1768.618164	38477.437500
1767.607422	38578.871094
1766.597656	38658.628906
1765.586914	38957.148438
1764.576172	38428.621094
1763.564453	38844.839844
1762.553711	38842.785156
1761.541992	39047.351563
1760.530273	39321.507813
1759.518555	39408.226563
1758.506836	39298.003906
1757.495117	39555.160156
1756.482422	39396.937500
1755.469727	39481.179688
1754.457031	39985.324219
1753.444336	39541.597656
1752.431641	39817.667969
1751.417969	40175.179688
1750.405273	40040.984375
1749.391602	39985.957031
1748.377930	39959.707031
1747.364258	39868.757813
1746.349609	40173.222656
1745.335938	39629.453125
1744.321289	40585.398438
1743.306641	40281.242188
1742.291992	40247.777344
1741.276367	40465.707031
1740.261719	41200.597656
1739.246094	40640.460938
1738.230469	40803.164063
1737.214844	41154.812500
1736.199219	41726.398438
1735.182617	40853.257813
1734.166992	41699.679688
1733.150391	41830.964844
1732.133789	42031.519531
1731.117188	41978.671875
1730.099609	42171.960938
1729.083008	42632.750000
1728.065430	42477.109375
1727.047852	42698.859375
1726.030273	43008.878906
1725.012695	43612.429688
1723.994141	43547.421875
1722.976563	43446.636719
1721.958008	43928.093750
1720.939453	44254.312500
1719.920898	44158.222656
1718.901367	44303.031250
1717.882813	44595.621094
1716.863281	44993.000000
1715.843750	44341.468750
1714.824219	44993.746094
1713.803711	44704.613281
1712.784180	45065.953125
1711.763672	44710.214844
1710.743164	45397.679688
1709.722656	44830.093750
1708.702148	44705.500000
1707.681641	44916.554688
1706.660156	45141.816406
1705.638672	45058.226563
1704.617188	44974.632813
1703.595703	44891.042969
1702.574219	44807.453125
1701.551758	44723.781250
1700.529297	44606.500000
1699.507813	44629.492188
1698.484375	44657.226563
1697.461914	44463.984375
1696.439453	44427.593750
1695.416016	44403.089844
1694.392578	44931.902344
1693.369141	44413.460938
1692.345703	44441.195313
1691.322266	44416.699219
1690.297852	44425.433594
1689.273438	44740.226563
1688.249023	44914.953125
1687.224609	44648.460938
1686.200195	44967.789063
1685.174805	44940.843750
1684.150391	45146.214844
1683.125000	44382.148438
1682.099609	44988.019531
1681.073242	45086.652344
1680.047852	44986.265625
1679.021484	45243.546875
1677.995117	45469.945313
1676.968750	46011.152344
1675.942383	45600.570313
1674.916016	45855.183594
1673.888672	45622.246094
1672.862305	46023.445313
1671.834961	45610.781250
1670.806641	45817.902344
1669.779297	46020.218750
1668.751953	45919.843750
1667.723633	46041.699219
1666.695313	46532.195313
1665.666992	46419.960938
1664.638672	46768.457031
1663.609375	46594.804688
1662.581055	46544.019531
1661.551758	46365.742188
1660.522461	46796.625000
1659.493164	46993.667969
1658.462891	46756.398438
1657.433594	46623.035156
1656.403320	47098.382813
1655.373047	47307.019531
1654.342773	47296.253906
1653.312500	47221.828125
1652.281250	47095.562500
1651.250977	47655.250000
1650.219727	46920.929688
1649.188477	47324.933594
1648.156250	47879.562500
1647.125000	47362.285156
1646.092773	47497.519531
1645.060547	47785.750000
1644.028320	47793.734375
1642.996094	48171.250000
1641.963867	48016.781250
1640.930664	47805.894531
1639.898438	48284.355469
1638.865234	47927.664063
1637.832031	48801.003906
1636.797852	48449.046875
1635.764648	48541.515625
1634.730469	48596.343750
1633.696289	49111.738281
1632.662109	49112.402344
1631.627930	49134.203125
1630.592773	49101.976563
1629.558594	49950.363281
1628.523438	49514.164063
1627.488281	50322.269531
1626.453125	50775.679688
1625.416992	50588.300781
1624.381836	50877.265625
1623.345703	51590.710938
1622.309570	52285.136719
1621.273438	52883.171875
1620.237305	53764.679688
1619.200195	55013.894531
1618.163086	55993.140625
1617.125977	57302.437500
1616.088867	58369.949219
1615.051758	59802.500000
1614.014648	61197.066406
1612.976563	62310.140625
1611.938477	62940.531250
1610.900391	63374.070313
1609.862305	63252.789063
1608.823242	63213.441406
1607.785156	62446.519531
1606.746094	61027.253906
1605.707031	60272.679688
1604.667969	58587.742188
1603.628906	57623.460938
1602.588867	56598.746094
1601.548828	55649.179688
1600.508789	54489.652344
1599.468750	54208.945313
1598.428711	53648.042969
1597.387695	53381.593750
1596.347656	52400.746094
1595.306641	51782.097656
1594.265625	51922.250000
1593.224609	51457.925781
1592.182617	51124.425781
1591.140625	50823.707031
1590.099609	50616.386719
1589.057617	50010.363281
1588.014648	50127.355469
1586.972656	50232.644531
1585.929688	49631.671875
1584.887695	50238.039063
1583.844727	49837.648438
1582.800781	49675.007813
1581.757813	49640.531250
1580.714844	49622.359375
1579.670898	49774.164063
1578.626953	49800.203125
1577.583008	49863.468750
1576.538086	49698.664063
1575.494141	49740.980469
1574.449219	49678.605469
1573.404297	50095.359375
1572.359375	50242.222656
1571.314453	50086.785156
1570.269531	50321.925781
1569.223633	50113.066406
1568.177734	50501.480469
1567.131836	49760.625000
1566.085938	49538.035156
1565.040039	49893.824219
1563.993164	49724.695313
1562.946289	48961.281250
1561.899414	49379.648438
1560.852539	48895.062500
1559.805664	49132.296875
1558.757813	48835.843750
1557.709961	48901.347656
1556.662109	49189.468750
1555.614258	49043.878906
1554.566406	48872.835938
1553.517578	48838.609375
1552.469727	48396.511719
1551.420898	48478.234375
1550.372070	48376.906250
1549.322266	48815.304688
1548.273438	48716.265625
1547.223633	48763.128906
1546.173828	48559.957031
1545.124023	49048.917969
1544.074219	48866.589844
1543.024414	48628.792969
1541.973633	48499.808594
1540.922852	48727.058594
1539.872070	48512.535156
1538.821289	48207.910156
1537.770508	48599.218750
1536.718750	48336.289063
1535.666992	48450.125000
1534.615234	47789.906250
1533.563477	47746.710938
1532.511719	47597.285156
1531.458984	47872.812500
1530.407227	47695.707031
1529.354492	47737.960938
1528.300781	47715.578125
1527.248047	47845.496094
1526.195313	47691.585938
1525.141602	47768.406250
1524.087891	47460.035156
1523.034180	47640.632813
1521.980469	47634.414063
1520.925781	47418.433594
1519.871094	47582.800781
1518.817383	47256.296875
1517.762695	47591.117188
1516.707031	47794.519531
1515.652344	47730.691406
1514.596680	47653.070313
1513.541016	47522.523438
1512.485352	47196.367188
1511.429688	47556.144531
1510.374023	47296.824219
1509.317383	47500.007813
1508.260742	47719.222656
1507.204102	47597.988281
1506.147461	47759.617188
1505.090820	47387.835938
1504.033203	47657.472656
1502.975586	47462.789063
1501.917969	47968.972656
1500.860352	47875.382813
1499.802734	47359.199219
1498.744141	47814.601563
1497.686523	47810.628906
1496.627930	47680.394531
1495.569336	47798.089844
1494.509766	47332.859375
1493.451172	47319.789063
1492.391602	47533.828125
1491.332031	47477.144531
1490.272461	47438.824219
1489.212891	47329.441406
1488.152344	47878.000000
1487.092773	47704.402344
1486.032227	47943.335938
1484.971680	47966.816406
1483.910156	48052.136719
1482.849609	47807.625000
1481.788086	48167.722656
1480.726563	48170.535156
1479.665039	48042.867188
1478.603516	48162.417969
1477.541992	48066.828125
1476.479492	48232.082031
1475.416992	47795.683594
1474.354492	47727.652344
1473.291992	47931.746094
1472.229492	48334.660156
1471.166016	47896.265625
1470.102539	48257.902344
1469.039063	47652.871094
1467.975586	48208.605469
1466.912109	48010.371094
1465.847656	47773.386719
1464.783203	48559.410156
1463.718750	48411.437500
1462.654297	48464.378906
1461.589844	48656.503906
1460.524414	48766.417969
1459.458984	48303.691406
1458.393555	48707.859375
1457.328125	48525.800781
1456.262695	48902.417969
1455.196289	48640.597656
1454.130859	49112.781250
1453.064453	48880.640625
1451.998047	48739.714844
1450.930664	48961.039063
1449.864258	48622.000000
1448.796875	49633.445313
1447.729492	49435.558594
1446.662109	49244.570313
1445.594727	49192.480469
1444.526367	49527.253906
1443.458008	49441.000000
1442.390625	49841.570313
1441.321289	50035.031250
1440.252930	50176.117188
1439.184570	50437.648438
1438.115234	50628.617188
1437.045898	50751.335938
1435.976563	50578.613281
1434.907227	51750.894531
1433.836914	51759.765625
1432.767578	51546.066406
1431.697266	51854.691406
1430.626953	52446.984375
1429.555664	51908.683594
1428.485352	53020.445313
1427.414063	53335.382813
1426.342773	53260.003906
1425.271484	53323.007813
1424.200195	53751.105469
1423.128906	54020.324219
1422.056641	53992.476563
1420.984375	53953.300781
1419.912109	53905.070313
1418.839844	54038.117188
1417.767578	54128.070313
1416.694336	54328.972656
1415.621094	53431.503906
1414.547852	53435.476563
1413.474609	53602.433594
1412.400391	53106.179688
1411.327148	52874.859375
1410.252930	52329.132813
1409.178711	52138.750000
1408.104492	52208.523438
1407.029297	51846.371094
1405.955078	52033.734375
1404.879883	52148.691406
1403.804688	52570.972656
1402.729492	52310.691406
1401.653320	52570.121094
1400.578125	52777.503906
1399.501953	53088.699219
1398.425781	52435.605469
1397.349609	52983.792969
1396.272461	52816.246094
1395.196289	53332.566406
1394.119141	53573.421875
1393.041992	54337.574219
1391.964844	55087.914063
1390.886719	54931.406250
1389.809570	56042.128906
1388.731445	56018.507813
1387.653320	56596.695313
1386.575195	56489.593750
1385.497070	56157.218750
1384.417969	56356.601563
1383.338867	56049.140625
1382.259766	56178.660156
1381.180664	56175.289063
1380.101563	55521.347656
1379.021484	56094.273438
1377.941406	55958.144531
1376.861328	55723.066406
1375.781250	55389.097656
1374.701172	55678.238281
1373.620117	55546.769531
1372.539063	55125.324219
1371.458008	55371.640625
1370.376953	55094.207031
1369.295898	54882.035156
1368.213867	54616.019531
1367.132813	54655.589844
1366.050781	55052.226563
1364.967773	54721.199219
1363.885742	55227.683594
1362.802734	55841.726563
1361.720703	55389.542969
1360.637695	55570.273438
1359.554688	55851.890625
1358.470703	56086.300781
1357.387695	55347.335938
1356.303711	56083.996094
1355.219727	55206.304688
1354.135742	54705.476563
1353.050781	54061.406250
1351.966797	53755.890625
1350.881836	53293.671875
1349.796875	52968.246094
1348.711914	52365.253906
1347.626953	52078.167969
1346.541016	51829.238281
1345.455078	52061.601563
1344.369141	51627.031250
1343.283203	51928.695313
1342.197266	51624.042969
1341.110352	51599.062500
1340.023438	51759.691406
1338.936523	51712.335938
1337.849609	51644.875000
1336.762695	52011.011719
1335.674805	51780.398438
1334.586914	51972.113281
1333.499023	51993.996094
1332.411133	52111.902344
1331.323242	51839.003906
1330.234375	52847.652344
1329.145508	52467.574219
1328.056641	52384.445313
1326.967773	52972.964844
1325.878906	53244.480469
1324.789063	53558.277344
1323.699219	53889.796875
1322.609375	53920.187500
1321.519531	55259.148438
1320.429688	55215.726563
1319.338867	55789.597656
1318.248047	56993.804688
1317.157227	57593.878906
1316.066406	58792.863281
1314.975586	59399.066406
1313.883789	59936.031250
1312.791992	60446.085938
1311.700195	60967.082031
1310.608398	60704.601563
1309.516602	60662.472656
1308.423828	59617.132813
1307.331055	59188.230469
1306.238281	58101.281250
1305.145508	57352.656250
1304.051758	56644.312500
1302.958984	56445.156250
1301.865234	56108.300781
1300.771484	55682.703125
1299.677734	55854.765625
1298.583008	55662.550781
1297.489258	55725.746094
1296.394531	55875.500000
1295.299805	56433.605469
1294.204102	56061.656250
1293.109375	56599.550781
1292.013672	56165.589844
1290.917969	56028.992188
1289.822266	56311.570313
1288.726563	55775.894531
1287.630859	56235.753906
1286.534180	56456.074219
1285.437500	55617.066406
1284.340820	55589.265625
1283.244141	54910.210938
1282.146484	55050.867188
1281.048828	55175.972656
1279.951172	54661.183594
1278.853516	54188.640625
1277.755859	54225.300781
1276.658203	53792.832031
1275.559570	53683.523438
1274.460938	53483.566406
1273.362305	53416.371094
1272.262695	52995.410156
1271.164063	53058.757813
1270.064453	53265.757813
1268.964844	52774.324219
1267.865234	52294.117188
1266.765625	52304.519531
1265.665039	51961.507813
1264.564453	52053.671875
1263.463867	52247.367188
1262.363281	51931.039063
1261.262695	51658.964844
1260.161133	51859.242188
1259.059570	51732.898438
1257.958008	51599.976563
1256.856445	51756.035156
1255.754883	51334.281250
1254.652344	51291.894531
1253.549805	51271.566406
1252.447266	51096.964844
1251.344727	51230.925781
1250.242188	50580.507813
1249.138672	50844.472656
1248.035156	50877.089844
1246.931641	50843.632813
1245.828125	50532.789063
1244.724609	50598.457031
1243.620117	51005.218750
1242.515625	50982.757813
1241.411133	51259.496094
1240.306641	50759.683594
1239.201172	51364.039063
1238.096680	51337.121094
1236.991211	51349.785156
1235.885742	51819.621094
1234.779297	51783.835938
1233.673828	51532.742188
1232.567383	51365.214844
1231.460938	51022.031250
1230.354492	51318.007813
1229.248047	51069.363281
1228.140625	51521.078125
1227.033203	51294.433594
1225.926758	51032.757813
1224.818359	50760.203125
1223.710938	51018.597656
1222.602539	51173.816406
1221.495117	51153.554688
1220.386719	50868.015625
1219.278320	51209.488281
1218.168945	50875.824219
1217.060547	50912.589844
1215.951172	51028.210938
1214.841797	50576.472656
1213.731445	50803.796875
1212.622070	50869.007813
1211.511719	50916.675781
1210.402344	50913.984375
1209.291992	51423.378906
1208.180664	51074.882813
1207.070313	51398.113281
1205.958984	51371.265625
1204.847656	51849.585938
1203.736328	51800.796875
1202.625000	51620.863281
1201.512695	52315.246094
1200.401367	52288.246094
1199.289063	52464.441406
1198.176758	52463.632813
1197.063477	53115.851563
1195.951172	53165.144531
1194.837891	53343.226563
1193.724609	53366.261719
1192.611328	53607.527344
1191.498047	52838.417969
1190.383789	53114.593750
1189.269531	53072.207031
1188.155273	52755.042969
1187.041016	52359.496094
1185.926758	52182.097656
1184.811523	52046.175781
1183.696289	52169.632813
1182.581055	51822.406250
1181.465820	51756.328125
1180.350586	51925.503906
1179.234375	50923.019531
1178.118164	51482.019531
1177.001953	51625.023438
1175.885742	51138.964844
1174.768555	51210.164063
1173.652344	50870.125000
1172.535156	50849.980469
1171.417969	50612.351563
1170.299805	50522.671875
1169.182617	50413.453125
1168.064453	51002.039063
1166.946289	50342.917969
1165.828125	50233.789063
1164.709961	50218.113281
1163.590820	50556.500000
1162.471680	50464.757813
1161.352539	50440.359375
1160.233398	49947.039063
1159.114258	50343.828125
1157.994141	50566.855469
1156.874023	50284.242188
1155.753906	50463.808594
1154.633789	50062.019531
1153.513672	50415.042969
1152.392578	50236.726563
1151.271484	50424.832031
1150.150391	50547.843750
1149.029297	50586.296875
1147.907227	50951.890625
1146.786133	50403.210938
1145.664063	50898.644531
1144.541992	50911.011719
1143.418945	51267.609375
1142.296875	51598.097656
1141.173828	51740.179688
1140.050781	51644.179688
1138.927734	51652.062500
1137.803711	52038.468750
1136.680664	52349.042969
1135.556641	52084.339844
1134.432617	52388.300781
1133.308594	52091.261719
1132.183594	52440.484375
1131.059570	52366.089844
1129.934570	51751.648438
1128.809570	51405.257813
1127.684570	51868.796875
1126.558594	52330.003906
1125.432617	51977.214844
1124.307617	52284.988281
1123.180664	51748.906250
1122.054688	51717.878906
1120.928711	51831.386719
1119.801758	51511.347656
1118.674805	51523.496094
1117.547852	51466.652344
1116.419922	51153.312500
1115.292969	51406.894531
1114.165039	50973.011719
1113.037109	50961.539063
1111.909180	50614.050781
1110.780273	50647.871094
1109.652344	51146.761719
1108.523438	50883.382813
1107.394531	51158.195313
1106.264648	51002.507813
1105.135742	50541.343750
1104.005859	50869.839844
1102.875977	51056.261719
1101.746094	50838.332031
1100.616211	50796.785156
1099.485352	50886.378906
1098.355469	51134.980469
1097.224609	51175.050781
1096.092773	51210.804688
1094.961914	51298.097656
1093.830078	50702.398438
1092.699219	50590.050781
1091.567383	50574.351563
1090.434570	50363.328125
1089.302734	50087.992188
1088.169922	50636.710938
1087.037109	50391.457031
1085.904297	50401.539063
1084.771484	49768.253906
1083.637695	50091.484375
1082.504883	50766.171875
1081.371094	50714.007813
1080.236328	50402.566406
1079.102539	50438.332031
1077.968750	50521.207031
1076.833984	50158.562500
1075.699219	50590.503906
1074.564453	50489.175781
1073.428711	50595.519531
1072.292969	50836.660156
1071.158203	50495.671875
1070.022461	51115.417969
1068.885742	50922.093750
1067.750000	50788.722656
1066.613281	50535.656250
1065.476563	50267.714844
1064.339844	50602.636719
1063.203125	50672.433594
1062.065430	50682.378906
1060.927734	50547.046875
1059.790039	50678.753906
1058.652344	50120.636719
1057.514648	50888.632813
1056.375977	50339.214844
1055.237305	50519.945313
1054.098633	50557.628906
1052.959961	50584.628906
1051.820313	50458.031250
1050.681641	50676.984375
1049.541992	50642.101563
1048.402344	50871.597656
1047.261719	50964.585938
1046.122070	50722.933594
1044.981445	50598.566406
1043.840820	51307.238281
1042.700195	51184.933594
1041.558594	50986.003906
1040.417969	50829.730469
1039.276367	51299.398438
1038.134766	50647.183594
1036.992188	50754.937500
1035.850586	50571.148438
1034.708008	50366.156250
1033.565430	50784.421875
1032.422852	50275.367188
1031.280273	50595.687500
1030.136719	50577.898438
1028.994141	50628.121094
1027.850586	50835.574219
1026.706055	50654.148438
1025.562500	51061.187500
1024.417969	50741.738281
1023.273438	50685.703125
1022.128906	51096.753906
1020.984375	50720.152344
1019.839844	50895.472656
1018.694336	50591.187500
1017.548828	50889.503906
1016.403320	51009.539063
1015.256836	50775.378906
1014.111328	50543.417969
1012.964844	50981.429688
1011.818359	50510.007813
1010.671875	51055.937500
1009.524414	50872.816406
1008.377930	50795.679688
1007.230469	50640.207031
1006.083008	50741.011719
1004.934570	51100.070313
1003.787109	51069.511719
1002.638672	51024.144531
1001.490234	50925.890625
1000.341797	51756.425781
999.193359	51440.199219
998.043945	51887.546875
996.894531	51796.464844
995.745117	51705.382813
994.595703	51614.300781
993.446289	51523.218750
992.295898	51432.058594
991.145508	51285.285156
989.995117	51404.691406
988.844727	51646.527344
987.693359	51428.003906
986.541992	51536.753906
985.390625	51810.085938
984.239258	51564.210938
983.087891	51883.847656
981.935547	51722.425781
980.783203	51611.671875
979.630859	52093.480469
978.478516	51816.144531
977.325195	51966.804688
976.172852	51763.351563
975.019531	51991.917969
973.865234	51990.773438
972.711914	52202.359375
971.557617	52182.218750
970.404297	51917.839844
969.250000	51935.644531
968.094727	52119.714844
966.940430	52267.941406
965.785156	52205.714844
964.629883	51962.601563
963.474609	51841.558594
962.319336	52187.382813
961.163086	52348.062500
960.007813	52304.785156
958.851563	52681.847656
957.694336	52422.093750
956.538086	52212.847656
955.380859	52392.269531
954.223633	52680.824219
953.066406	52183.984375
951.909180	52371.699219
950.751953	51870.894531
949.593750	52092.171875
948.435547	52084.667969
947.277344	51772.984375
946.118164	51849.429688
944.959961	52152.320313
943.800781	51629.035156
942.641602	51747.382813
941.482422	51712.687500
940.322266	51937.839844
939.162109	51341.640625
938.001953	51512.312500
936.841797	51280.816406
935.681641	51411.644531
934.520508	51617.792969
933.360352	51656.410156
932.198242	51129.968750
931.037109	51886.339844
929.875977	51864.210938
928.713867	52134.910156
927.551758	51842.976563
926.389648	51615.964844
925.227539	52145.765625
924.064453	51749.480469
922.901367	52172.488281
921.738281	52133.605469
920.575195	51958.957031
919.412109	52565.468750
918.248047	52480.589844
917.083984	52237.074219
915.919922	52855.714844
914.755859	52695.691406
913.590820	53065.714844
912.426758	52678.312500
911.261719	53615.535156
910.095703	53670.277344
908.930664	54142.003906
907.764648	53948.554688
906.598633	54736.855469
905.432617	54203.687500
904.266602	54022.824219
903.099609	54002.425781
901.933594	54013.273438
900.766602	53607.644531
899.599609	53439.507813
898.431641	53385.917969
897.264648	53063.871094
896.096680	53124.808594
894.928711	52881.980469
893.759766	52832.679688
892.591797	53062.070313
891.422852	53095.921875
890.253906	52896.925781
889.084961	53117.855469
887.916016	52582.269531
886.746094	52464.500000
885.576172	52670.839844
884.406250	52563.480469
883.236328	52927.535156
882.065430	52566.871094
880.895508	52849.832031
879.724609	53130.609375
878.552734	53079.277344
877.381836	53405.546875
876.209961	53275.355469
875.039063	53645.015625
873.866211	54022.828125
872.694336	54392.207031
871.522461	53418.320313
870.349609	53941.023438
869.176758	53926.894531
868.003906	53668.320313
866.830078	54103.687500
865.657227	54081.246094
864.483398	54195.457031
863.309570	54949.265625
862.135742	55406.828125
860.960938	55500.031250
859.786133	55491.820313
858.611328	55589.101563
857.436523	55448.511719
856.261719	55452.714844
855.085938	55196.421875
853.910156	55115.917969
852.734375	54983.777344
851.558594	54399.179688
850.382813	55085.281250
849.206055	55263.027344
848.029297	54750.976563
846.852539	55339.585938
845.674805	55137.347656
844.498047	55376.859375
843.320313	55575.007813
842.142578	55853.546875
840.963867	56627.039063
839.786133	56911.460938
838.607422	57562.808594
837.428711	58067.539063
836.250000	58852.406250
835.070313	58497.328125
833.891602	58737.855469
832.711914	58805.242188
831.532227	58242.332031
830.352539	57181.273438
829.171875	56618.867188
827.991211	56029.906250
826.810547	55480.265625
825.629883	55568.746094
824.449219	54828.050781
823.267578	54299.500000
822.085938	54293.539063
820.904297	53952.398438
819.722656	53467.476563
818.540039	53584.992188
817.357422	53353.089844
816.174805	52971.277344
814.992188	53374.367188
813.809570	52918.742188
812.625977	52820.609375
811.442383	52630.117188
810.258789	52996.011719
809.074219	52914.335938
807.890625	52877.828125
806.706055	53017.781250
805.521484	53303.320313
804.336914	53492.359375
803.151367	53406.550781
801.966797	53829.210938
800.781250	53263.718750
799.594727	53093.964844
798.409180	52821.824219
797.222656	52572.316406
796.037109	52138.554688
794.849609	52089.953125
793.663086	51855.046875
792.476563	51736.910156
791.289063	51557.410156
790.101563	51601.031250
788.914063	51231.343750
787.725586	50927.253906
786.538086	50821.656250
785.349609	50787.667969
784.161133	50925.425781
782.971680	50911.863281
781.783203	50698.027344
780.593750	51087.042969
779.404297	50060.156250
778.214844	50598.250000
777.024414	50844.109375
775.834961	50379.328125
774.644531	50198.472656
773.454102	50301.390625
772.262695	50481.812500
771.072266	50272.468750
769.880859	49853.093750
768.689453	50429.156250
767.497070	50238.285156
766.305664	50661.152344
765.113281	50873.902344
763.920898	50837.937500
762.728516	50903.863281
761.536133	51071.625000
760.342773	51351.351563
759.149414	51606.531250
757.956055	51425.886719
756.762695	51524.203125
755.568359	51785.308594
754.374023	52349.523438
753.179688	52040.687500
751.985352	52022.855469
750.791016	51429.453125
749.595703	51539.843750
748.400391	51422.488281
747.205078	51203.539063
746.009766	51252.937500
744.813477	50906.082031
743.617188	50882.375000
742.420898	50759.144531
741.224609	50361.800781
740.027344	50366.625000
738.830078	50097.390625
737.632813	50256.511719
736.435547	50119.296875
735.238281	49671.710938
734.040039	49920.070313
732.841797	49618.707031
731.643555	49708.816406
730.445313	49450.175781
729.246094	50008.515625
728.046875	49257.437500
726.847656	49469.113281
725.648438	49239.062500
724.449219	49233.929688
723.249023	49354.351563
722.048828	49440.304688
720.848633	49362.250000
719.647461	49630.328125
718.447266	49341.804688
717.246094	49160.621094
716.044922	49199.996094
714.842773	49979.578125
713.641602	49685.132813
712.439453	49673.835938
711.237305	49876.804688
710.035156	49604.765625
708.832031	49795.542969
707.629883	49539.777344
706.426758	49704.234375
705.223633	49971.617188
704.019531	49843.160156
702.815430	50215.386719
701.612305	50008.210938
700.408203	49869.718750
699.203125	49662.679688
697.999023	49657.437500
696.793945	50095.894531
695.588867	50138.960938
694.383789	50044.917969
693.177734	50402.421875
691.971680	50288.207031
690.766602	50131.714844
689.559570	49765.769531
688.353516	49641.656250
687.146484	49960.628906
685.939453	49641.222656
684.732422	49648.046875
683.525391	49713.230469
682.318359	49424.226563
681.110352	49185.625000
679.902344	49616.957031
678.693359	49390.472656
677.485352	49278.683594
676.276367	49371.996094
675.067383	49730.601563
673.858398	49311.324219
672.649414	49726.062500
671.439453	49188.414063
670.229492	49229.425781
669.019531	49635.902344
667.809570	49208.996094
666.598633	49247.964844
665.387695	49630.121094
664.176758	49265.652344
662.965820	49507.218750
661.754883	49467.863281
660.542969	49350.304688
659.331055	49008.207031
658.119141	49602.472656
656.906250	49082.062500
655.694336	48876.476563
654.481445	49282.082031
653.268555	49220.769531
652.054688	49217.558594
650.841797	49558.785156
649.627930	49643.605469
648.414063	49710.375000
647.200195	50193.410156
645.985352	50862.355469
644.770508	50682.773438
643.555664	51103.335938
642.340820	50993.765625
641.125977	51736.039063
639.910156	51248.542969
638.694336	51117.011719
637.478516	50961.546875
636.262695	50694.250000
635.045898	50632.808594
633.829102	50551.414063
632.612305	50260.371094
631.395508	49939.488281
630.177734	49892.199219
628.959961	49260.156250
627.742188	49468.417969
626.524414	48936.441406
625.306641	48594.152344
624.087891	48904.125000
622.869141	48785.289063
621.650391	48281.738281
620.430664	49071.941406
619.211914	49020.886719
617.992188	48856.281250
616.772461	49193.734375
615.551758	49240.269531
614.332031	49235.011719
613.111328	48994.824219
611.890625	49128.949219
610.669922	48582.378906
609.448242	48977.191406
608.226563	48860.570313
607.004883	48710.171875
605.783203	48766.656250
604.561523	48932.472656
603.338867	48855.695313
602.116211	48820.683594
600.893555	48952.605469
599.669922	48699.031250
598.447266	49083.203125
597.223633	48817.781250
596.000000	48917.824219
594.775391	49383.132813
593.551758	48563.992188
592.327148	49035.136719
591.102539	48795.757813
589.877930	48901.652344
588.652344	48755.601563
587.426758	49438.539063
586.201172	49147.703125
584.975586	48975.914063
583.750000	49182.746094
582.523438	49254.746094
581.296875	49586.257813
580.070313	49174.824219
578.842773	49726.054688
577.616211	49597.898438
576.388672	49695.480469
575.161133	49581.226563
573.932617	49894.480469
572.705078	49762.421875
571.476563	49903.410156
570.248047	49692.281250
569.018555	49605.812500
567.790039	49863.394531
566.560547	49935.062500
565.331055	49360.417969
564.101563	49270.113281
562.871094	49328.015625
561.641602	49057.996094
560.411133	49109.988281
559.179688	49108.644531
557.949219	48805.250000
556.717773	48732.902344
555.486328	48688.207031
554.254883	48905.941406
553.023438	48729.058594
551.791016	48696.214844
550.558594	48432.667969
549.326172	48924.324219
548.093750	48737.707031
546.860352	48655.609375
545.627930	48484.867188
544.393555	48984.015625
543.160156	48391.757813
541.926758	48654.410156
540.692383	48609.800781
539.458008	48935.304688
538.223633	48981.195313
536.988281	48893.253906
535.752930	49027.667969
534.517578	48924.007813
533.282227	48857.750000
532.046875	49359.800781
530.810547	49181.421875
529.574219	49447.335938
528.337891	49099.992188
527.101563	49143.789063
525.864258	49702.269531
524.626953	49227.394531
523.389648	49508.753906
522.152344	49403.210938
520.914063	49460.636719
519.675781	48952.792969
518.437500	48937.671875
517.199219	49230.578125
515.959961	48960.406250
514.721680	49161.015625
513.482422	48977.230469
512.242188	49156.191406
511.002930	48637.296875
509.762695	48935.796875
508.522461	48905.007813
507.282227	48848.765625
506.041016	49002.109375
504.800781	49178.890625
503.559570	49081.503906
502.318359	48956.750000
501.076172	48898.578125
499.833984	49122.203125
498.592773	49236.179688
497.349609	49095.828125
496.107422	49540.269531
494.864258	48817.238281
493.622070	48874.488281
492.377930	49516.117188
491.134766	49356.292969
489.891602	49288.355469
488.647461	49501.738281
487.403320	49638.863281
486.158203	49336.582031
484.914063	49362.402344
483.668945	49261.335938
482.423828	49521.343750
481.178711	49757.839844
479.932617	49549.449219
478.686523	49996.496094
477.440430	49946.093750
476.194336	50000.996094
474.948242	50221.566406
473.701172	50804.570313
472.454102	50728.710938
471.207031	50432.726563
469.958984	50514.742188
468.711914	50312.382813
467.463867	50674.777344
466.215820	50591.214844
464.966797	50678.964844
463.718750	50782.253906
462.469727	51292.144531
461.220703	51257.152344
459.970703	51167.710938
458.721680	51758.906250
457.471680	51634.406250
456.221680	51618.804688
454.970703	51953.031250
453.720703	52009.265625
452.469727	52290.832031
451.218750	52514.019531
449.966797	52787.613281
448.715820	53350.402344
447.463867	53493.664063
446.211914	54052.222656
444.959961	54641.613281
443.707031	55221.078125
442.454102	54799.382813
441.201172	54982.949219
439.948242	54481.953125
438.695313	54198.277344
437.441406	53424.308594
436.187500	52656.445313
434.933594	52534.089844
433.678711	51712.437500
432.424805	51439.226563
431.169922	51096.402344
429.914063	50889.238281
428.659180	50798.292969
427.403320	50546.742188
426.147461	50883.531250
424.891602	50014.898438
423.635742	50403.882813
422.378906	49995.937500
421.122070	49756.367188
419.865234	49957.652344
418.608398	50622.738281
417.350586	49973.492188
416.092773	50021.980469
414.834961	49946.816406
413.577148	50259.878906
412.318359	49924.011719
411.059570	50451.257813
409.800781	50101.960938
408.541992	50152.281250
407.282227	50200.652344
406.022461	50318.453125
404.762695	50297.335938
403.502930	50137.375000
402.242188	50162.562500
400.981445	50052.804688
