#Wave		#Intensity
2001.242188	40046.730469
2000.272461	39628.140625
1999.302734	39856.792969
1998.333008	39829.789063
1997.363281	40103.421875
1996.392578	40071.371094
1995.422852	39773.871094
1994.452148	39779.449219
1993.481445	40140.511719
1992.510742	39883.199219
1991.540039	39625.976563
1990.568359	40209.562500
1989.596680	39311.929688
1988.625977	40125.484375
1987.654297	40231.011719
1986.681641	39786.414063
1985.709961	39721.964844
1984.738281	40124.949219
1983.765625	39992.984375
1982.792969	39995.992188
1981.820313	40578.585938
1980.847656	40149.367188
1979.874023	40494.480469
1978.901367	40062.929688
1977.927734	40303.078125
1976.954102	40306.019531
1975.980469	39952.085938
1975.006836	40266.980469
1974.032227	40566.792969
1973.058594	40494.851563
1972.083984	40437.894531
1971.109375	40572.953125
1970.134766	40152.023438
1969.160156	40498.945313
1968.184570	40475.714844
1967.209961	40452.503906
1966.234375	40429.273438
1965.258789	40406.042969
1964.283203	40382.808594
1963.306641	40359.554688
1962.331055	40336.324219
1961.354492	40313.066406
1960.377930	40289.812500
1959.401367	40266.558594
1958.424805	40243.300781
1957.447266	40220.023438
1956.470703	40625.812500
1955.493164	40404.871094
1954.515625	40758.273438
1953.538086	40723.800781
1952.560547	40348.875000
1951.582031	40630.039063
1950.604492	40692.488281
1949.625977	40402.210938
1948.647461	40434.875000
1947.668945	40579.257813
1946.689453	41006.601563
1945.710938	40780.996094
1944.731445	40667.148438
1943.751953	40560.777344
1942.772461	40623.140625
1941.792969	41082.339844
1940.813477	40708.113281
1939.833008	41075.390625
1938.852539	40946.726563
1937.873047	40676.820313
1936.891602	41383.417969
1935.911133	40724.519531
1934.930664	41408.562500
1933.949219	41237.835938
1932.967773	40933.437500
1931.986328	40777.703125
1931.004883	41117.144531
1930.023438	40902.027344
1929.041016	41181.933594
1928.059570	41347.917969
1927.077148	40831.058594
1926.094727	41291.382813
1925.112305	41276.726563
1924.128906	41165.648438
1923.146484	41430.367188
1922.163086	41437.937500
1921.179688	41420.789063
1920.196289	41551.898438
1919.212891	41848.472656
1918.228516	41438.535156
1917.245117	41673.285156
1916.260742	41520.300781
1915.276367	41345.152344
1914.291992	41602.003906
1913.307617	41644.066406
1912.322266	41508.464844
1911.336914	41792.281250
1910.352539	41920.613281
1909.367188	41755.433594
1908.380859	41994.671875
1907.395508	41523.851563
1906.409180	41634.875000
1905.423828	41538.859375
1904.437500	41529.109375
1903.451172	41489.796875
1902.463867	41864.289063
1901.477539	41664.863281
1900.490234	41864.375000
1899.503906	42295.222656
1898.516602	42213.960938
1897.528320	41758.671875
1896.541016	42132.714844
1895.553711	41884.242188
1894.565430	42108.089844
1893.577148	41847.406250
1892.588867	42120.359375
1891.600586	42208.839844
1890.611328	42090.824219
1889.623047	41847.523438
1888.633789	42186.613281
1887.644531	42633.671875
1886.655273	41788.644531
1885.666016	42147.207031
1884.675781	42486.000000
1883.686523	42191.324219
1882.696289	42556.988281
1881.706055	42640.308594
1880.715820	42591.113281
1879.724609	42522.304688
1878.734375	42529.550781
1877.743164	42968.390625
1876.751953	42838.253906
1875.760742	42617.457031
1874.769531	42193.304688
1873.778320	42857.339844
1872.786133	42727.304688
1871.793945	43023.558594
1870.801758	42594.726563
1869.809570	42991.296875
1868.817383	42724.214844
1867.824219	42799.937500
1866.832031	43240.308594
1865.838867	43266.968750
1864.845703	43450.203125
1863.851563	42826.117188
1862.858398	43080.289063
1861.865234	42845.296875
1860.871094	42901.335938
1859.876953	42976.906250
1858.882813	43211.312500
1857.887695	43362.554688
1856.893555	43152.140625
1855.898438	43552.500000
1854.904297	43576.589844
1853.909180	43427.296875
1852.913086	43236.546875
1851.917969	43433.992188
1850.922852	43358.015625
1849.926758	43494.359375
1848.930664	43711.171875
1847.934570	43488.816406
1846.938477	43588.480469
1845.941406	43834.414063
1844.945313	43860.835938
1843.948242	43748.300781
1842.951172	43959.949219
1841.954102	44113.042969
1840.956055	44239.277344
1839.958984	44148.671875
1838.960938	43617.269531
1837.962891	43721.609375
1836.964844	44256.835938
1835.966797	44207.664063
1834.968750	44214.484375
1833.969727	44464.636719
1832.970703	44371.656250
1831.971680	44225.191406
1830.972656	44536.007813
1829.973633	44323.906250
1828.973633	44522.753906
1827.974609	44971.902344
1826.974609	44247.027344
1825.974609	44180.917969
1824.974609	44522.984375
1823.973633	44522.429688
1822.973633	44572.875000
1821.972656	44725.285156
1820.971680	44931.050781
1819.970703	44556.605469
1818.968750	44973.468750
1817.967773	44783.558594
1816.965820	44831.468750
1815.964844	45037.023438
1814.961914	44740.488281
1813.959961	44929.011719
1812.958008	44991.402344
1811.955078	45080.429688
1810.953125	45009.472656
1809.950195	45113.000000
1808.947266	45429.683594
1807.943359	45288.453125
1806.940430	45425.781250
1805.936523	45718.023438
1804.932617	45165.246094
1803.928711	45801.144531
1802.924805	45851.152344
1801.920898	45426.882813
1800.916016	44993.085938
1799.911133	46262.285156
1798.907227	45743.847656
1797.901367	45655.988281
1796.896484	45696.285156
1795.891602	45734.148438
1794.885742	45885.585938
1793.879883	45703.519531
1792.874023	45777.593750
1791.868164	46047.289063
1790.862305	45505.457031
1789.855469	46274.914063
1788.848633	45697.015625
1787.842773	46333.410156
1786.834961	46120.105469
1785.828125	46415.984375
1784.821289	45954.257813
1783.813477	46626.328125
1782.805664	46328.710938
1781.797852	46694.261719
1780.790039	46015.839844
1779.782227	46786.242188
1778.773438	46602.062500
1777.764648	46232.417969
1776.755859	46588.015625
1775.747070	46493.082031
1774.738281	46638.992188
1773.729492	46823.378906
1772.719727	47019.730469
1771.709961	46859.792969
1770.700195	47241.363281
1769.690430	46836.023438
1768.680664	47012.984375
1767.669922	47235.578125
1766.659180	47277.734375
1765.648438	47180.421875
1764.637695	46950.925781
1763.626953	46978.683594
1762.615234	47616.808594
1761.604492	47711.707031
1760.592773	47563.949219
1759.581055	48031.097656
1758.569336	47842.507813
1757.556641	48014.121094
1756.544922	48060.847656
1755.532227	48361.964844
1754.519531	48298.226563
1753.506836	48361.664063
1752.494141	48216.382813
1751.480469	48430.910156
1750.466797	48196.937500
1749.454102	48540.855469
1748.440430	48647.335938
1747.425781	48770.554688
1746.412109	48404.882813
1745.397461	48748.515625
1744.383789	49060.882813
1743.369141	48707.324219
1742.353516	49096.210938
1741.338867	49276.664063
1740.324219	49428.328125
1739.308594	49819.269531
1738.292969	49755.417969
1737.277344	49827.960938
1736.261719	50249.710938
1735.245117	50420.191406
1734.229492	50179.324219
1733.212891	50474.074219
1732.196289	50699.394531
1731.179688	51118.222656
1730.162109	51219.093750
1729.145508	51742.792969
1728.127930	51824.402344
1727.110352	51987.183594
1726.092773	52195.269531
1725.075195	52816.304688
1724.056641	52814.113281
1723.039063	53253.433594
1722.020508	53191.511719
1721.001953	53826.230469
1719.983398	54255.593750
1718.963867	54260.292969
1717.945313	54396.136719
1716.925781	54527.160156
1715.906250	54665.285156
1714.886719	55129.851563
1713.867188	55027.160156
1712.846680	54638.621094
1711.826172	55019.574219
1710.806641	54716.906250
1709.786133	55111.992188
1708.764648	55114.128906
1707.744141	54885.386719
1706.722656	54980.371094
1705.701172	54378.164063
1704.679688	54439.894531
1703.658203	54444.519531
1702.636719	54760.671875
1701.614258	54477.531250
1700.592773	54068.492188
1699.570313	54151.605469
1698.547852	53890.105469
1697.524414	53956.585938
1696.501953	54405.503906
1695.478516	54338.855469
1694.456055	53911.265625
1693.432617	54210.367188
1692.408203	53685.621094
1691.384766	54100.953125
1690.360352	54079.492188
1689.336914	54409.187500
1688.312500	53635.683594
1687.288086	53398.480469
1686.262695	53865.652344
1685.238281	54171.433594
1684.212891	54102.562500
1683.187500	54247.019531
1682.162109	53976.730469
1681.136719	54545.253906
1680.110352	53834.394531
1679.084961	54402.738281
1678.058594	53898.171875
1677.032227	53971.472656
1676.005859	54047.109375
1674.978516	54136.921875
1673.952148	54314.253906
1672.924805	54186.316406
1671.897461	54576.464844
1670.870117	54886.058594
1669.842773	54784.093750
1668.814453	54497.753906
1667.787109	54733.914063
1666.758789	54331.871094
1665.730469	55094.914063
1664.701172	55023.703125
1663.672852	54765.910156
1662.643555	54770.351563
1661.615234	54779.515625
1660.585938	55341.113281
1659.555664	55498.875000
1658.526367	55448.898438
1657.497070	55382.417969
1656.466797	55516.488281
1655.436523	55806.187500
1654.406250	55855.230469
1653.375977	55967.921875
1652.344727	55972.121094
1651.313477	55988.101563
1650.282227	55923.949219
1649.250977	56048.316406
1648.219727	56394.085938
1647.188477	56629.027344
1646.156250	56538.890625
1645.124023	56889.089844
1644.091797	56523.500000
1643.059570	56720.578125
1642.027344	57176.453125
1640.994141	56818.058594
1639.961914	57400.781250
1638.928711	57232.988281
1637.895508	57476.789063
1636.861328	57621.746094
1635.828125	57524.519531
1634.793945	57986.718750
1633.759766	58166.753906
1632.725586	58370.218750
1631.691406	58484.339844
1630.656250	58967.167969
1629.622070	58808.734375
1628.586914	59068.277344
1627.551758	59546.042969
1626.516602	58995.625000
1625.480469	59759.519531
1624.445313	59542.417969
1623.409180	60181.609375
1622.373047	60536.777344
1621.336914	61053.621094
1620.300781	61741.429688
1619.263672	62520.414063
1618.227539	63601.457031
1617.190430	65148.429688
1616.153320	66158.328125
1615.115234	67964.304688
1614.078125	69359.773438
1613.040039	70759.429688
1612.001953	72086.000000
1610.963867	72459.398438
1609.925781	72996.484375
1608.887695	71911.781250
1607.848633	70928.062500
1606.809570	69563.406250
1605.770508	68150.125000
1604.731445	67265.804688
1603.692383	65965.648438
1602.652344	64464.929688
1601.613281	63170.406250
1600.573242	62906.792969
1599.533203	62138.652344
1598.492188	61891.664063
1597.452148	61392.539063
1596.411133	61589.410156
1595.370117	61312.292969
1594.329102	60549.777344
1593.288086	60767.687500
1592.247070	60187.531250
1591.205078	60078.820313
1590.163086	59550.300781
1589.121094	59936.132813
1588.079102	59487.101563
1587.036133	59642.011719
1585.994141	59302.730469
1584.951172	59483.250000
1583.908203	59162.753906
1582.865234	59168.511719
1581.822266	59302.367188
1580.778320	59266.171875
1579.734375	59707.292969
1578.691406	59396.343750
1577.646484	59308.941406
1576.602539	59794.027344
1575.558594	59429.710938
1574.513672	59705.234375
1573.468750	60215.566406
1572.423828	60751.292969
1571.378906	60131.300781
1570.333008	60706.367188
1569.288086	61427.644531
1568.242188	60700.964844
1567.196289	60553.054688
1566.150391	60347.121094
1565.103516	59918.296875
1564.057617	59777.566406
1563.010742	59625.273438
1561.963867	59087.699219
1560.916992	59230.328125
1559.869141	58999.308594
1558.822266	58988.773438
1557.774414	58811.230469
1556.726563	58949.156250
1555.678711	58365.890625
1554.630859	58418.062500
1553.582031	58180.468750
1552.534180	58207.156250
1551.485352	57842.242188
1550.436523	58272.082031
1549.386719	58497.933594
1548.337891	58631.066406
1547.288086	58009.308594
1546.238281	58501.312500
1545.188477	58562.609375
1544.138672	58371.636719
1543.088867	57521.292969
1542.038086	58390.101563
1540.987305	58393.546875
1539.936523	57969.160156
1538.885742	58183.074219
1537.834961	58177.296875
1536.783203	58173.832031
1535.731445	58057.128906
1534.679688	58120.687500
1533.627930	57680.617188
1532.576172	57725.738281
1531.523438	57837.804688
1530.471680	57996.007813
1529.418945	57807.886719
1528.366211	57520.585938
1527.312500	57321.074219
1526.259766	57887.621094
1525.206055	57208.300781
1524.152344	56937.445313
1523.098633	57063.312500
1522.044922	57184.519531
1520.990234	57543.109375
1519.936523	57392.226563
1518.881836	57709.167969
1517.827148	57685.019531
1516.772461	57575.644531
1515.716797	57259.035156
1514.662109	57352.406250
1513.606445	57388.187500
1512.550781	57626.511719
1511.495117	57252.570313
1510.438477	58096.000000
1509.382813	57238.976563
1508.326172	57364.441406
1507.269531	57172.488281
1506.212891	57718.699219
1505.155273	57627.898438
1504.098633	57417.605469
1503.041016	56959.187500
1501.983398	57585.457031
1500.925781	57650.953125
1499.867188	57284.609375
1498.809570	57409.839844
1497.750977	57640.644531
1496.692383	57862.183594
1495.633789	57326.203125
1494.575195	57414.609375
1493.515625	57112.929688
1492.457031	57446.800781
1491.397461	57124.578125
1490.337891	57788.539063
1489.277344	57484.707031
1488.217773	57240.582031
1487.157227	57372.425781
1486.096680	57297.976563
1485.036133	57402.265625
1483.975586	57023.167969
1482.915039	56971.718750
1481.853516	57277.511719
1480.791992	57528.246094
1479.730469	57231.796875
1478.668945	57262.730469
1477.606445	57522.476563
1476.544922	57393.195313
1475.482422	57515.574219
1474.419922	57706.515625
1473.357422	57312.015625
1472.293945	57832.136719
1471.231445	57917.765625
1470.167969	57480.007813
1469.104492	58086.640625
1468.041016	57971.128906
1466.976563	57983.570313
1465.913086	58660.578125
1464.848633	58028.980469
1463.784180	58144.128906
1462.719727	58905.191406
1461.655273	58712.050781
1460.589844	58710.640625
1459.524414	58729.757813
1458.458984	58773.957031
1457.393555	59100.917969
1456.328125	58955.785156
1455.261719	58965.718750
1454.196289	59183.054688
1453.129883	58848.835938
1452.063477	59022.820313
1450.996094	59230.914063
1449.929688	59065.398438
1448.862305	59489.738281
1447.794922	59290.078125
1446.727539	59609.507813
1445.660156	59744.460938
1444.591797	59651.808594
1443.524414	60023.320313
1442.456055	60033.011719
1441.387695	59860.750000
1440.318359	60254.753906
1439.250000	60607.691406
1438.180664	60514.968750
1437.111328	60897.273438
1436.041992	61263.531250
1434.972656	61697.812500
1433.903320	61893.429688
1432.833008	61977.691406
1431.762695	61980.175781
1430.692383	62398.113281
1429.622070	61653.734375
1428.550781	62788.718750
1427.480469	63011.140625
1426.409180	62119.582031
1425.337891	62639.175781
1424.266602	62387.527344
1423.194336	61623.527344
1422.122070	61637.382813
1421.050781	61732.828125
1419.978516	61703.593750
1418.905273	61019.562500
1417.833008	61189.816406
1416.759766	61076.882813
1415.687500	61308.203125
1414.614258	61317.550781
1413.540039	61388.015625
1412.466797	60863.191406
1411.392578	61198.468750
1410.319336	61180.667969
1409.245117	60993.214844
1408.169922	61002.593750
1407.095703	61468.746094
1406.020508	61828.468750
1404.946289	61894.195313
1403.871094	62120.359375
1402.794922	62163.410156
1401.719727	61924.035156
1400.643555	61860.929688
1399.568359	61741.386719
1398.492188	61784.464844
1397.415039	61635.621094
1396.338867	61841.218750
1395.261719	62315.296875
1394.185547	62439.457031
1393.108398	62281.570313
1392.031250	62791.398438
1390.953125	63071.007813
1389.875977	63278.359375
1388.797852	63677.257813
1387.719727	63672.546875
1386.641602	64301.089844
1385.562500	64082.210938
1384.484375	64541.492188
1383.405273	64951.050781
1382.326172	65031.675781
1381.247070	65393.710938
1380.166992	65451.710938
1379.087891	65370.140625
1378.007813	65527.128906
1376.927734	65366.824219
1375.847656	64801.660156
1374.767578	64765.238281
1373.686523	64548.179688
1372.605469	64331.125000
1371.524414	64114.066406
1370.443359	63897.011719
1369.362305	63679.953125
1368.280273	63369.660156
1367.199219	63522.210938
1366.117188	62695.503906
1365.034180	62807.695313
1363.952148	62407.972656
1362.870117	62684.031250
1361.787109	61595.484375
1360.704102	62275.472656
1359.621094	61977.078125
1358.537109	61696.730469
1357.454102	60817.703125
1356.370117	61048.886719
1355.286133	61008.726563
1354.202148	60500.125000
1353.118164	60632.628906
1352.033203	60532.062500
1350.948242	60122.378906
1349.863281	59703.882813
1348.778320	60031.253906
1347.693359	60027.132813
1346.607422	59852.878906
1345.521484	59985.316406
1344.435547	59889.449219
1343.349609	59661.609375
1342.263672	59610.570313
1341.176758	60237.222656
1340.090820	60689.226563
1339.003906	59457.546875
1337.916016	59723.988281
1336.829102	60195.949219
1335.741211	60748.175781
1334.654297	60223.351563
1333.566406	60058.343750
1332.478516	59808.523438
1331.389648	59880.335938
1330.301758	60108.394531
1329.212891	60197.976563
1328.124023	60124.609375
1327.035156	59966.476563
1325.945313	60504.441406
1324.856445	60399.824219
1323.766602	60707.812500
1322.676758	60877.441406
1321.586914	60335.863281
1320.496094	60226.882813
1319.406250	60028.800781
1318.315430	60849.023438
1317.224609	60098.429688
1316.133789	60337.015625
1315.041992	60548.792969
1313.951172	60931.929688
1312.859375	60838.542969
1311.767578	60636.132813
1310.675781	60785.382813
1309.583008	60658.691406
1308.491211	60767.839844
1307.398438	60681.226563
1306.305664	60681.367188
1305.212891	60597.019531
1304.119141	61050.632813
1303.026367	61255.160156
1301.932617	61184.078125
1300.838867	61161.898438
1299.744141	60968.687500
1298.650391	61435.132813
1297.555664	61090.945313
1296.461914	61253.050781
1295.366211	61495.000000
1294.271484	61901.082031
1293.176758	61747.867188
1292.081055	61787.710938
1290.985352	61869.679688
1289.889648	62344.136719
1288.793945	61900.488281
1287.697266	62405.796875
1286.601563	62372.332031
1285.504883	61951.070313
1284.408203	61809.125000
1283.311523	61831.156250
1282.213867	61970.562500
1281.116211	61113.429688
1280.018555	60834.460938
1278.920898	61536.222656
1277.823242	61281.617188
1276.725586	60642.074219
1275.626953	60252.765625
1274.528320	60571.433594
1273.429688	60498.531250
1272.330078	60295.191406
1271.231445	59963.695313
1270.131836	59919.667969
1269.032227	59606.035156
1267.932617	59537.777344
1266.833008	59222.113281
1265.732422	59193.707031
1264.632813	59489.941406
1263.532227	58982.351563
1262.430664	58726.613281
1261.330078	58517.312500
1260.228516	58354.429688
1259.127930	58637.296875
1258.026367	57951.625000
1256.924805	58141.824219
1255.822266	58261.382813
1254.720703	57959.777344
1253.618164	57503.972656
1252.515625	57511.171875
1251.413086	57311.226563
1250.309570	57999.242188
1249.207031	57418.191406
1248.103516	57617.000000
1247.000000	57249.816406
1245.895508	57615.898438
1244.791992	57209.226563
1243.687500	57535.562500
1242.583008	57265.472656
1241.478516	57105.476563
1240.374023	56989.527344
1239.269531	57020.964844
1238.164063	57105.156250
1237.058594	56938.703125
1235.953125	56642.621094
1234.847656	56577.394531
1233.741211	56815.402344
1232.635742	56728.195313
1231.529297	56944.121094
1230.422852	56569.238281
1229.315430	56730.218750
1228.208984	56344.531250
1227.101563	56426.476563
1225.994141	56580.804688
1224.886719	56370.871094
1223.779297	56397.917969
1222.670898	55995.082031
1221.562500	55943.242188
1220.454102	56172.050781
1219.345703	55848.378906
1218.237305	56066.156250
1217.127930	55839.035156
1216.018555	55548.457031
1214.909180	55604.070313
1213.799805	55738.503906
1212.690430	55942.953125
1211.580078	55939.347656
1210.469727	55863.511719
1209.359375	55833.656250
1208.249023	55746.921875
1207.138672	56274.941406
1206.027344	56190.339844
1204.916016	56007.359375
1203.804688	56246.425781
1202.693359	56146.566406
1201.581055	56180.062500
1200.469727	56421.148438
1199.357422	56585.671875
1198.245117	56651.832031
1197.131836	56696.121094
1196.019531	57126.906250
1194.906250	57679.792969
1193.792969	57250.183594
1192.679688	57143.734375
1191.566406	57017.683594
1190.452148	56911.308594
1189.337891	57092.902344
1188.223633	57139.210938
1187.109375	57144.070313
1185.995117	57022.480469
1184.879883	57057.871094
1183.764648	57239.261719
1182.649414	57021.839844
1181.534180	56811.035156
1180.418945	56563.273438
1179.302734	56857.851563
1178.186523	56710.324219
1177.070313	56665.160156
1175.954102	57031.375000
1174.837891	56348.562500
1173.720703	56473.191406
1172.603516	56447.675781
1171.486328	56520.039063
1170.369141	56274.886719
1169.250977	56005.910156
1168.132813	56258.726563
1167.015625	55974.628906
1165.896484	55666.734375
1164.778320	56056.335938
1163.660156	55809.351563
1162.541016	55738.367188
1161.421875	55682.609375
1160.302734	55737.585938
1159.182617	55946.652344
1158.063477	55157.355469
1156.943359	55891.531250
1155.823242	55863.984375
1154.703125	55550.136719
1153.582031	56060.468750
1152.461914	55451.820313
1151.340820	55693.171875
1150.219727	55591.980469
1149.097656	55668.519531
1147.976563	55376.703125
1146.854492	55654.707031
1145.732422	55941.269531
1144.610352	56201.742188
1143.488281	56133.031250
1142.365234	56267.816406
1141.243164	56813.761719
1140.120117	56792.570313
1138.996094	57199.753906
1137.873047	57089.812500
1136.750000	57098.855469
1135.625977	57460.339844
1134.501953	57168.804688
1133.377930	57192.953125
1132.252930	57011.781250
1131.127930	57102.925781
1130.003906	56958.558594
1128.878906	57315.339844
1127.752930	56847.054688
1126.627930	56795.648438
1125.501953	56718.355469
1124.375977	56692.886719
1123.250000	56650.160156
1122.124023	56833.988281
1120.997070	56333.933594
1119.871094	56487.554688
1118.744141	56559.175781
1117.617188	56012.003906
1116.489258	56159.125000
1115.362305	56127.308594
1114.234375	55537.414063
1113.106445	55546.652344
1111.978516	55812.210938
1110.849609	55954.914063
1109.721680	55341.785156
1108.592773	55404.863281
1107.463867	55545.406250
1106.333984	55565.378906
1105.205078	55615.460938
1104.075195	55381.562500
1102.945313	55408.000000
1101.815430	55763.445313
1100.685547	55832.796875
1099.554688	55652.761719
1098.424805	55610.343750
1097.293945	55338.007813
1096.162109	55295.656250
1095.031250	55975.078125
1093.899414	55290.457031
1092.768555	55183.710938
1091.636719	55302.429688
1090.503906	54841.539063
1089.372070	54773.558594
1088.239258	54632.644531
1087.106445	54513.230469
1085.973633	54702.734375
1084.840820	54443.953125
1083.708008	54571.210938
1082.574219	54595.523438
1081.440430	54193.289063
1080.306641	53801.914063
1079.171875	54464.835938
1078.038086	54253.496094
1076.903320	53954.417969
1075.768555	54197.222656
1074.633789	53936.796875
1073.498047	53988.996094
1072.363281	54398.593750
1071.227539	53898.605469
1070.091797	53910.125000
1068.956055	53840.355469
1067.819336	54114.933594
1066.682617	54241.871094
1065.546875	54082.277344
1064.409180	53980.457031
1063.272461	53677.777344
1062.135742	54022.636719
1060.998047	54038.371094
1059.860352	54483.421875
1058.722656	53691.824219
1057.583984	53654.226563
1056.446289	53842.921875
1055.307617	54052.890625
1054.168945	53703.679688
1053.029297	53860.250000
1051.890625	54035.964844
1050.750977	53770.117188
1049.611328	53621.648438
1048.471680	54014.769531
1047.332031	54056.019531
1046.191406	53928.886719
1045.051758	53929.648438
1043.911133	54426.804688
1042.769531	54029.148438
1041.628906	54021.363281
1040.487305	54328.718750
1039.346680	54137.792969
1038.205078	53889.464844
1037.062500	53858.296875
1035.920898	53842.027344
1034.778320	53172.671875
1033.635742	53811.632813
1032.493164	53750.714844
1031.350586	53713.210938
1030.207031	53813.890625
1029.063477	53425.691406
1027.919922	53789.882813
1026.776367	53648.281250
1025.632813	53404.765625
1024.488281	53694.417969
1023.343750	53540.164063
1022.199219	53466.640625
1021.054688	53737.007813
1019.910156	53909.652344
1018.764648	53456.281250
1017.619141	53906.820313
1016.473633	53778.136719
1015.327148	53929.429688
1014.181641	53849.550781
1013.035156	53797.257813
1011.888672	53757.699219
1010.742188	53766.894531
1009.594727	53996.433594
1008.448242	53910.246094
1007.300781	53616.531250
1006.153320	53335.625000
1005.005859	53745.023438
1003.857422	53675.875000
1002.708984	54063.890625
1001.560547	53880.437500
1000.412109	53986.890625
999.263672	54023.500000
998.114258	54210.250000
996.965820	54456.128906
995.816406	54526.449219
994.666016	53985.882813
993.516602	53940.027344
992.366211	53695.574219
991.215820	54230.726563
990.065430	54017.984375
988.915039	54170.652344
987.763672	54278.921875
986.613281	54019.839844
985.461914	54305.382813
984.309570	54381.906250
983.158203	53880.312500
982.005859	54060.246094
980.854492	54075.601563
979.701172	54168.972656
978.548828	54331.878906
977.396484	53858.144531
976.243164	54103.234375
975.089844	54348.234375
973.936523	54422.496094
972.783203	54020.699219
971.628906	53812.792969
970.474609	53914.476563
969.320313	54178.218750
968.166016	54313.468750
967.010742	54324.507813
965.856445	54562.773438
964.701172	54159.347656
963.545898	53894.882813
962.390625	54278.179688
961.234375	54688.667969
960.078125	54434.753906
958.921875	53848.867188
957.765625	54475.632813
956.609375	54356.347656
955.452148	54071.160156
954.294922	54554.722656
953.137695	54718.945313
951.980469	54408.652344
950.822266	54434.304688
949.665039	53914.316406
948.506836	54145.667969
947.347656	53928.003906
946.189453	53899.183594
945.030273	53981.511719
943.872070	54156.062500
942.712891	53772.941406
941.552734	54054.347656
940.393555	53903.980469
939.233398	53894.039063
938.073242	54024.441406
936.913086	53941.175781
935.752930	54094.550781
934.591797	53768.441406
933.430664	54181.339844
932.269531	54139.949219
931.108398	53989.769531
929.947266	54433.769531
928.785156	53821.339844
927.623047	54382.308594
926.460938	54330.453125
925.298828	54960.105469
924.135742	55014.750000
922.972656	55111.167969
921.810547	54714.472656
920.646484	55422.957031
919.483398	55354.242188
918.319336	55417.105469
917.155273	55899.582031
915.991211	55665.910156
914.827148	55724.500000
913.662109	56104.398438
912.498047	56292.226563
911.333008	56144.164063
910.167969	56623.867188
909.001953	56894.890625
907.836914	57393.035156
906.670898	57522.078125
905.504883	57373.914063
904.337891	57204.960938
903.171875	57156.894531
902.004883	56775.601563
900.837891	56583.941406
899.670898	55503.347656
898.503906	56186.257813
897.335938	56415.210938
896.167969	55790.937500
895.000000	55820.152344
893.832031	56032.394531
892.663086	55483.402344
891.495117	55602.054688
890.326172	55575.140625
889.156250	55174.101563
887.987305	55737.460938
886.817383	55947.394531
885.648438	55795.781250
884.478516	55448.992188
883.307617	55791.753906
882.137695	55617.410156
880.966797	55901.886719
879.795898	56134.371094
878.625000	56474.664063
877.454102	56404.050781
876.282227	56445.468750
875.110352	57044.746094
873.938477	57376.320313
872.766602	56667.050781
871.593750	56892.855469
870.421875	57062.617188
869.249023	56923.589844
868.076172	56931.695313
866.902344	57014.359375
865.729492	57629.191406
864.555664	57680.632813
863.381836	58237.148438
862.207031	58056.648438
861.033203	58770.152344
859.858398	59276.492188
858.683594	58711.148438
857.508789	58549.296875
856.333984	58718.343750
855.158203	58136.867188
853.982422	58076.488281
852.806641	57679.269531
851.630859	57647.917969
850.454102	57781.843750
849.278320	57614.156250
848.101563	58063.992188
846.924805	57770.367188
845.747070	58374.824219
844.570313	58382.578125
843.392578	58757.640625
842.214844	59274.917969
841.036133	60076.664063
839.858398	60948.234375
838.679688	61334.902344
837.500977	61830.691406
836.322266	62814.812500
835.143555	62615.625000
833.963867	62733.820313
832.784180	62264.839844
831.604492	61550.921875
830.424805	60987.597656
829.244141	59938.562500
828.063477	59396.324219
826.882813	59156.843750
825.702148	58182.808594
824.521484	57966.265625
823.339844	57529.695313
822.158203	57872.765625
820.976563	56914.074219
819.794922	57074.148438
818.612305	56481.839844
817.430664	56074.710938
816.248047	56025.261719
815.064453	55425.250000
813.881836	55495.062500
812.698242	55529.937500
811.514648	55299.929688
810.331055	55226.019531
809.147461	54743.695313
807.962891	55102.902344
806.778320	54747.980469
805.593750	54809.605469
804.409180	54762.507813
803.224609	54955.339844
802.039063	54528.937500
800.853516	54170.339844
799.667969	54533.269531
798.482422	54689.109375
797.295898	54500.710938
796.109375	54273.460938
794.922852	53991.003906
793.736328	54038.296875
792.548828	53872.671875
791.362305	53764.410156
790.174805	53682.792969
788.986328	53599.152344
787.798828	53286.437500
786.610352	53188.582031
785.421875	53107.121094
784.233398	53199.468750
783.044922	53271.335938
781.856445	52772.980469
780.666992	52967.496094
779.477539	52681.843750
778.288086	52851.792969
777.097656	52627.527344
775.907227	51992.937500
774.717773	52087.378906
773.526367	52698.167969
772.335938	52061.871094
771.144531	52515.332031
769.954102	52226.089844
768.762695	52404.007813
767.570313	52265.785156
766.378906	52105.187500
765.186523	52666.238281
763.994141	52854.121094
762.801758	52465.281250
761.609375	52818.144531
760.416016	53069.031250
759.222656	53397.207031
758.029297	53670.285156
756.835938	53935.117188
755.641602	54214.093750
754.447266	54452.261719
753.252930	54757.484375
752.058594	54267.207031
750.864258	54340.484375
749.668945	53618.644531
748.473633	53807.894531
747.278320	53336.441406
746.083008	53096.851563
744.886719	53052.410156
743.690430	52500.093750
742.494141	52729.988281
741.297852	51785.980469
740.100586	52001.707031
738.904297	52006.222656
737.707031	51334.851563
736.509766	51850.871094
735.311523	52042.066406
734.113281	51379.167969
732.916016	51556.179688
731.716797	51674.316406
730.518555	51538.980469
729.320313	51849.636719
728.121094	51311.007813
726.921875	51317.648438
725.721680	51176.390625
724.522461	51008.851563
723.322266	51039.839844
722.122070	50720.523438
720.921875	51002.574219
719.721680	50736.003906
718.520508	50957.230469
717.319336	51172.304688
716.118164	50905.847656
714.916992	50995.449219
713.714844	51210.382813
712.513672	50958.214844
711.311523	50744.542969
710.108398	50569.347656
708.906250	50974.132813
707.703125	51013.097656
706.500000	50732.910156
705.296875	50830.468750
704.093750	50730.117188
702.889648	50720.640625
701.685547	50735.386719
700.481445	51048.789063
699.277344	50954.511719
698.072266	50914.734375
696.868164	51072.621094
695.663086	50944.105469
694.457031	50801.523438
693.251953	50679.152344
692.045898	50494.343750
690.839844	50984.617188
689.633789	51013.367188
688.427734	50798.382813
687.220703	51227.902344
686.013672	51192.152344
684.806641	50808.148438
683.599609	51311.886719
682.391602	50934.039063
681.184570	51031.148438
679.976563	51365.582031
678.767578	51114.632813
677.559570	51800.820313
676.350586	51320.687500
675.141602	51313.097656
673.932617	51377.855469
672.723633	51518.945313
671.513672	51579.617188
670.303711	51718.601563
669.093750	51379.582031
667.883789	51402.093750
666.672852	51484.816406
665.462891	51531.378906
664.251953	51670.230469
663.040039	51534.160156
661.829102	51532.539063
660.617188	51446.679688
659.405273	51539.316406
658.193359	51481.550781
656.981445	51403.761719
655.768555	51436.222656
654.555664	51366.480469
653.342773	51088.417969
652.129883	51293.164063
650.916016	50911.082031
649.702148	51095.757813
648.488281	51348.421875
647.274414	51540.949219
646.059570	51297.167969
644.845703	51371.589844
643.630859	51397.968750
642.416016	51244.343750
641.200195	51158.757813
639.984375	51223.140625
638.769531	51673.265625
637.552734	51517.695313
636.336914	51224.316406
635.120117	51941.871094
633.904297	51588.597656
632.687500	51904.429688
631.469727	51271.769531
630.252930	51034.589844
629.035156	50977.121094
627.817383	50971.554688
626.599609	51313.125000
625.380859	51084.085938
624.163086	50777.351563
622.944336	50987.164063
621.724609	51292.582031
620.505859	51073.675781
619.286133	51179.679688
618.066406	50699.859375
616.846680	51056.886719
615.626953	50838.179688
614.406250	51177.121094
613.186523	50848.964844
611.965820	50775.722656
610.744141	50523.386719
609.523438	50593.500000
608.301758	50637.718750
607.080078	50532.734375
605.858398	50720.132813
604.635742	50770.257813
603.414063	50935.667969
602.191406	50689.578125
600.968750	50892.695313
599.745117	50708.292969
598.522461	51312.589844
597.298828	50707.125000
596.075195	50792.914063
594.850586	50874.699219
593.626953	50527.695313
592.402344	50613.464844
591.177734	50588.082031
589.953125	50300.835938
588.727539	50273.531250
587.501953	50024.128906
586.276367	50446.964844
585.050781	50461.273438
583.825195	50495.394531
582.598633	50297.648438
581.372070	50438.769531
580.145508	50249.027344
578.917969	50592.109375
577.691406	50257.855469
576.463867	50272.164063
575.236328	50389.390625
574.007813	50445.222656
572.780273	50388.250000
571.551758	50485.597656
570.323242	50622.468750
569.094727	50223.371094
567.865234	50356.281250
566.635742	50720.421875
565.406250	50303.734375
564.176758	50163.851563
562.947266	50073.410156
561.716797	49898.062500
560.486328	50386.355469
559.255859	50337.382813
558.024414	50509.535156
556.793945	50018.417969
555.562500	50324.750000
554.331055	50265.953125
553.098633	50240.707031
551.867188	50564.570313
550.634766	49780.074219
549.402344	49821.960938
548.168945	50019.554688
546.936523	49846.558594
545.703125	50018.453125
544.469727	50168.609375
543.236328	50239.917969
542.001953	50250.148438
540.767578	50226.902344
539.533203	50158.378906
538.298828	49859.597656
537.064453	50233.937500
535.829102	49848.679688
534.593750	50313.367188
533.358398	50301.917969
532.122070	50144.957031
530.886719	50552.304688
529.650391	50444.492188
528.414063	50291.519531
527.176758	49837.968750
525.940430	49981.804688
524.703125	50243.437500
523.465820	50279.132813
522.227539	50014.406250
520.990234	50434.882813
519.751953	50631.453125
518.513672	50247.101563
517.275391	50114.023438
516.036133	49994.722656
514.796875	49685.226563
513.557617	50213.121094
512.318359	49803.714844
511.079102	50092.253906
509.838867	50182.746094
508.598633	50081.187500
507.358398	50063.902344
506.117188	49854.671875
504.876953	50328.953125
503.635742	50139.328125
502.394531	50127.906250
501.152344	50314.156250
499.911133	50253.781250
498.668945	50314.722656
497.425781	50774.671875
496.183594	50225.320313
494.941406	50556.058594
493.698242	49961.988281
492.455078	50476.375000
491.210938	50609.496094
489.967773	50291.234375
488.723633	50525.914063
487.479492	50774.175781
486.235352	50450.199219
484.990234	50682.757813
483.745117	50355.007813
482.500000	50562.121094
481.254883	50519.394531
480.008789	50960.500000
478.763672	50880.648438
477.517578	50859.332031
476.271484	50916.007813
475.024414	50888.839844
473.777344	51401.558594
472.530273	51202.820313
471.283203	51387.968750
470.036133	51551.617188
468.788086	51121.199219
467.540039	51656.742188
466.291992	51921.472656
465.043945	51826.007813
463.794922	52041.949219
462.545898	52787.039063
461.296875	52726.476563
460.047852	53078.265625
458.797852	53046.832031
457.547852	53188.445313
456.297852	53786.812500
455.047852	53490.941406
453.796875	53560.484375
452.545898	54092.378906
451.294922	54319.113281
450.043945	54326.312500
448.792969	54820.859375
447.541016	55750.066406
446.289063	56218.921875
445.036133	56487.718750
443.784180	56577.910156
442.531250	57007.539063
441.278320	56515.757813
440.025391	56028.039063
438.771484	56025.183594
437.518555	54766.269531
436.264648	54228.765625
435.010742	53582.953125
433.755859	53030.371094
432.500977	52142.914063
431.246094	52268.589844
429.991211	52020.539063
428.736328	51768.707031
427.480469	51530.519531
426.224609	51358.207031
424.968750	51673.500000
423.712891	51474.144531
422.456055	51232.312500
421.199219	51325.078125
419.942383	51251.554688
418.685547	51348.144531
417.427734	51243.714844
416.169922	51164.441406
414.912109	51172.125000
413.654297	51199.117188
412.395508	51056.167969
411.136719	50942.226563
409.877930	50992.402344
408.619141	50876.585938
407.359375	51102.339844
406.099609	50616.132813
404.839844	51270.046875
403.580078	51212.105469
402.319336	51208.171875
401.059570	50649.050781
