#Wave		#Intensity
2001.182617	46179.699219
2000.212891	46036.828125
1999.243164	45665.414063
1998.273438	45913.015625
1997.303711	45854.894531
1996.333008	46380.402344
1995.363281	45989.144531
1994.392578	46211.472656
1993.421875	46373.636719
1992.451172	46480.675781
1991.479492	46304.886719
1990.508789	46632.085938
1989.537109	46486.347656
1988.566406	46580.781250
1987.594727	46742.699219
1986.622070	46727.035156
1985.650391	46346.382813
1984.677734	46763.199219
1983.706055	46792.515625
1982.733398	46891.781250
1981.760742	46603.792969
1980.788086	46745.515625
1979.814453	46787.292969
1978.841797	46976.371094
1977.868164	46656.105469
1976.894531	46882.578125
1975.920898	47188.828125
1974.947266	46796.328125
1973.972656	46541.171875
1972.999023	46650.269531
1972.024414	47243.128906
1971.049805	46638.949219
1970.075195	47408.597656
1969.099609	47028.921875
1968.125000	47230.035156
1967.149414	47009.988281
1966.173828	47355.519531
1965.198242	47040.875000
1964.222656	47114.828125
1963.247070	47178.796875
1962.270508	46879.277344
1961.294922	47560.542969
1960.318359	47039.570313
1959.341797	47222.933594
1958.364258	47038.042969
1957.387695	47161.640625
1956.410156	47160.851563
1955.433594	47010.875000
1954.456055	47452.613281
1953.478516	47685.410156
1952.500000	47115.429688
1951.522461	47591.699219
1950.543945	47121.300781
1949.565430	47247.179688
1948.586914	47661.085938
1947.608398	46942.621094
1946.629883	46917.027344
1945.650391	47571.531250
1944.671875	47473.863281
1943.692383	47316.679688
1942.712891	47447.320313
1941.733398	47255.468750
1940.752930	47324.070313
1939.773438	47348.019531
1938.792969	47547.968750
1937.812500	47906.476563
1936.832031	47878.261719
1935.851563	47825.277344
1934.870117	47546.875000
1933.888672	47526.164063
1932.908203	47339.535156
1931.926758	47945.292969
1930.945313	48003.734375
1929.962891	47742.859375
1928.981445	48041.359375
1927.999023	47369.839844
1927.016602	48140.796875
1926.034180	47818.242188
1925.051758	47718.363281
1924.069336	47692.695313
1923.085938	47840.078125
1922.102539	48229.632813
1921.119141	47803.542969
1920.135742	47805.046875
1919.152344	47764.554688
1918.168945	47869.796875
1917.184570	47737.933594
1916.200195	47759.191406
1915.215820	47738.476563
1914.231445	47707.894531
1913.247070	47623.027344
1912.261719	47883.617188
1911.276367	48326.664063
1910.291992	48088.808594
1909.306641	48181.484375
1908.320313	48343.160156
1907.334961	47814.531250
1906.348633	47981.140625
1905.363281	48007.226563
1904.376953	47934.746094
1903.390625	47766.210938
1902.403320	47477.050781
1901.416992	47614.011719
1900.429688	48272.902344
1899.443359	47745.011719
1898.456055	47812.933594
1897.467773	47255.773438
1896.480469	47796.152344
1895.493164	47782.847656
1894.504883	47575.238281
1893.516602	47967.726563
1892.528320	47573.292969
1891.540039	47739.476563
1890.550781	47890.855469
1889.562500	48346.898438
1888.573242	48019.007813
1887.583984	47794.402344
1886.594727	48289.511719
1885.605469	47797.265625
1884.615234	47936.187500
1883.625000	48561.113281
1882.635742	48258.058594
1881.645508	48266.761719
1880.654297	48179.773438
1879.664063	48328.308594
1878.673828	48297.746094
1877.682617	48505.058594
1876.691406	48099.347656
1875.700195	48402.222656
1874.708984	48464.796875
1873.716797	48319.054688
1872.725586	47957.753906
1871.733398	48253.082031
1870.741211	48420.949219
1869.749023	48789.554688
1868.755859	48692.839844
1867.763672	48787.093750
1866.770508	48940.054688
1865.777344	48657.382813
1864.784180	49010.933594
1863.791016	48789.496094
1862.797852	48555.910156
1861.803711	48527.812500
1860.809570	48619.523438
1859.815430	48786.976563
1858.821289	49301.429688
1857.827148	49153.472656
1856.832031	49127.726563
1855.837891	49197.257813
1854.842773	49374.222656
1853.847656	48523.082031
1852.852539	49295.820313
1851.856445	49409.203125
1850.861328	49549.390625
1849.865234	49979.910156
1848.869141	49695.425781
1847.873047	49357.375000
1846.876953	49897.441406
1845.879883	49547.277344
1844.883789	50150.507813
1843.886719	49797.984375
1842.889648	49684.421875
1841.892578	50145.972656
1840.895508	50293.074219
1839.897461	49916.402344
1838.899414	50044.003906
1837.901367	50113.117188
1836.903320	50325.843750
1835.905273	51103.226563
1834.907227	50527.167969
1833.908203	50430.671875
1832.909180	50679.679688
1831.910156	50332.644531
1830.911133	51024.210938
1829.912109	50533.769531
1828.912109	51050.003906
1827.913086	50999.691406
1826.913086	51022.304688
1825.913086	51103.226563
1824.913086	51509.667969
1823.912109	51590.468750
1822.912109	51552.238281
1821.911133	51402.324219
1820.910156	51575.347656
1819.909180	51199.738281
1818.908203	51564.460938
1817.906250	51613.609375
1816.904297	51475.937500
1815.903320	51454.738281
1814.900391	51305.007813
1813.898438	51938.531250
1812.896484	51977.867188
1811.893555	51493.617188
1810.891602	51908.652344
1809.888672	51812.273438
1808.885742	51984.835938
1807.881836	51924.808594
1806.878906	52293.453125
1805.875000	52448.882813
1804.871094	52183.019531
1803.867188	52328.730469
1802.863281	52140.417969
1801.859375	52281.242188
1800.854492	52373.632813
1799.849609	52872.339844
1798.844727	52224.570313
1797.839844	52783.574219
1796.834961	53301.281250
1795.830078	53458.660156
1794.824219	52970.730469
1793.818359	53679.007813
1792.812500	53430.371094
1791.806641	53406.453125
1790.799805	53237.644531
1789.793945	53933.292969
1788.787109	53332.324219
1787.780273	53783.921875
1786.773438	53772.019531
1785.766602	53661.191406
1784.758789	53671.019531
1783.751953	53726.671875
1782.744141	53977.636719
1781.736328	54291.199219
1780.728516	53751.261719
1779.719727	53809.261719
1778.711914	54072.074219
1777.703125	53626.421875
1776.694336	54161.386719
1775.685547	54192.769531
1774.676758	54168.750000
1773.666992	54301.242188
1772.657227	54012.406250
1771.648438	53981.203125
1770.638672	53901.882813
1769.627930	54130.558594
1768.618164	54248.496094
1767.607422	54241.316406
1766.597656	54647.757813
1765.586914	54438.542969
1764.576172	54214.980469
1763.564453	54390.468750
1762.553711	54248.691406
1761.541992	54746.058594
1760.530273	54582.644531
1759.518555	55173.441406
1758.506836	54753.058594
1757.495117	55187.554688
1756.482422	54704.902344
1755.469727	54853.636719
1754.457031	55218.285156
1753.444336	55230.117188
1752.431641	54838.945313
1751.417969	54865.226563
1750.405273	55380.679688
1749.391602	55059.207031
1748.377930	55210.078125
1747.364258	55833.039063
1746.349609	55703.351563
1745.335938	55751.003906
1744.321289	56399.878906
1743.306641	56030.656250
1742.291992	55963.277344
1741.276367	55541.585938
1740.261719	55732.835938
1739.246094	56665.933594
1738.230469	56682.230469
1737.214844	56583.679688
1736.199219	56965.960938
1735.182617	56735.855469
1734.166992	56996.019531
1733.150391	57667.296875
1732.133789	58032.371094
1731.117188	58280.210938
1730.099609	58444.328125
1729.083008	59098.144531
1728.065430	58662.507813
1727.047852	59609.796875
1726.030273	59367.628906
1725.012695	59946.796875
1723.994141	60170.105469
1722.976563	60541.296875
1721.958008	60788.277344
1720.939453	60958.824219
1719.920898	61651.679688
1718.901367	62039.027344
1717.882813	61925.511719
1716.863281	62415.183594
1715.843750	62623.417969
1714.824219	63010.308594
1713.803711	62789.468750
1712.784180	62649.703125
1711.763672	62717.207031
1710.743164	63139.519531
1709.722656	63340.246094
1708.702148	63188.566406
1707.681641	63139.289063
1706.660156	62866.324219
1705.638672	63266.812500
1704.617188	63146.167969
1703.595703	62939.941406
1702.574219	63399.644531
1701.551758	63633.308594
1700.529297	63206.011719
1699.507813	63232.835938
1698.484375	63585.214844
1697.461914	63493.160156
1696.439453	63415.386719
1695.416016	63180.882813
1694.392578	63616.125000
1693.369141	63170.351563
1692.345703	63204.250000
1691.322266	63238.140625
1690.297852	63412.019531
1689.273438	63571.601563
1688.249023	63633.863281
1687.224609	63862.125000
1686.200195	64002.562500
1685.174805	64150.058594
1684.150391	64216.906250
1683.125000	64587.097656
1682.099609	64841.039063
1681.073242	65052.242188
1680.047852	65152.035156
1679.021484	64879.949219
1677.995117	65162.066406
1676.968750	65612.179688
1675.942383	65612.367188
1674.916016	65390.082031
1673.888672	66074.171875
1672.862305	66086.101563
1671.834961	65669.875000
1670.806641	66287.320313
1669.779297	66214.070313
1668.751953	66306.335938
1667.723633	66512.031250
1666.695313	66415.140625
1665.666992	66566.390625
1664.638672	66819.171875
1663.609375	66790.773438
1662.581055	66233.359375
1661.551758	65673.781250
1660.522461	65827.375000
1659.493164	66205.156250
1658.462891	66023.476563
1657.433594	66561.531250
1656.403320	66301.992188
1655.373047	65705.242188
1654.342773	65606.312500
1653.312500	65778.570313
1652.281250	65896.539063
1651.250977	65957.898438
1650.219727	66245.476563
1649.188477	65915.609375
1648.156250	66290.250000
1647.125000	66075.898438
1646.092773	66641.125000
1645.060547	66874.148438
1644.028320	66393.789063
1642.996094	66494.968750
1641.963867	67304.445313
1640.930664	66760.726563
1639.898438	67341.679688
1638.865234	67734.257813
1637.832031	68493.546875
1636.797852	68279.156250
1635.764648	68208.250000
1634.730469	68861.273438
1633.696289	68945.367188
1632.662109	69191.554688
1631.627930	69804.117188
1630.592773	70273.179688
1629.558594	70749.125000
1628.523438	70720.101563
1627.488281	71472.781250
1626.453125	71812.125000
1625.416992	72362.531250
1624.381836	73426.554688
1623.345703	73314.968750
1622.309570	73656.070313
1621.273438	74749.773438
1620.237305	75686.000000
1619.200195	76572.664063
1618.163086	77784.789063
1617.125977	79083.171875
1616.088867	80507.609375
1615.051758	81809.726563
1614.014648	83514.203125
1612.976563	85337.500000
1611.938477	86750.429688
1610.900391	87493.390625
1609.862305	87669.718750
1608.823242	88112.734375
1607.785156	86793.921875
1606.746094	85791.359375
1605.707031	84590.367188
1604.667969	83614.265625
1603.628906	82545.000000
1602.588867	81707.515625
1601.548828	79914.484375
1600.508789	79837.156250
1599.468750	79290.281250
1598.428711	78372.203125
1597.387695	77356.375000
1596.347656	77174.468750
1595.306641	77048.656250
1594.265625	76598.445313
1593.224609	76332.757813
1592.182617	76092.820313
1591.140625	75577.695313
1590.099609	75216.687500
1589.057617	75413.156250
1588.014648	75019.656250
1586.972656	75400.257813
1585.929688	74482.468750
1584.887695	74597.359375
1583.844727	74565.414063
1582.800781	74538.140625
1581.757813	74578.414063
1580.714844	75419.750000
1579.670898	75173.468750
1578.626953	75586.062500
1577.583008	76498.906250
1576.538086	76403.812500
1575.494141	76415.773438
1574.449219	77460.562500
1573.404297	76997.867188
1572.359375	77312.007813
1571.314453	77340.031250
1570.269531	77368.046875
1569.223633	77396.093750
1568.177734	77424.140625
1567.131836	76223.109375
1566.085938	75686.851563
1565.040039	75524.703125
1563.993164	74865.687500
1562.946289	74121.007813
1561.899414	73550.671875
1560.852539	73268.328125
1559.805664	72343.328125
1558.757813	71822.328125
1557.709961	71821.101563
1556.662109	71495.187500
1555.614258	71129.968750
1554.566406	70516.820313
1553.517578	70274.750000
1552.469727	69300.429688
1551.420898	69767.687500
1550.372070	69558.312500
1549.322266	69462.500000
1548.273438	69088.812500
1547.223633	69009.320313
1546.173828	68920.593750
1545.124023	69118.914063
1544.074219	69321.781250
1543.024414	69330.218750
1541.973633	68716.351563
1540.922852	68826.656250
1539.872070	68532.218750
1538.821289	68901.476563
1537.770508	68473.046875
1536.718750	68987.781250
1535.666992	68603.398438
1534.615234	68944.632813
1533.563477	68682.820313
1532.511719	68769.859375
1531.458984	67755.351563
1530.407227	68555.937500
1529.354492	68017.359375
1528.300781	67439.734375
1527.248047	67584.593750
1526.195313	67124.914063
1525.141602	66586.960938
1524.087891	66390.546875
1523.034180	66565.445313
1521.980469	66419.820313
1520.925781	66124.406250
1519.871094	66147.148438
1518.817383	65665.234375
1517.762695	66240.976563
1516.707031	65968.828125
1515.652344	65680.656250
1514.596680	65770.218750
1513.541016	65664.054688
1512.485352	65127.488281
1511.429688	65293.039063
1510.374023	65334.273438
1509.317383	65828.703125
1508.260742	65460.394531
1507.204102	65066.914063
1506.147461	64788.539063
1505.090820	64793.031250
1504.033203	64912.445313
1502.975586	65105.351563
1501.917969	64294.093750
1500.860352	64516.902344
1499.802734	64337.675781
1498.744141	64103.394531
1497.686523	63357.175781
1496.627930	64165.367188
1495.569336	63947.304688
1494.509766	63192.328125
1493.451172	63337.023438
1492.391602	63676.656250
1491.332031	63337.261719
1490.272461	63598.800781
1489.212891	63092.167969
1488.152344	63076.277344
1487.092773	63039.757813
1486.032227	63351.566406
1484.971680	63477.675781
1483.910156	63113.527344
1482.849609	63081.601563
1481.788086	63290.121094
1480.726563	62937.644531
1479.665039	63045.390625
1478.603516	63180.558594
1477.541992	63661.203125
1476.479492	62620.261719
1475.416992	62785.164063
1474.354492	63112.378906
1473.291992	62851.820313
1472.229492	62888.558594
1471.166016	62932.136719
1470.102539	62546.046875
1469.039063	62603.375000
1467.975586	62838.875000
1466.912109	61820.292969
1465.847656	62546.847656
1464.783203	62574.437500
1463.718750	62362.312500
1462.654297	62145.699219
1461.589844	61974.796875
1460.524414	62139.363281
1459.458984	62269.648438
1458.393555	62440.941406
1457.328125	62112.750000
1456.262695	61987.597656
1455.196289	62238.628906
1454.130859	62526.031250
1453.064453	62225.394531
1451.998047	61815.500000
1450.930664	62004.867188
1449.864258	61784.191406
1448.796875	61861.906250
1447.729492	61796.156250
1446.662109	62349.593750
1445.594727	62595.578125
1444.526367	62122.398438
1443.458008	62206.792969
1442.390625	62591.421875
1441.321289	62859.917969
1440.252930	63148.781250
1439.184570	62966.921875
1438.115234	63296.570313
1437.045898	63482.921875
1435.976563	64255.449219
1434.907227	63678.203125
1433.836914	64607.144531
1432.767578	64184.472656
1431.697266	64454.496094
1430.626953	64415.664063
1429.555664	64363.230469
1428.485352	64812.351563
1427.414063	65381.562500
1426.342773	65018.175781
1425.271484	65292.277344
1424.200195	65373.515625
1423.128906	66005.695313
1422.056641	66172.914063
1420.984375	65567.171875
1419.912109	66266.953125
1418.839844	66087.367188
1417.767578	65690.375000
1416.694336	65388.648438
1415.621094	65012.292969
1414.547852	65127.390625
1413.474609	64617.656250
1412.400391	64492.863281
1411.327148	63942.687500
1410.252930	63980.957031
1409.178711	63992.062500
1408.104492	63464.886719
1407.029297	63962.250000
1405.955078	63851.257813
1404.879883	64452.347656
1403.804688	63525.425781
1402.729492	63983.996094
1401.653320	64476.285156
1400.578125	64597.949219
1399.501953	64486.949219
1398.425781	64497.917969
1397.349609	64285.375000
1396.272461	64341.515625
1395.196289	63664.171875
1394.119141	64291.265625
1393.041992	64464.675781
1391.964844	65165.828125
1390.886719	64998.480469
1389.809570	65209.992188
1388.731445	65168.937500
1387.653320	65445.703125
1386.575195	65803.492188
1385.497070	65847.968750
1384.417969	66257.359375
1383.338867	66851.296875
1382.259766	65870.921875
1381.180664	66003.148438
1380.101563	66371.687500
1379.021484	65873.578125
1377.941406	65445.398438
1376.861328	66074.820313
1375.781250	65469.042969
1374.701172	65416.757813
1373.620117	64734.859375
1372.539063	64365.710938
1371.458008	64455.257813
1370.376953	63872.781250
1369.295898	63706.214844
1368.213867	63914.898438
1367.132813	63833.738281
1366.050781	63269.746094
1364.967773	63889.300781
1363.885742	63778.996094
1362.802734	63659.750000
1361.720703	63554.007813
1360.637695	63719.800781
1359.554688	63351.605469
1358.470703	63622.792969
1357.387695	63315.289063
1356.303711	62951.835938
1355.219727	62223.105469
1354.135742	61877.906250
1353.050781	62057.222656
1351.966797	61622.554688
1350.881836	61797.363281
1349.796875	61340.496094
1348.711914	61237.605469
1347.626953	60713.828125
1346.541016	60734.207031
1345.455078	60472.570313
1344.369141	60812.976563
1343.283203	60117.367188
1342.197266	60576.265625
1341.110352	60102.363281
1340.023438	59892.492188
1338.936523	60044.882813
1337.849609	60112.273438
1336.762695	60038.835938
1335.674805	60769.851563
1334.586914	60629.292969
1333.499023	60298.917969
1332.411133	60980.347656
1331.323242	60464.695313
1330.234375	60701.574219
1329.145508	60773.191406
1328.056641	61043.402344
1326.967773	61371.523438
1325.878906	61652.679688
1324.789063	61630.382813
1323.699219	61808.796875
1322.609375	62181.128906
1321.519531	62029.441406
1320.429688	62874.113281
1319.338867	63185.871094
1318.248047	63649.023438
1317.157227	64074.136719
1316.066406	64492.410156
1314.975586	64596.542969
1313.883789	65635.742188
1312.791992	65570.445313
1311.700195	66077.164063
1310.608398	65698.046875
1309.516602	65824.101563
1308.423828	65476.300781
1307.331055	64977.390625
1306.238281	64360.804688
1305.145508	64444.761719
1304.051758	64319.734375
1302.958984	63596.917969
1301.865234	63820.945313
1300.771484	64024.890625
1299.677734	64739.640625
1298.583008	64836.742188
1297.489258	65513.335938
1296.394531	66127.515625
1295.299805	66233.187500
1294.204102	66487.500000
1293.109375	66786.093750
1292.013672	66325.882813
1290.917969	66160.835938
1289.822266	65820.648438
1288.726563	65194.562500
1287.630859	64881.269531
1286.534180	64785.296875
1285.437500	64498.777344
1284.340820	64471.585938
1283.244141	64043.449219
1282.146484	63154.792969
1281.048828	62873.195313
1279.951172	63284.675781
1278.853516	62841.558594
1277.755859	62571.226563
1276.658203	62624.058594
1275.559570	62035.277344
1274.460938	61933.343750
1273.362305	61833.656250
1272.262695	61347.042969
1271.164063	61497.312500
1270.064453	61357.960938
1268.964844	60807.601563
1267.865234	60133.703125
1266.765625	60334.882813
1265.665039	59793.835938
1264.564453	59721.160156
1263.463867	59831.769531
1262.363281	59935.710938
1261.262695	59609.214844
1260.161133	59944.871094
1259.059570	58965.398438
1257.958008	58996.613281
1256.856445	59550.539063
1255.754883	59427.273438
1254.652344	58697.734375
1253.549805	59004.515625
1252.447266	58251.070313
1251.344727	58747.324219
1250.242188	58637.519531
1249.138672	58353.734375
1248.035156	58490.703125
1246.931641	58819.191406
1245.828125	59015.464844
1244.724609	58727.402344
1243.620117	58509.871094
1242.515625	58387.027344
1241.411133	58807.625000
1240.306641	58554.992188
1239.201172	58504.777344
1238.096680	58318.250000
1236.991211	58606.640625
1235.885742	58725.679688
1234.779297	58279.890625
1233.673828	58812.011719
1232.567383	58823.296875
1231.460938	58726.953125
1230.354492	58573.546875
1229.248047	58407.019531
1228.140625	58734.464844
1227.033203	58469.199219
1225.926758	59250.750000
1224.818359	58891.140625
1223.710938	58375.914063
1222.602539	58692.089844
1221.495117	58407.324219
1220.386719	58672.949219
1219.278320	58995.468750
1218.168945	58353.566406
1217.060547	58413.078125
1215.951172	58525.140625
1214.841797	58026.042969
1213.731445	57735.171875
1212.622070	57985.238281
1211.511719	58154.207031
1210.402344	58106.425781
1209.291992	57831.058594
1208.180664	58411.304688
1207.070313	58236.609375
1205.958984	58643.777344
1204.847656	58980.816406
1203.736328	58620.257813
1202.625000	59086.148438
1201.512695	58896.175781
1200.401367	58961.945313
1199.289063	59230.875000
1198.176758	59735.625000
1197.063477	59506.351563
1195.951172	59753.191406
1194.837891	60342.710938
1193.724609	59995.570313
1192.611328	60580.457031
1191.498047	60739.628906
1190.383789	59884.273438
1189.269531	60289.992188
1188.155273	59581.140625
1187.041016	59596.457031
1185.926758	59208.453125
1184.811523	59053.816406
1183.696289	58931.917969
1182.581055	59210.976563
1181.465820	58315.730469
1180.350586	58991.207031
1179.234375	58477.414063
1178.118164	58664.898438
1177.001953	58541.011719
1175.885742	57701.101563
1174.768555	58271.609375
1173.652344	57919.406250
1172.535156	57965.410156
1171.417969	57624.261719
1170.299805	57824.691406
1169.182617	57698.921875
1168.064453	57675.367188
1166.946289	57701.800781
1165.828125	58056.335938
1164.709961	57350.542969
1163.590820	57524.718750
1162.471680	57553.324219
1161.352539	57525.460938
1160.233398	57436.816406
1159.114258	57521.847656
1157.994141	57893.308594
1156.874023	57429.269531
1155.753906	57468.691406
1154.633789	57390.972656
1153.513672	57573.507813
1152.392578	57595.531250
1151.271484	57684.742188
1150.150391	57518.167969
1149.029297	57414.496094
1147.907227	57802.671875
1146.786133	57618.832031
1145.664063	58164.929688
1144.541992	58056.875000
1143.418945	58210.820313
1142.296875	58540.042969
1141.173828	58704.660156
1140.050781	59343.097656
1138.927734	59200.292969
1137.803711	59373.347656
1136.680664	59710.695313
1135.556641	59588.527344
1134.432617	59466.359375
1133.308594	59344.191406
1132.183594	59221.917969
1131.059570	59221.906250
1129.934570	58936.738281
1128.809570	59096.605469
1127.684570	58908.734375
1126.558594	59351.382813
1125.432617	59128.992188
1124.307617	59485.101563
1123.180664	59456.972656
1122.054688	59282.136719
1120.928711	58887.339844
1119.801758	58585.421875
1118.674805	59120.269531
1117.547852	58624.378906
1116.419922	58861.554688
1115.292969	58428.386719
1114.165039	58749.539063
1113.037109	58844.367188
1111.909180	58717.296875
1110.780273	58159.554688
1109.652344	58344.863281
1108.523438	58103.847656
1107.394531	58465.585938
1106.264648	58383.882813
1105.135742	58581.914063
1104.005859	58526.023438
1102.875977	58252.921875
1101.746094	58227.214844
1100.616211	58399.316406
1099.485352	58855.109375
1098.355469	58861.535156
1097.224609	58521.996094
1096.092773	58887.269531
1094.961914	59129.968750
1093.830078	58217.125000
1092.699219	58535.007813
1091.567383	58741.132813
1090.434570	58520.027344
1089.302734	58359.089844
1088.169922	58247.558594
1087.037109	57842.160156
1085.904297	58224.093750
1084.771484	57979.683594
1083.637695	57812.546875
1082.504883	58181.406250
1081.371094	58187.902344
1080.236328	58082.957031
1079.102539	58543.687500
1077.968750	58168.796875
1076.833984	57744.777344
1075.699219	57948.343750
1074.564453	58288.855469
1073.428711	58674.191406
1072.292969	58276.066406
1071.158203	58166.957031
1070.022461	58365.968750
1068.885742	58460.085938
1067.750000	58532.785156
1066.613281	58735.886719
1065.476563	58359.546875
1064.339844	58218.468750
1063.203125	58975.011719
1062.065430	58583.871094
1060.927734	58887.171875
1059.790039	58669.195313
1058.652344	58908.296875
1057.514648	58464.066406
1056.375977	58920.855469
1055.237305	58265.480469
1054.098633	58641.046875
1052.959961	58615.359375
1051.820313	58945.917969
1050.681641	58642.917969
1049.541992	58732.382813
1048.402344	59160.804688
1047.261719	59435.589844
1046.122070	59021.886719
1044.981445	58853.378906
1043.840820	58880.929688
1042.700195	59127.863281
1041.558594	59225.628906
1040.417969	58895.375000
1039.276367	58831.343750
1038.134766	58735.410156
1036.992188	58328.808594
1035.850586	58573.425781
1034.708008	58401.000000
1033.565430	58947.535156
1032.422852	59009.015625
1031.280273	58387.984375
1030.136719	58589.839844
1028.994141	58504.695313
1027.850586	58893.445313
1026.706055	58461.968750
1025.562500	59313.652344
1024.417969	58440.500000
1023.273438	58865.066406
1022.128906	58773.578125
1020.984375	58353.117188
1019.839844	58991.804688
1018.694336	58683.910156
1017.548828	58847.089844
1016.403320	58594.476563
1015.256836	59408.656250
1014.111328	59310.808594
1012.964844	58714.816406
1011.818359	58848.156250
1010.671875	59142.496094
1009.524414	59479.097656
1008.377930	59074.156250
1007.230469	59109.890625
1006.083008	59113.851563
1004.934570	58952.664063
1003.787109	59164.089844
1002.638672	59582.839844
1001.490234	60126.277344
1000.341797	60667.398438
999.193359	60793.734375
998.043945	60810.046875
996.894531	60570.503906
995.745117	60601.644531
994.595703	60723.660156
993.446289	60264.476563
992.295898	60724.566406
991.145508	60388.070313
989.995117	60227.000000
988.844727	60678.386719
987.693359	60570.101563
986.541992	60525.183594
985.390625	61041.687500
984.239258	61237.250000
983.087891	60761.828125
981.935547	60925.726563
980.783203	60764.769531
979.630859	60719.847656
978.478516	60704.457031
977.325195	60904.066406
976.172852	61242.691406
975.019531	61298.839844
973.865234	60939.953125
972.711914	60480.089844
971.557617	61048.078125
970.404297	60622.046875
969.250000	60909.812500
968.094727	60757.574219
966.940430	60270.800781
965.785156	61012.917969
964.629883	60902.812500
963.474609	61000.957031
962.319336	60869.859375
961.163086	60833.414063
960.007813	60801.187500
958.851563	61313.292969
957.694336	61301.992188
956.538086	61336.914063
955.380859	61239.488281
954.223633	61436.113281
953.066406	61386.992188
951.909180	60781.570313
950.751953	61049.523438
949.593750	61357.246094
948.435547	60972.460938
947.277344	61248.613281
946.118164	60589.230469
944.959961	60894.703125
943.800781	60365.609375
942.641602	60595.542969
941.482422	60735.269531
940.322266	60661.203125
939.162109	61196.824219
938.001953	60768.695313
936.841797	61477.917969
935.681641	61018.480469
934.520508	61266.820313
933.360352	60954.105469
932.198242	61267.230469
931.037109	61157.585938
929.875977	61648.371094
928.713867	61718.566406
927.551758	62250.886719
926.389648	61666.511719
925.227539	62217.457031
924.064453	61936.355469
922.901367	61546.691406
921.738281	61940.648438
920.575195	61983.519531
919.412109	62504.644531
918.248047	62580.800781
917.083984	62794.718750
915.919922	62897.925781
914.755859	63264.046875
913.590820	63237.757813
912.426758	63409.660156
911.261719	63823.449219
910.095703	64132.812500
908.930664	63910.375000
907.764648	65134.761719
906.598633	64370.308594
905.432617	64748.101563
904.266602	64286.101563
903.099609	64317.964844
901.933594	63839.546875
900.766602	63430.023438
899.599609	62747.910156
898.431641	63500.246094
897.264648	63170.085938
896.096680	63206.265625
894.928711	63094.718750
893.759766	63097.613281
892.591797	63223.203125
891.422852	62934.968750
890.253906	63397.312500
889.084961	62720.472656
887.916016	62569.636719
886.746094	62859.332031
885.576172	62743.839844
884.406250	63461.242188
883.236328	63200.312500
882.065430	62858.507813
880.895508	62799.132813
879.724609	63138.257813
878.552734	63554.031250
877.381836	63351.402344
876.209961	63804.312500
875.039063	64018.554688
873.866211	63844.972656
872.694336	64370.089844
871.522461	63970.574219
870.349609	64078.925781
869.176758	63859.867188
868.003906	64051.058594
866.830078	63801.011719
865.657227	64226.136719
864.483398	64230.808594
863.309570	65063.488281
862.135742	65463.300781
860.960938	65471.867188
859.786133	65863.171875
858.611328	65908.890625
857.436523	65822.226563
856.261719	65615.664063
855.085938	65572.500000
853.910156	65200.695313
852.734375	64843.492188
851.558594	65027.765625
850.382813	64893.832031
849.206055	65051.171875
848.029297	65627.656250
846.852539	65706.335938
845.674805	65398.960938
844.498047	66051.421875
843.320313	66212.507813
842.142578	66794.421875
840.963867	67262.656250
839.786133	67446.117188
838.607422	68769.781250
837.428711	69332.218750
836.250000	70143.859375
835.070313	70538.898438
833.891602	70373.335938
832.711914	70032.726563
831.532227	69167.015625
830.352539	68583.750000
829.171875	67590.968750
827.991211	66923.804688
826.810547	66312.460938
825.629883	66127.296875
824.449219	65213.878906
823.267578	64800.656250
822.085938	64383.468750
820.904297	64180.285156
819.722656	63650.289063
818.540039	64105.070313
817.357422	63698.585938
816.174805	63542.929688
814.992188	63847.503906
813.809570	63287.234375
812.625977	62856.546875
811.442383	63087.156250
810.258789	62878.367188
809.074219	62694.281250
807.890625	63244.906250
806.706055	63027.988281
805.521484	63018.332031
804.336914	63193.257813
803.151367	63366.066406
801.966797	63163.628906
800.781250	63051.453125
799.594727	62781.511719
798.409180	62534.203125
797.222656	61975.593750
796.037109	61861.664063
794.849609	61647.425781
793.663086	61549.968750
792.476563	61419.796875
791.289063	61154.582031
790.101563	60826.027344
788.914063	61066.371094
787.725586	60525.207031
786.538086	60785.968750
785.349609	60799.203125
784.161133	60667.269531
782.971680	60290.097656
781.783203	60581.351563
780.593750	60261.542969
779.404297	59868.300781
778.214844	59818.355469
777.024414	60448.472656
775.834961	59934.941406
774.644531	59633.910156
773.454102	60320.847656
772.262695	59787.214844
771.072266	60071.925781
769.880859	59558.933594
768.689453	59890.484375
767.497070	59540.839844
766.305664	59941.585938
765.113281	60450.214844
763.920898	60758.925781
762.728516	60435.859375
761.536133	61200.796875
760.342773	61089.593750
759.149414	60811.437500
757.956055	61307.101563
756.762695	61831.078125
755.568359	61945.753906
754.374023	61997.300781
753.179688	62185.140625
751.985352	61575.500000
750.791016	61690.125000
749.595703	61373.613281
748.400391	61069.417969
747.205078	60698.250000
746.009766	60341.445313
744.813477	60328.167969
743.617188	59809.035156
742.420898	59507.429688
741.224609	59421.199219
740.027344	59170.531250
738.830078	59815.203125
737.632813	58990.160156
736.435547	58981.187500
735.238281	58860.632813
734.040039	58642.746094
732.841797	58461.445313
731.643555	58685.765625
730.445313	58865.394531
729.246094	58501.714844
728.046875	58278.003906
726.847656	58451.523438
725.648438	58124.582031
724.449219	58192.734375
723.249023	58297.308594
722.048828	58383.617188
720.848633	58182.433594
719.647461	58580.421875
718.447266	58152.625000
717.246094	58006.214844
716.044922	57813.332031
714.842773	58364.789063
713.641602	58214.371094
712.439453	58098.375000
711.237305	58259.339844
710.035156	58230.277344
708.832031	58492.183594
707.629883	57867.117188
706.426758	58320.871094
705.223633	58150.445313
704.019531	58549.457031
702.815430	58922.078125
701.612305	58973.640625
700.408203	58359.253906
699.203125	58538.003906
697.999023	58391.917969
696.793945	58600.839844
695.588867	58402.363281
694.383789	58905.546875
693.177734	59045.714844
691.971680	59024.605469
690.766602	59297.679688
689.559570	59490.066406
688.353516	59940.199219
687.146484	59560.464844
685.939453	59438.593750
684.732422	59173.835938
683.525391	58915.210938
682.318359	58698.941406
681.110352	58915.312500
679.902344	58487.902344
678.693359	58320.093750
677.485352	58638.957031
676.276367	58535.511719
675.067383	58649.183594
673.858398	58429.207031
672.649414	58585.050781
671.439453	58748.867188
670.229492	58334.156250
669.019531	58505.984375
667.809570	58615.503906
666.598633	58427.882813
665.387695	58234.308594
664.176758	58014.714844
662.965820	58405.117188
661.754883	58009.046875
660.542969	58156.625000
659.331055	58201.882813
658.119141	58026.593750
656.906250	58162.054688
655.694336	57806.468750
654.481445	58030.074219
653.268555	57935.066406
652.054688	58202.621094
650.841797	58063.558594
649.627930	57846.460938
648.414063	58512.230469
647.200195	58733.433594
645.985352	59020.585938
644.770508	58919.496094
643.555664	59200.500000
642.340820	59119.410156
641.125977	59570.226563
639.910156	59758.980469
638.694336	59479.941406
637.478516	59462.800781
636.262695	58992.105469
635.045898	59210.777344
633.829102	59489.285156
632.612305	58551.566406
631.395508	58662.378906
630.177734	58527.617188
628.959961	58225.257813
627.742188	58270.210938
626.524414	57968.007813
625.306641	58180.539063
624.087891	58223.472656
622.869141	57662.230469
621.650391	57663.375000
620.430664	58075.109375
619.211914	57908.777344
617.992188	57957.683594
616.772461	57741.628906
615.551758	57742.746094
614.332031	57797.621094
613.111328	57932.113281
611.890625	57698.300781
610.669922	58280.546875
609.448242	58092.511719
608.226563	58031.871094
607.004883	57800.191406
605.783203	57616.324219
604.561523	57549.835938
603.338867	57640.414063
602.116211	57667.355469
600.893555	58254.671875
599.669922	58257.640625
598.447266	58171.214844
597.223633	58142.414063
596.000000	57831.652344
594.775391	57771.156250
593.551758	58065.988281
592.327148	58019.355469
591.102539	58333.867188
589.877930	58314.968750
588.652344	58752.277344
587.426758	58376.347656
586.201172	58767.867188
584.975586	58758.804688
583.750000	58791.367188
582.523438	59634.386719
581.296875	59373.542969
580.070313	58879.050781
578.842773	59866.144531
577.616211	59417.285156
576.388672	60081.207031
575.161133	59834.363281
573.932617	59753.847656
572.705078	60209.562500
571.476563	59721.480469
570.248047	59641.023438
569.018555	59815.691406
567.790039	59569.160156
566.560547	59196.203125
565.331055	59141.585938
564.101563	59177.882813
562.871094	58676.789063
561.641602	58280.566406
560.411133	58607.308594
559.179688	57946.660156
557.949219	57552.765625
556.717773	58224.863281
555.486328	57913.945313
554.254883	57812.281250
553.023438	57525.222656
551.791016	57553.839844
550.558594	57582.441406
549.326172	57492.738281
548.093750	57481.910156
546.860352	56976.410156
545.627930	57391.296875
544.393555	56943.128906
543.160156	57009.222656
541.926758	57323.425781
540.692383	57084.226563
539.458008	57120.718750
538.223633	57080.433594
536.988281	57331.402344
535.752930	56913.332031
534.517578	57142.593750
533.282227	57090.523438
532.046875	57488.769531
530.810547	57165.339844
529.574219	56936.378906
528.337891	57369.796875
527.101563	57647.820313
525.864258	57839.296875
524.626953	57533.769531
523.389648	57530.777344
522.152344	57433.539063
520.914063	57328.480469
519.675781	57380.476563
518.437500	57677.734375
517.199219	57564.835938
515.959961	57675.593750
514.721680	57788.269531
513.482422	57422.460938
512.242188	57842.921875
511.002930	57871.210938
509.762695	57970.035156
508.522461	57580.945313
507.282227	57399.648438
506.041016	57369.230469
504.800781	57565.972656
503.559570	57339.746094
502.318359	57346.539063
501.076172	57341.585938
499.833984	57140.953125
498.592773	57511.660156
497.349609	57827.453125
496.107422	57609.238281
494.864258	57310.933594
493.622070	57708.687500
492.377930	57920.605469
491.134766	57677.117188
489.891602	57674.039063
488.647461	57393.574219
487.403320	57980.363281
486.158203	57309.402344
484.914063	58227.878906
483.668945	57313.125000
482.423828	57897.527344
481.178711	57808.539063
479.932617	58375.062500
478.686523	58557.125000
477.440430	58407.601563
476.194336	58301.023438
474.948242	58311.445313
473.701172	58785.722656
472.454102	58718.097656
471.207031	58868.703125
469.958984	58545.906250
468.711914	58953.554688
467.463867	59255.898438
466.215820	58946.832031
464.966797	59159.523438
463.718750	59584.250000
462.469727	59767.546875
461.220703	60188.101563
459.970703	59861.632813
458.721680	60517.296875
457.471680	60515.570313
456.221680	60813.191406
454.970703	61223.417969
453.720703	61112.730469
452.469727	61345.949219
451.218750	61971.437500
449.966797	61905.332031
448.715820	62837.250000
447.463867	63312.613281
446.211914	63803.320313
444.959961	64322.949219
443.707031	65166.382813
442.454102	65223.875000
441.201172	64868.246094
439.948242	64295.570313
438.695313	63321.796875
437.441406	62455.000000
436.187500	61762.945313
434.933594	61689.242188
433.678711	60470.660156
432.424805	60147.367188
431.169922	59657.656250
429.914063	59512.757813
428.659180	59530.519531
427.403320	59594.718750
426.147461	59122.886719
424.891602	59465.722656
423.635742	58317.085938
422.378906	58837.863281
421.122070	58948.523438
419.865234	58784.625000
418.608398	59092.394531
417.350586	58484.058594
416.092773	58204.410156
414.834961	58801.867188
413.577148	58808.097656
412.318359	58634.738281
411.059570	58279.964844
409.800781	58703.222656
408.541992	58446.988281
407.282227	58570.968750
406.022461	58615.800781
404.762695	57862.089844
403.502930	58720.835938
402.242188	58295.160156
400.981445	58332.289063
