#Wave		#Intensity
2001.221680	38886.066406
2000.251953	39079.066406
1999.282227	38586.066406
1998.312500	38864.972656
1997.342773	38925.828125
1996.372070	39071.824219
1995.402344	38684.343750
1994.431641	39248.476563
1993.460938	39028.828125
1992.490234	39344.902344
1991.518555	39182.871094
1990.547852	38793.203125
1989.576172	38891.500000
1988.604492	39227.378906
1987.632813	39423.093750
1986.661133	39038.648438
1985.689453	38739.335938
1984.716797	39157.488281
1983.745117	38933.226563
1982.772461	39073.843750
1981.799805	39224.406250
1980.827148	39297.480469
1979.853516	39098.316406
1978.880859	39311.214844
1977.907227	38962.328125
1976.933594	38855.679688
1975.959961	39163.332031
1974.986328	39720.390625
1974.011719	39144.652344
1973.038086	39746.417969
1972.063477	38973.859375
1971.088867	39009.433594
1970.114258	39040.007813
1969.138672	39422.019531
1968.164063	39101.121094
1967.188477	39413.218750
1966.212891	39194.570313
1965.237305	38933.656250
1964.261719	39076.269531
1963.286133	39569.910156
1962.309570	38903.277344
1961.333984	39580.960938
1960.357422	39434.675781
1959.380859	39470.078125
1958.404297	39060.160156
1957.426758	39501.042969
1956.450195	39618.476563
1955.472656	39154.039063
1954.495117	39768.691406
1953.517578	39373.984375
1952.540039	39188.164063
1951.561523	39235.968750
1950.583008	39306.117188
1949.605469	39391.140625
1948.626953	39471.164063
1947.647461	39568.542969
1946.668945	39566.582031
1945.690430	39318.890625
1944.710938	39580.027344
1943.731445	39121.515625
1942.751953	39484.304688
1941.772461	39157.425781
1940.791992	39453.121094
1939.812500	39448.695313
1938.832031	39620.277344
1937.851563	39442.316406
1936.871094	39271.847656
1935.890625	39445.847656
1934.909180	39738.695313
1933.928711	39617.796875
1932.947266	39804.023438
1931.965820	39239.945313
1930.984375	39879.199219
1930.002930	39453.914063
1929.020508	39145.085938
1928.038086	40142.789063
1927.056641	39816.628906
1926.074219	39777.496094
1925.090820	39876.867188
1924.108398	39625.097656
1923.125000	39746.703125
1922.142578	39732.320313
1921.159180	39876.105469
1920.175781	39997.597656
1919.191406	39755.902344
1918.208008	39778.570313
1917.223633	39687.636719
1916.240234	39826.355469
1915.255859	39705.816406
1914.271484	39639.617188
1913.286133	40069.464844
1912.301758	39914.398438
1911.316406	40260.167969
1910.331055	40255.574219
1909.345703	39841.617188
1908.360352	39531.359375
1907.375000	39322.281250
1906.388672	39633.335938
1905.402344	39936.890625
1904.416016	39717.992188
1903.429688	39708.558594
1902.443359	39728.687500
1901.457031	40251.175781
1900.469727	40300.746094
1899.482422	39833.328125
1898.495117	40338.292969
1897.507813	39952.238281
1896.520508	39984.597656
1895.532227	39667.617188
1894.543945	40356.714844
1893.556641	40280.777344
1892.568359	39666.406250
1891.579102	40453.468750
1890.590820	40060.484375
1889.601563	39945.328125
1888.613281	40098.019531
1887.624023	39931.304688
1886.634766	40101.132813
1885.644531	39757.664063
1884.655273	39770.324219
1883.665039	39888.539063
1882.674805	39729.359375
1881.684570	40264.710938
1880.694336	40269.906250
1879.704102	39831.089844
1878.712891	39289.410156
1877.722656	39927.449219
1876.731445	39881.207031
1875.740234	39957.546875
1874.748047	39823.078125
1873.756836	40124.847656
1872.764648	40127.597656
1871.773438	40419.406250
1870.781250	40351.074219
1869.788086	40028.089844
1868.795898	40371.171875
1867.803711	40682.308594
1866.810547	40183.210938
1865.817383	40474.691406
1864.824219	40308.546875
1863.831055	40394.417969
1862.837891	40590.316406
1861.843750	40363.097656
1860.849609	40316.886719
1859.855469	40258.460938
1858.861328	40466.460938
1857.867188	40669.500000
1856.872070	40295.867188
1855.877930	40562.375000
1854.882813	40242.621094
1853.887695	40404.035156
1852.892578	40499.472656
1851.896484	40536.289063
1850.901367	40387.601563
1849.905273	40495.187500
1848.909180	41056.531250
1847.913086	40817.570313
1846.916992	40483.578125
1845.919922	40554.484375
1844.923828	40939.878906
1843.926758	40949.738281
1842.929688	40891.351563
1841.932617	41196.062500
1840.935547	41215.613281
1839.937500	40577.457031
1838.939453	40945.382813
1837.942383	41215.769531
1836.943359	41106.261719
1835.945313	41167.183594
1834.947266	41342.468750
1833.948242	41524.992188
1832.949219	41252.496094
1831.951172	41549.292969
1830.951172	41631.964844
1829.952148	41807.007813
1828.953125	41512.761719
1827.953125	41665.882813
1826.953125	41860.265625
1825.953125	41580.742188
1824.953125	41536.976563
1823.952148	41886.734375
1822.952148	41587.917969
1821.951172	42119.656250
1820.950195	41990.847656
1819.949219	41903.347656
1818.948242	42349.796875
1817.946289	42206.453125
1816.945313	41944.281250
1815.943359	42397.761719
1814.941406	42278.730469
1813.939453	41994.855469
1812.936523	41987.453125
1811.934570	42593.308594
1810.931641	42021.125000
1809.928711	42769.718750
1808.925781	42529.605469
1807.921875	42534.218750
1806.918945	42805.226563
1805.915039	43015.605469
1804.912109	43080.648438
1803.908203	42496.972656
1802.903320	43205.824219
1801.899414	43021.570313
1800.894531	43084.140625
1799.890625	43473.226563
1798.885742	42955.285156
1797.880859	43223.355469
1796.875000	43875.714844
1795.870117	43573.089844
1794.864258	43106.234375
1793.858398	43707.527344
1792.852539	43685.320313
1791.846680	43861.183594
1790.840820	43397.015625
1789.833984	43543.890625
1788.828125	44040.757813
1787.821289	44008.851563
1786.814453	44025.214844
1785.806641	43945.062500
1784.799805	43908.359375
1783.791992	44204.519531
1782.784180	44302.824219
1781.776367	44263.660156
1780.768555	44569.238281
1779.760742	44787.937500
1778.751953	44613.750000
1777.743164	44536.000000
1776.735352	44737.722656
1775.725586	45042.937500
1774.716797	44864.007813
1773.708008	44983.695313
1772.698242	45151.484375
1771.688477	45364.941406
1770.678711	44594.082031
1769.668945	45267.113281
1768.659180	45309.636719
1767.648438	45804.316406
1766.637695	45560.558594
1765.626953	45465.953125
1764.616211	45784.855469
1763.605469	45783.976563
1762.593750	45119.851563
1761.583008	45839.875000
1760.571289	45894.234375
1759.559570	45756.425781
1758.547852	46062.917969
1757.535156	46153.218750
1756.523438	46370.707031
1755.510742	46252.109375
1754.498047	46107.152344
1753.485352	46305.335938
1752.472656	46503.449219
1751.458984	46308.152344
1750.445313	46551.753906
1749.432617	46836.023438
1748.417969	46782.195313
1747.404297	47047.144531
1746.390625	46856.710938
1745.375977	47044.882813
1744.361328	47625.839844
1743.346680	47603.042969
1742.332031	47865.210938
1741.317383	47028.367188
1740.302734	48085.261719
1739.287109	47356.367188
1738.271484	48195.070313
1737.255859	48566.945313
1736.240234	48843.007813
1735.223633	48953.945313
1734.208008	49129.402344
1733.191406	49895.320313
1732.174805	49862.585938
1731.158203	49789.234375
1730.140625	50236.816406
1729.124023	50717.683594
1728.106445	50629.882813
1727.088867	50792.875000
1726.071289	51633.941406
1725.053711	51462.457031
1724.035156	51806.617188
1723.017578	52496.703125
1721.999023	52017.343750
1720.980469	52733.382813
1719.961914	52115.800781
1718.942383	53067.664063
1717.923828	52822.210938
1716.904297	52710.343750
1715.884766	53103.832031
1714.865234	53266.015625
1713.844727	52977.796875
1712.825195	53351.968750
1711.804688	53590.234375
1710.784180	53416.417969
1709.763672	53311.710938
1708.743164	53266.554688
1707.722656	53380.890625
1706.701172	52702.710938
1705.679688	52893.238281
1704.658203	53012.328125
1703.636719	52831.679688
1702.615234	52765.242188
1701.592773	52634.628906
1700.571289	52653.824219
1699.548828	52558.925781
1698.526367	52554.359375
1697.502930	52411.988281
1696.480469	52215.027344
1695.457031	52809.054688
1694.433594	52279.628906
1693.410156	52151.640625
1692.386719	52607.675781
1691.363281	52031.089844
1690.338867	52150.003906
1689.314453	52022.125000
1688.290039	52382.960938
1687.265625	52134.121094
1686.241211	52402.320313
1685.215820	52476.007813
1684.191406	52883.910156
1683.166016	52921.929688
1682.140625	52260.878906
1681.115234	52467.210938
1680.088867	53000.363281
1679.062500	52877.273438
1678.037109	53381.746094
1677.010742	52967.417969
1675.983398	53500.093750
1674.957031	53793.542969
1673.930664	53717.738281
1672.903320	53275.242188
1671.875977	53589.855469
1670.848633	53481.007813
1669.820313	53934.984375
1668.792969	53932.500000
1667.764648	54232.582031
1666.736328	53993.703125
1665.708008	53726.554688
1664.679688	54194.246094
1663.651367	54191.707031
1662.622070	54526.890625
1661.592773	54814.726563
1660.563477	54972.613281
1659.534180	55061.988281
1658.504883	55035.687500
1657.474609	54990.515625
1656.444336	55379.445313
1655.415039	55836.644531
1654.383789	55546.078125
1653.353516	55680.042969
1652.323242	55637.144531
1651.291992	56108.101563
1650.260742	56180.613281
1649.229492	56342.636719
1648.198242	56492.820313
1647.166016	57168.203125
1646.134766	57122.714844
1645.102539	57220.871094
1644.070313	57622.675781
1643.038086	57756.011719
1642.004883	57533.945313
1640.972656	58119.000000
1639.939453	58630.914063
1638.906250	58434.675781
1637.873047	58692.371094
1636.839844	59448.433594
1635.805664	59167.519531
1634.772461	59718.738281
1633.738281	60363.761719
1632.704102	59967.695313
1631.668945	60539.613281
1630.634766	60904.640625
1629.599609	61147.421875
1628.565430	61563.855469
1627.530273	61893.285156
1626.494141	62215.554688
1625.458984	62927.246094
1624.422852	63059.164063
1623.387695	64239.609375
1622.351563	64401.734375
1621.315430	65203.972656
1620.278320	66338.851563
1619.242188	68143.734375
1618.205078	69233.148438
1617.167969	70739.281250
1616.130859	72783.726563
1615.093750	74155.164063
1614.055664	76125.664063
1613.018555	77882.375000
1611.980469	78943.125000
1610.942383	80017.531250
1609.904297	79998.601563
1608.865234	79799.500000
1607.827148	78751.210938
1606.788086	77492.765625
1605.749023	75996.226563
1604.709961	74776.132813
1603.669922	73519.062500
1602.630859	72283.476563
1601.590820	70573.906250
1600.550781	70323.000000
1599.510742	69682.031250
1598.470703	69342.601563
1597.429688	68645.976563
1596.389648	68028.992188
1595.348633	68231.648438
1594.307617	67888.039063
1593.265625	67861.937500
1592.224609	67429.843750
1591.182617	67763.093750
1590.140625	67604.070313
1589.098633	67382.132813
1588.056641	67932.039063
1587.014648	66952.476563
1585.971680	66928.882813
1584.928711	67061.429688
1583.886719	67883.601563
1582.842773	67561.664063
1581.799805	67698.679688
1580.755859	67752.234375
1579.712891	67805.734375
1578.668945	67859.281250
1577.625000	67912.835938
1576.580078	67966.437500
1575.536133	68263.757813
1574.491211	68326.015625
1573.446289	68546.406250
1572.401367	69129.476563
1571.356445	69484.492188
1570.311523	69467.437500
1569.265625	69966.359375
1568.219727	70339.609375
1567.173828	69592.882813
1566.127930	69329.585938
1565.082031	68843.421875
1564.035156	69448.812500
1562.988281	68742.234375
1561.941406	68595.328125
1560.894531	68200.140625
1559.847656	67974.484375
1558.799805	67902.031250
1557.751953	68059.234375
1556.704102	67912.570313
1555.656250	67552.625000
1554.608398	68103.914063
1553.560547	68045.398438
1552.511719	67572.054688
1551.462891	67933.039063
1550.414063	67856.039063
1549.365234	67772.109375
1548.315430	68332.023438
1547.265625	67585.812500
1546.216797	68231.210938
1545.166992	67698.226563
1544.116211	67857.375000
1543.066406	67549.085938
1542.015625	67301.046875
1540.965820	67254.328125
1539.915039	66543.914063
1538.863281	66631.437500
1537.812500	66189.546875
1536.760742	66568.328125
1535.709961	65666.726563
1534.658203	65234.476563
1533.605469	64998.734375
1532.553711	65231.937500
1531.501953	64298.882813
1530.449219	64455.929688
1529.396484	64167.390625
1528.343750	63516.593750
1527.290039	63327.546875
1526.237305	62621.757813
1525.183594	63650.914063
1524.129883	62394.089844
1523.076172	62742.656250
1522.022461	62404.042969
1520.968750	62489.695313
1519.914063	61607.332031
1518.859375	61557.136719
1517.804688	61527.687500
1516.750000	61714.777344
1515.694336	61385.910156
1514.639648	61506.175781
1513.583984	61430.703125
1512.528320	61316.125000
1511.472656	61293.644531
1510.416016	61259.660156
1509.360352	61126.761719
1508.303711	60724.789063
1507.247070	61509.636719
1506.190430	60992.765625
1505.132813	60455.386719
1504.076172	61145.613281
1503.018555	60872.675781
1501.960938	60939.898438
1500.903320	60602.765625
1499.844727	61168.429688
1498.787109	60790.039063
1497.728516	60218.910156
1496.669922	60295.355469
1495.611328	60378.660156
1494.552734	60689.117188
1493.493164	60359.320313
1492.434570	60444.851563
1491.375000	60262.003906
1490.315430	60170.941406
1489.254883	60471.976563
1488.195313	60225.023438
1487.134766	60214.230469
1486.074219	60107.195313
1485.013672	59924.585938
1483.953125	59977.984375
1482.892578	59699.265625
1481.831055	59429.804688
1480.769531	60078.519531
1479.708008	60040.281250
1478.646484	60006.628906
1477.583984	59522.199219
1476.522461	59520.675781
1475.459961	59128.000000
1474.397461	59446.726563
1473.334961	59532.101563
1472.271484	59247.078125
1471.208984	59481.031250
1470.145508	59351.523438
1469.082031	59011.835938
1468.018555	59120.046875
1466.954102	59235.070313
1465.890625	58938.972656
1464.826172	59508.363281
1463.761719	59312.769531
1462.697266	59416.250000
1461.631836	59581.308594
1460.567383	59378.953125
1459.501953	59813.148438
1458.436523	59508.179688
1457.371094	59632.042969
1456.305664	59051.324219
1455.239258	59487.535156
1454.172852	60014.753906
1453.107422	60019.933594
1452.040039	59808.652344
1450.973633	59663.511719
1449.907227	59456.921875
1448.839844	59150.210938
1447.772461	59401.417969
1446.705078	59092.542969
1445.637695	59386.910156
1444.569336	59442.230469
1443.500977	59194.937500
1442.432617	59727.968750
1441.364258	59742.253906
1440.295898	59731.523438
1439.227539	60132.296875
1438.158203	60310.160156
1437.088867	60303.867188
1436.019531	60368.015625
1434.950195	60259.476563
1433.879883	60575.738281
1432.810547	60630.710938
1431.740234	61055.781250
1430.669922	60958.535156
1429.598633	60943.039063
1428.528320	61222.570313
1427.457031	61197.949219
1426.386719	60547.195313
1425.314453	60890.148438
1424.243164	61083.300781
1423.171875	60827.437500
1422.099609	60977.457031
1421.027344	61206.746094
1419.955078	61114.156250
1418.882813	61023.859375
1417.810547	60969.843750
1416.737305	60983.789063
1415.664063	60461.031250
1414.590820	60144.496094
1413.517578	60559.253906
1412.444336	60498.566406
1411.370117	59824.648438
1410.295898	59662.292969
1409.221680	60316.613281
1408.147461	59986.859375
1407.073242	59867.523438
1405.998047	59662.312500
1404.922852	59751.031250
1403.847656	59577.550781
1402.772461	59377.015625
1401.697266	59488.324219
1400.621094	59217.847656
1399.544922	59482.714844
1398.468750	59528.457031
1397.392578	59641.906250
1396.316406	59818.515625
1395.239258	60383.230469
1394.162109	60392.660156
1393.084961	60397.578125
1392.007813	61435.546875
1390.930664	61753.738281
1389.852539	61884.664063
1388.774414	62306.355469
1387.696289	62369.511719
1386.618164	63185.332031
1385.540039	62308.734375
1384.460938	63320.253906
1383.382813	63419.210938
1382.303711	63238.886719
1381.223633	63693.554688
1380.144531	63468.218750
1379.064453	63236.207031
1377.985352	63353.078125
1376.905273	63512.652344
1375.825195	62911.832031
1374.744141	63518.992188
1373.664063	63071.292969
1372.583008	63158.847656
1371.501953	62792.292969
1370.420898	62637.132813
1369.338867	62643.812500
1368.257813	61936.046875
1367.175781	62205.660156
1366.093750	61707.089844
1365.011719	61527.550781
1363.929688	62053.019531
1362.846680	61893.675781
1361.763672	62100.203125
1360.680664	61714.277344
1359.597656	61694.171875
1358.514648	61548.457031
1357.430664	61467.832031
1356.346680	61127.132813
1355.262695	60862.777344
1354.178711	60793.515625
1353.094727	60787.027344
1352.009766	60491.500000
1350.925781	59909.332031
1349.840820	59701.417969
1348.755859	59822.761719
1347.669922	59408.945313
1346.584961	59113.921875
1345.499023	58928.671875
1344.413086	58425.722656
1343.327148	59276.554688
1342.240234	58670.820313
1341.154297	58874.933594
1340.067383	58455.085938
1338.980469	58949.804688
1337.893555	58465.265625
1336.805664	58005.480469
1335.718750	58211.753906
1334.630859	58511.781250
1333.542969	58813.929688
1332.455078	58175.738281
1331.367188	58136.199219
1330.278320	58393.597656
1329.189453	58566.078125
1328.100586	58463.992188
1327.011719	58261.535156
1325.922852	58973.816406
1324.833008	59009.996094
1323.743164	59146.515625
1322.653320	59173.726563
1321.563477	59825.128906
1320.473633	60079.546875
1319.382813	60414.097656
1318.291992	60908.949219
1317.201172	61512.773438
1316.110352	61960.468750
1315.019531	62314.468750
1313.927734	62735.132813
1312.835938	62369.843750
1311.744141	62848.207031
1310.652344	62534.203125
1309.560547	62589.636719
1308.467773	62269.113281
1307.375000	62551.421875
1306.282227	62139.847656
1305.189453	61408.273438
1304.095703	60801.437500
1303.002930	60685.980469
1301.909180	60666.109375
1300.815430	61003.929688
1299.721680	60370.941406
1298.626953	60570.992188
1297.533203	60562.250000
1296.438477	61006.390625
1295.343750	60948.734375
1294.248047	60837.835938
1293.153320	61368.214844
1292.057617	61578.945313
1290.961914	61669.824219
1289.866211	61416.933594
1288.770508	61935.726563
1287.674805	62095.203125
1286.578125	62409.769531
1285.481445	62398.464844
1284.384766	62648.605469
1283.288086	62110.039063
1282.190430	62094.355469
1281.092773	61545.003906
1279.996094	61939.019531
1278.897461	61535.988281
1277.799805	61365.484375
1276.702148	61361.003906
1275.603516	60854.304688
1274.504883	60836.640625
1273.406250	60849.941406
1272.307617	60091.527344
1271.208008	60416.675781
1270.108398	60089.636719
1269.008789	59983.714844
1267.909180	59321.011719
1266.809570	59411.878906
1265.708984	59310.542969
1264.609375	58838.234375
1263.508789	59134.476563
1262.407227	58911.824219
1261.306641	58461.910156
1260.206055	58724.949219
1259.104492	58425.257813
1258.002930	58357.304688
1256.901367	58721.671875
1255.798828	58269.980469
1254.697266	57972.785156
1253.594727	57380.308594
1252.492188	57482.300781
1251.389648	57656.972656
1250.286133	57362.296875
1249.183594	57109.582031
1248.080078	57103.621094
1246.976563	57438.968750
1245.872070	57450.558594
1244.768555	56691.726563
1243.664063	56714.445313
1242.560547	56468.707031
1241.455078	56876.457031
1240.350586	56731.953125
1239.246094	57223.070313
1238.140625	57230.269531
1237.035156	57105.562500
1235.929688	56598.441406
1234.824219	56649.695313
1233.717773	56920.648438
1232.612305	56046.968750
1231.505859	56052.164063
1230.399414	56470.203125
1229.291992	55702.460938
1228.185547	55878.933594
1227.078125	55939.015625
1225.970703	56198.761719
1224.863281	55295.589844
1223.755859	55605.808594
1222.647461	55865.468750
1221.539063	55609.718750
1220.430664	55275.136719
1219.322266	54984.511719
1218.213867	55165.187500
1217.104492	55185.835938
1215.995117	55072.835938
1214.885742	55113.203125
1213.776367	55258.675781
1212.666992	54701.222656
1211.556641	55045.929688
1210.446289	54810.468750
1209.335938	54782.996094
1208.225586	55254.398438
1207.115234	55117.468750
1206.003906	55424.589844
1204.892578	55355.464844
1203.781250	55334.476563
1202.669922	55313.484375
1201.557617	55292.476563
1200.446289	55795.949219
1199.333984	55493.027344
1198.221680	55766.910156
1197.108398	56318.062500
1195.996094	56246.671875
1194.882813	55795.417969
1193.769531	56169.445313
1192.656250	56521.511719
1191.542969	56413.031250
1190.428711	55881.339844
1189.314453	56451.386719
1188.200195	56395.312500
1187.085938	56232.410156
1185.971680	56289.753906
1184.856445	56532.347656
1183.741211	56447.957031
1182.625977	56958.433594
1181.510742	55930.703125
1180.395508	56678.496094
1179.279297	56511.375000
1178.163086	56925.656250
1177.046875	56756.375000
1175.930664	56534.914063
1174.813477	56317.882813
1173.697266	55957.328125
1172.580078	56501.839844
1171.462891	56013.062500
1170.344727	55728.863281
1169.227539	55723.054688
1168.109375	55458.574219
1166.991211	55841.839844
1165.873047	55462.261719
1164.754883	55534.707031
1163.635742	55498.519531
1162.516602	55418.906250
1161.397461	55597.710938
1160.278320	55361.792969
1159.159180	55418.988281
1158.039063	55176.671875
1156.918945	55285.949219
1155.798828	55345.285156
1154.678711	55285.304688
1153.558594	55234.019531
1152.437500	55288.992188
1151.316406	55395.968750
1150.195313	55015.234375
1149.074219	55011.699219
1147.952148	54613.839844
1146.831055	54894.148438
1145.708984	55299.968750
1144.586914	55655.835938
1143.463867	55528.769531
1142.341797	56163.699219
1141.218750	55984.636719
1140.095703	56151.855469
1138.972656	56124.296875
1137.849609	56845.164063
1136.725586	56655.289063
1135.601563	56699.000000
1134.477539	56600.011719
1133.353516	56715.042969
1132.229492	56393.492188
1131.104492	56415.605469
1129.979492	56135.265625
1128.854492	56213.570313
1127.729492	55810.273438
1126.603516	55402.804688
1125.478516	55466.078125
1124.352539	55745.164063
1123.226563	55614.136719
1122.099609	55660.070313
1120.973633	55255.144531
1119.846680	55214.855469
1118.719727	54588.050781
1117.592773	55263.667969
1116.465820	54417.210938
1115.337891	54599.078125
1114.209961	54692.527344
1113.082031	54318.441406
1111.954102	54129.730469
1110.826172	54501.023438
1109.697266	54519.050781
1108.568359	54250.746094
1107.439453	53941.640625
1106.310547	53735.945313
1105.180664	53909.007813
1104.051758	54041.132813
1102.921875	53624.738281
1101.791992	54100.933594
1100.661133	53512.675781
1099.531250	53696.355469
1098.400391	54185.164063
1097.269531	54196.738281
1096.138672	53944.046875
1095.006836	53766.628906
1093.875977	53325.101563
1092.744141	53132.824219
1091.612305	52826.828125
1090.480469	52991.031250
1089.347656	52974.894531
1088.215820	52866.496094
1087.083008	52755.988281
1085.950195	52501.808594
1084.816406	52689.496094
1083.683594	52433.273438
1082.549805	52288.617188
1081.416016	52673.425781
1080.282227	52372.335938
1079.148438	52724.843750
1078.013672	52526.675781
1076.878906	52604.871094
1075.744141	52522.429688
1074.609375	52240.898438
1073.474609	52368.332031
1072.338867	52457.191406
1071.203125	52445.441406
1070.067383	52598.433594
1068.931641	52436.921875
1067.794922	52189.921875
1066.659180	52214.574219
1065.522461	52668.925781
1064.385742	52498.964844
1063.248047	52472.246094
1062.111328	52176.308594
1060.973633	52025.750000
1059.835938	52159.320313
1058.698242	52288.570313
1057.559570	51907.472656
1056.421875	52173.339844
1055.283203	52259.820313
1054.144531	51992.027344
1053.005859	52172.382813
1051.866211	52623.585938
1050.726563	52577.675781
1049.587891	51932.578125
1048.447266	52502.960938
1047.307617	52384.617188
1046.167969	52300.417969
1045.027344	52512.429688
1043.886719	52487.886719
1042.746094	52742.382813
1041.604492	52313.160156
1040.463867	52314.210938
1039.322266	52264.164063
1038.180664	52671.757813
1037.038086	52317.339844
1035.896484	52009.855469
1034.753906	52666.164063
1033.611328	52707.542969
1032.468750	51921.679688
1031.326172	52275.722656
1030.182617	52504.210938
1029.040039	52320.289063
1027.896484	52608.183594
1026.751953	52483.796875
1025.608398	52546.382813
1024.463867	52383.816406
1023.319336	52537.699219
1022.174805	52326.363281
1021.030273	52100.246094
1019.885742	52591.527344
1018.740234	52641.277344
1017.594727	52355.816406
1016.449219	52310.140625
1015.303711	52181.769531
1014.157227	52833.718750
1013.010742	52315.230469
1011.864258	52697.730469
1010.717773	52058.664063
1009.571289	52599.968750
1008.423828	52609.367188
1007.276367	52332.832031
1006.128906	52598.500000
1004.981445	52974.160156
1003.833008	52888.214844
1002.684570	53193.839844
1001.536133	53528.968750
1000.387695	53316.027344
999.239258	53930.218750
998.089844	54698.570313
996.941406	54586.062500
995.791992	54473.457031
994.641602	54360.757813
993.492188	54248.156250
992.341797	54135.457031
991.191406	54022.757813
990.041016	53910.058594
988.890625	53756.539063
987.739258	53847.996094
986.588867	54104.070313
985.437500	54292.507813
984.285156	54027.183594
983.133789	53749.296875
981.981445	53775.261719
980.829102	53657.804688
979.676758	53639.496094
978.524414	53338.683594
977.372070	53626.070313
976.218750	53679.421875
975.065430	53454.617188
973.912109	53758.671875
972.757813	53293.812500
971.604492	53479.847656
970.450195	53364.722656
969.295898	53841.183594
968.141602	53376.640625
966.986328	53337.347656
965.832031	53622.082031
964.676758	53443.914063
963.521484	53875.742188
962.365234	53872.125000
961.209961	53914.761719
960.053711	53642.070313
958.897461	53777.203125
957.741211	53933.292969
956.584961	53938.058594
955.427734	53963.824219
954.270508	53928.679688
953.113281	54256.792969
951.956055	54110.335938
950.797852	53856.882813
949.639648	53786.093750
948.481445	53797.160156
947.323242	53994.921875
946.165039	54012.230469
945.005859	54132.285156
943.847656	54208.265625
942.687500	53942.527344
941.528320	53375.082031
940.369141	53354.757813
939.208984	54017.437500
938.048828	53948.820313
936.888672	53987.039063
935.728516	53304.929688
934.567383	53795.449219
933.406250	54009.492188
932.245117	53505.632813
931.083984	53744.750000
929.922852	53854.074219
928.760742	54153.695313
927.598633	54417.648438
926.436523	53882.804688
925.274414	54175.972656
924.111328	54387.519531
922.948242	54233.289063
921.785156	54536.667969
920.622070	54660.289063
919.458984	54882.023438
918.294922	54792.539063
917.130859	54581.996094
915.966797	54924.679688
914.802734	55129.492188
913.637695	55246.593750
912.472656	55714.128906
911.307617	55724.695313
910.142578	55968.820313
908.977539	55847.972656
907.811523	56077.390625
906.645508	55969.070313
905.479492	56094.179688
904.313477	55921.300781
903.146484	55633.910156
901.980469	55894.382813
900.813477	55792.429688
899.646484	55303.261719
898.478516	55191.042969
897.311523	55035.156250
896.143555	54993.769531
894.975586	55021.050781
893.806641	55017.117188
892.638672	55154.597656
891.469727	55200.539063
890.300781	55038.570313
889.131836	55086.589844
887.962891	54800.011719
886.792969	55224.121094
885.623047	55247.144531
884.453125	55396.851563
883.283203	55243.316406
882.112305	55556.984375
880.942383	55474.050781
879.771484	55824.910156
878.600586	55656.875000
877.428711	55866.492188
876.257813	56113.363281
875.085938	56069.792969
873.914063	56206.636719
872.741211	56368.300781
871.569336	56279.101563
870.396484	56542.234375
869.223633	56492.398438
868.050781	56173.269531
866.877930	56254.003906
865.704102	56566.632813
864.530273	56924.699219
863.356445	56808.582031
862.182617	57743.902344
861.007813	57909.097656
859.833984	57679.066406
858.659180	57955.906250
857.484375	58298.820313
856.308594	57810.367188
855.133789	57286.949219
853.958008	57247.394531
852.782227	57149.988281
851.605469	57069.148438
850.429688	56682.589844
849.252930	56698.933594
848.076172	57062.203125
846.899414	57417.078125
845.722656	57472.492188
844.544922	57325.617188
843.367188	57539.917969
842.189453	57892.367188
841.011719	57894.007813
839.833008	58885.597656
838.655273	59076.757813
837.476563	59249.285156
836.296875	59469.156250
835.118164	59886.789063
833.938477	59401.769531
832.758789	59594.699219
831.579102	58918.355469
830.399414	58767.386719
829.219727	57881.425781
828.039063	57580.429688
826.858398	57090.183594
825.677734	56398.457031
824.496094	56682.203125
823.315430	56155.363281
822.133789	55690.417969
820.952148	55725.320313
819.769531	55011.855469
818.587891	55151.695313
817.405273	55233.937500
816.222656	55289.437500
815.040039	55028.535156
813.856445	54726.652344
812.673828	54804.792969
811.490234	54774.085938
810.305664	54560.679688
809.122070	54421.242188
807.938477	54292.113281
806.753906	54378.457031
805.569336	54263.738281
804.383789	54309.031250
803.199219	54198.464844
802.013672	54452.867188
800.828125	53973.343750
799.642578	53649.753906
798.457031	53770.921875
797.270508	53242.621094
796.083984	53644.429688
794.897461	53052.855469
793.710938	53364.453125
792.523438	53182.574219
791.336914	52417.433594
790.149414	52868.121094
788.961914	52663.921875
787.773438	52455.707031
786.585938	52599.343750
785.397461	52203.085938
784.208984	52358.980469
783.019531	52332.890625
781.831055	51990.031250
780.641602	52262.339844
779.452148	51576.398438
778.262695	51646.464844
777.072266	51696.082031
775.882813	51721.171875
774.692383	51395.128906
773.501953	51261.058594
772.310547	51337.230469
771.120117	51386.843750
769.928711	51448.675781
768.737305	51486.011719
767.544922	51209.296875
766.353516	52033.625000
765.161133	51710.023438
763.968750	51883.820313
762.776367	52289.835938
761.583984	51893.023438
760.390625	52494.421875
759.197266	52399.113281
758.003906	52865.808594
756.810547	52886.496094
755.616211	52905.140625
754.421875	52785.398438
753.227539	53127.550781
752.033203	53052.558594
750.838867	52989.796875
749.643555	52670.835938
748.448242	52443.484375
747.252930	52344.269531
746.057617	51948.375000
744.861328	51566.847656
743.665039	51565.363281
742.468750	51149.511719
741.272461	51154.195313
740.075195	50913.187500
738.878906	50487.535156
737.681641	50338.074219
736.484375	50545.824219
735.286133	50268.582031
734.087891	50366.722656
732.890625	50550.007813
731.691406	50603.441406
730.493164	50403.425781
729.294922	50710.242188
728.095703	50777.796875
726.896484	50115.863281
725.696289	49907.976563
724.497070	50668.363281
723.296875	50156.675781
722.096680	49999.507813
720.896484	49785.714844
719.696289	50207.539063
718.495117	50200.195313
717.293945	50120.011719
716.092773	49975.125000
714.891602	50513.890625
713.689453	50379.089844
712.487305	50066.425781
711.285156	50170.273438
710.083008	50263.976563
708.880859	50585.972656
707.677734	50437.132813
706.474609	50821.585938
705.271484	50301.164063
704.068359	50558.292969
702.864258	50351.015625
701.660156	50228.582031
700.456055	50005.296875
699.251953	50050.429688
698.046875	50396.109375
696.841797	49973.242188
695.636719	50103.039063
694.431641	50636.003906
693.226563	50713.218750
692.020508	50530.421875
690.814453	50261.046875
689.608398	50316.121094
688.402344	50373.183594
687.195313	50246.964844
685.988281	50155.023438
684.781250	50709.304688
683.574219	50458.300781
682.366211	50867.429688
681.158203	50658.734375
679.950195	50725.703125
678.742188	50424.593750
677.534180	50195.984375
676.325195	50411.765625
675.116211	50547.058594
673.907227	50851.117188
672.697266	50895.855469
671.488281	50838.117188
670.278320	50250.140625
669.068359	50734.753906
667.858398	50321.687500
666.647461	50426.695313
665.436523	50190.460938
664.225586	49831.906250
663.014648	49718.250000
661.802734	49610.652344
660.591797	49906.210938
659.379883	49866.792969
658.167969	49957.695313
656.955078	50172.839844
655.743164	49886.886719
654.530273	50007.781250
653.317383	49766.035156
652.103516	49768.734375
650.890625	50079.820313
649.676758	49724.062500
648.462891	50193.179688
647.249023	50379.917969
646.034180	50110.343750
644.819336	50459.074219
643.604492	50347.605469
642.389648	50700.160156
641.174805	50230.761719
639.958984	50449.253906
638.743164	50229.925781
637.527344	50508.285156
636.311523	50235.078125
635.094727	49826.125000
633.877930	50306.125000
632.661133	50033.097656
631.444336	50001.757813
630.226563	49820.710938
629.008789	49414.203125
627.791016	49141.539063
626.573242	49477.468750
625.355469	49637.738281
624.136719	49303.355469
622.917969	49001.000000
621.699219	49490.199219
620.480469	49724.085938
619.260742	49810.410156
618.041016	49296.980469
616.821289	49616.421875
615.601563	49226.695313
614.380859	49034.257813
613.160156	49389.398438
611.939453	49294.535156
610.718750	49211.648438
609.497070	49512.824219
608.276367	48785.335938
607.054688	49215.765625
605.832031	49208.515625
604.610352	49243.019531
603.387695	49019.074219
602.165039	49194.714844
600.942383	48939.062500
599.719727	49549.765625
598.496094	49071.656250
597.272461	49241.187500
596.048828	49071.093750
594.825195	49026.140625
593.600586	49253.140625
592.375977	49108.937500
591.151367	49202.890625
589.926758	48737.359375
588.701172	48876.960938
587.476563	48713.093750
586.250977	49157.988281
585.024414	49311.300781
583.798828	48887.796875
582.572266	48860.773438
581.345703	49212.175781
580.119141	48893.910156
578.892578	49009.488281
577.665039	48909.187500
576.437500	49497.878906
575.209961	48969.972656
573.982422	48780.671875
572.753906	49192.949219
571.525391	49055.109375
570.296875	49281.253906
569.068359	49058.410156
567.838867	49033.367188
566.610352	49053.792969
565.380859	49206.628906
564.150391	49189.468750
562.920898	49255.289063
561.690430	49358.609375
560.459961	49161.703125
559.229492	49197.867188
557.999023	49409.714844
556.767578	49657.011719
555.536133	49024.058594
554.304688	48931.960938
553.073242	49216.679688
551.840820	49233.054688
550.608398	48630.226563
549.375977	49121.851563
548.143555	49096.832031
546.910156	49101.382813
545.676758	48686.218750
544.443359	49583.292969
543.209961	48746.671875
541.975586	49125.449219
540.742188	49147.699219
539.507813	49150.253906
538.272461	49131.152344
537.038086	48990.046875
535.802734	49547.457031
534.567383	49300.097656
533.332031	49113.796875
532.096680	49065.214844
530.860352	49742.105469
529.624023	48977.921875
528.387695	49640.812500
527.151367	49765.066406
525.914063	49616.203125
524.676758	49659.882813
523.439453	49326.492188
522.202148	49690.242188
520.963867	49453.156250
519.725586	48913.906250
518.487305	49285.371094
517.249023	49183.863281
516.009766	49190.277344
514.771484	49139.816406
513.532227	49722.714844
512.291992	49170.285156
511.052734	49533.425781
509.812500	49533.878906
508.572266	49179.687500
507.332031	49115.554688
506.090820	49388.324219
504.850586	49529.789063
503.609375	49211.097656
502.368164	49381.898438
501.125977	49707.246094
499.884766	49713.515625
498.642578	49606.308594
497.400391	49692.789063
496.157227	49699.050781
494.915039	50020.109375
493.671875	49948.105469
492.428711	49880.035156
491.184570	49894.066406
489.941406	50089.789063
488.697266	50183.859375
487.453125	50318.906250
486.208984	49811.460938
484.963867	50614.222656
483.718750	49753.601563
482.473633	50120.859375
481.228516	50597.242188
479.982422	50521.351563
478.737305	50724.406250
477.491211	50599.761719
476.244141	50508.308594
474.998047	50912.031250
473.750977	50413.203125
472.503906	50699.867188
471.256836	50670.796875
470.009766	50770.296875
468.761719	50708.113281
467.513672	51313.832031
466.265625	50969.277344
465.017578	51183.476563
463.768555	51504.628906
462.519531	51417.058594
461.270508	51444.292969
460.021484	51969.425781
458.771484	52015.984375
457.521484	51965.316406
456.271484	52416.175781
455.021484	52429.578125
453.770508	52547.902344
452.519531	53050.847656
451.268555	52869.875000
450.017578	53376.445313
448.765625	54036.210938
447.514648	54402.589844
446.262695	54440.816406
445.009766	54684.718750
443.757813	54889.726563
442.504883	54914.250000
441.251953	54529.535156
439.999023	54305.910156
438.745117	54059.101563
437.492188	53564.277344
436.238281	52995.992188
434.983398	52656.558594
433.729492	52191.332031
432.474609	52355.761719
431.219727	51919.808594
429.964844	51817.035156
428.709961	51631.062500
427.454102	50967.109375
426.198242	51365.742188
424.942383	51133.519531
423.685547	51001.964844
422.429688	51001.968750
421.172852	51141.183594
419.916016	50829.906250
418.658203	50996.160156
417.401367	50723.671875
416.143555	51094.679688
414.885742	50855.113281
413.626953	50575.078125
412.369141	51486.578125
411.110352	50505.695313
409.851563	51156.273438
408.591797	50955.507813
407.333008	51188.964844
406.073242	51455.125000
404.813477	50970.875000
403.553711	51073.050781
402.292969	51055.648438
401.032227	50404.027344
