#Wave		#Intensity
2001.242188	36424.800781
2000.272461	35978.640625
1999.302734	36405.914063
1998.333008	36073.824219
1997.363281	36518.464844
1996.392578	35885.894531
1995.422852	36042.410156
1994.452148	36426.726563
1993.481445	36462.925781
1992.510742	35823.292969
1991.540039	35987.210938
1990.568359	36236.148438
1989.596680	36027.179688
1988.625977	36178.468750
1987.654297	36017.097656
1986.681641	36393.367188
1985.709961	35802.019531
1984.738281	35998.226563
1983.765625	36201.859375
1982.792969	36135.570313
1981.820313	35956.878906
1980.847656	36207.867188
1979.874023	36648.566406
1978.901367	36305.078125
1977.927734	36418.566406
1976.954102	36362.281250
1975.980469	36078.914063
1975.006836	36207.347656
1974.032227	36068.796875
1973.058594	36027.574219
1972.083984	35993.843750
1971.109375	36251.851563
1970.134766	36372.656250
1969.160156	36306.476563
1968.184570	36070.855469
1967.209961	36393.449219
1966.234375	36195.261719
1965.258789	36395.667969
1964.283203	36284.707031
1963.306641	36507.437500
1962.331055	36394.003906
1961.354492	36529.515625
1960.377930	36505.707031
1959.401367	36233.082031
1958.424805	36167.039063
1957.447266	36232.843750
1956.470703	36323.496094
1955.493164	36351.949219
1954.515625	36576.789063
1953.538086	36217.437500
1952.560547	36238.437500
1951.582031	36087.984375
1950.604492	36511.449219
1949.625977	36189.609375
1948.647461	36563.238281
1947.668945	36690.917969
1946.689453	36272.394531
1945.710938	36576.308594
1944.731445	36190.210938
1943.751953	36307.937500
1942.772461	36353.679688
1941.792969	36580.468750
1940.813477	36517.027344
1939.833008	36731.308594
1938.852539	36204.273438
1937.873047	36443.316406
1936.891602	36583.148438
1935.911133	36361.179688
1934.930664	36731.363281
1933.949219	36715.023438
1932.967773	36589.722656
1931.986328	36459.511719
1931.004883	36854.171875
1930.023438	36384.859375
1929.041016	36935.300781
1928.059570	36805.113281
1927.077148	36754.136719
1926.094727	36720.488281
1925.112305	36427.187500
1924.128906	36925.207031
1923.146484	36545.445313
1922.163086	36519.269531
1921.179688	36977.464844
1920.196289	36565.769531
1919.212891	36270.324219
1918.228516	37056.824219
1917.245117	37013.285156
1916.260742	36745.070313
1915.276367	36355.988281
1914.291992	36904.964844
1913.307617	36918.238281
1912.322266	36623.082031
1911.336914	37206.257813
1910.352539	36933.351563
1909.367188	36781.375000
1908.380859	37260.656250
1907.395508	36911.457031
1906.409180	37259.910156
1905.423828	36775.296875
1904.437500	37488.304688
1903.451172	37102.355469
1902.463867	37125.402344
1901.477539	36813.527344
1900.490234	36917.863281
1899.503906	37216.644531
1898.516602	37335.640625
1897.528320	37589.941406
1896.541016	37460.324219
1895.553711	37261.871094
1894.565430	36947.882813
1893.577148	36921.722656
1892.588867	37259.464844
1891.600586	37631.503906
1890.611328	37293.085938
1889.623047	37323.402344
1888.633789	37643.628906
1887.644531	37177.644531
1886.655273	37613.218750
1885.666016	37338.945313
1884.675781	37339.753906
1883.686523	37475.578125
1882.696289	37250.554688
1881.706055	37361.804688
1880.715820	37627.585938
1879.724609	37451.714844
1878.734375	37840.019531
1877.743164	37426.296875
1876.751953	37755.625000
1875.760742	37565.136719
1874.769531	37656.574219
1873.778320	37821.496094
1872.786133	37496.339844
1871.793945	37639.183594
1870.801758	37828.507813
1869.809570	37834.105469
1868.817383	37548.339844
1867.824219	37695.964844
1866.832031	37735.839844
1865.838867	37704.738281
1864.845703	37781.296875
1863.851563	37735.515625
1862.858398	37836.500000
1861.865234	37898.316406
1860.871094	37498.019531
1859.876953	37946.105469
1858.882813	38523.570313
1857.887695	37705.503906
1856.893555	38236.382813
1855.898438	37885.226563
1854.904297	38095.933594
1853.909180	37730.273438
1852.913086	37882.332031
1851.917969	38175.921875
1850.922852	38081.343750
1849.926758	37955.078125
1848.930664	38060.628906
1847.934570	38356.414063
1846.938477	38288.695313
1845.941406	38055.175781
1844.945313	38392.250000
1843.948242	38385.496094
1842.951172	38356.804688
1841.954102	38315.941406
1840.956055	38187.382813
1839.958984	38314.636719
1838.960938	38622.070313
1837.962891	38500.828125
1836.964844	38294.410156
1835.966797	38757.472656
1834.968750	38658.164063
1833.969727	38775.460938
1832.970703	38834.324219
1831.971680	38715.589844
1830.972656	38365.851563
1829.973633	38692.234375
1828.973633	39069.550781
1827.974609	38535.191406
1826.974609	38805.464844
1825.974609	38674.707031
1824.974609	38825.812500
1823.973633	39229.484375
1822.973633	38952.996094
1821.972656	38994.699219
1820.971680	39046.097656
1819.970703	39218.843750
1818.968750	38947.398438
1817.967773	39137.082031
1816.965820	39224.804688
1815.964844	39062.652344
1814.961914	39305.566406
1813.959961	39589.613281
1812.958008	39226.257813
1811.955078	39716.250000
1810.953125	39411.160156
1809.950195	39486.597656
1808.947266	39368.195313
1807.943359	39174.742188
1806.940430	39402.753906
1805.936523	39720.269531
1804.932617	39410.648438
1803.928711	39805.507813
1802.924805	39597.621094
1801.920898	39515.628906
1800.916016	39878.804688
1799.911133	39668.593750
1798.907227	39598.718750
1797.901367	39831.113281
1796.896484	39698.375000
1795.891602	39995.929688
1794.885742	39713.371094
1793.879883	40254.859375
1792.874023	40259.835938
1791.868164	40230.992188
1790.862305	40018.621094
1789.855469	39912.566406
1788.848633	40221.773438
1787.842773	40354.671875
1786.834961	40224.472656
1785.828125	40248.742188
1784.821289	40716.886719
1783.813477	40210.414063
1782.805664	40890.617188
1781.797852	40762.839844
1780.790039	40994.308594
1779.782227	40895.480469
1778.773438	40601.484375
1777.764648	40536.492188
1776.755859	40760.597656
1775.747070	41001.488281
1774.738281	41047.226563
1773.729492	40970.152344
1772.719727	41059.210938
1771.709961	41323.941406
1770.700195	41027.863281
1769.690430	41292.500000
1768.680664	41451.195313
1767.669922	41263.484375
1766.659180	41626.531250
1765.648438	41638.410156
1764.637695	41917.121094
1763.626953	41304.035156
1762.615234	41779.753906
1761.604492	41695.488281
1760.592773	41889.906250
1759.581055	41942.546875
1758.569336	42280.933594
1757.556641	42095.789063
1756.544922	41891.507813
1755.532227	42496.128906
1754.519531	42642.195313
1753.506836	42649.054688
1752.494141	42555.156250
1751.480469	42470.882813
1750.466797	42942.972656
1749.454102	43108.003906
1748.440430	42702.457031
1747.425781	43018.460938
1746.412109	43027.628906
1745.397461	43055.957031
1744.383789	42720.167969
1743.369141	43055.097656
1742.353516	43140.871094
1741.338867	43557.007813
1740.324219	43491.855469
1739.308594	43670.839844
1738.292969	43746.863281
1737.277344	43411.355469
1736.261719	44286.339844
1735.245117	44433.960938
1734.229492	44418.925781
1733.212891	44274.789063
1732.196289	45194.414063
1731.179688	44622.390625
1730.162109	44913.183594
1729.145508	45344.824219
1728.127930	45463.398438
1727.110352	45462.515625
1726.092773	46003.664063
1725.075195	46165.023438
1724.056641	46269.039063
1723.039063	46470.863281
1722.020508	46689.320313
1721.001953	46347.054688
1719.983398	46994.796875
1718.963867	46604.898438
1717.945313	47111.683594
1716.925781	47372.734375
1715.906250	47452.535156
1714.886719	47491.792969
1713.867188	48064.773438
1712.846680	47975.257813
1711.826172	47957.234375
1710.806641	47553.410156
1709.786133	48018.816406
1708.764648	47596.078125
1707.744141	47573.363281
1706.722656	47933.800781
1705.701172	48039.515625
1704.679688	47743.152344
1703.658203	48010.597656
1702.636719	47602.566406
1701.614258	47846.164063
1700.592773	47583.316406
1699.570313	47736.507813
1698.547852	47597.343750
1697.524414	47282.402344
1696.501953	47518.703125
1695.478516	47871.300781
1694.456055	47741.703125
1693.432617	47954.046875
1692.408203	48095.101563
1691.384766	47559.660156
1690.360352	47835.992188
1689.336914	47929.531250
1688.312500	47771.582031
1687.288086	47914.902344
1686.262695	47752.261719
1685.238281	48244.062500
1684.212891	48287.656250
1683.187500	47778.996094
1682.162109	47967.203125
1681.136719	48079.523438
1680.110352	48712.949219
1679.084961	48417.726563
1678.058594	48574.894531
1677.032227	47950.703125
1676.005859	48661.812500
1674.978516	48610.574219
1673.952148	48377.144531
1672.924805	48451.363281
1671.897461	48705.332031
1670.870117	48460.179688
1669.842773	48891.398438
1668.814453	48851.984375
1667.787109	48635.292969
1666.758789	49236.414063
1665.730469	49194.585938
1664.701172	48760.593750
1663.672852	49229.082031
1662.643555	48750.359375
1661.615234	49298.964844
1660.585938	49365.757813
1659.555664	49508.058594
1658.526367	49739.984375
1657.497070	50040.257813
1656.466797	49880.378906
1655.436523	49845.570313
1654.406250	49959.351563
1653.375977	49985.839844
1652.344727	50207.996094
1651.313477	50088.289063
1650.282227	50171.300781
1649.250977	50398.007813
1648.219727	49957.933594
1647.188477	50530.839844
1646.156250	50340.523438
1645.124023	50731.855469
1644.091797	50647.503906
1643.059570	51045.695313
1642.027344	50827.175781
1640.994141	51166.371094
1639.961914	51034.941406
1638.928711	51157.582031
1637.895508	51498.882813
1636.861328	51428.589844
1635.828125	51605.160156
1634.793945	51483.164063
1633.759766	51699.601563
1632.725586	51619.921875
1631.691406	51946.664063
1630.656250	51972.656250
1629.622070	51963.410156
1628.586914	52555.226563
1627.551758	52743.062500
1626.516602	53125.636719
1625.480469	53184.234375
1624.445313	53130.191406
1623.409180	53953.496094
1622.373047	54042.402344
1621.336914	53885.050781
1620.300781	54670.261719
1619.263672	55091.851563
1618.227539	56042.968750
1617.190430	57314.777344
1616.153320	58044.925781
1615.115234	60013.972656
1614.078125	60551.328125
1613.040039	61765.218750
1612.001953	62997.406250
1610.963867	63526.914063
1609.925781	63319.007813
1608.887695	63179.031250
1607.848633	62662.437500
1606.809570	61874.683594
1605.770508	59578.738281
1604.731445	59423.152344
1603.692383	58454.035156
1602.652344	57258.527344
1601.613281	56404.652344
1600.573242	55992.703125
1599.533203	55564.542969
1598.492188	54977.699219
1597.452148	54666.636719
1596.411133	54101.171875
1595.370117	53741.347656
1594.329102	53776.117188
1593.288086	53637.289063
1592.247070	53498.464844
1591.205078	53359.507813
1590.163086	53220.550781
1589.121094	53081.593750
1588.079102	52942.636719
1587.036133	52803.550781
1585.994141	52664.593750
1584.951172	52906.882813
1583.908203	52627.171875
1582.865234	52592.160156
1581.822266	52787.746094
1580.778320	52405.734375
1579.734375	52547.726563
1578.691406	53059.804688
1577.646484	52871.121094
1576.602539	53001.316406
1575.558594	52756.867188
1574.513672	52942.859375
1573.468750	53170.644531
1572.423828	53284.406250
1571.378906	53147.023438
1570.333008	53386.269531
1569.288086	52942.121094
1568.242188	53490.375000
1567.196289	53522.644531
1566.150391	53431.789063
1565.103516	53025.105469
1564.057617	52853.093750
1563.010742	52609.167969
1561.963867	52980.460938
1560.916992	52629.839844
1559.869141	52970.828125
1558.822266	53033.289063
1557.774414	52852.167969
1556.726563	52858.964844
1555.678711	52494.753906
1554.630859	52821.539063
1553.582031	52547.859375
1552.534180	52360.023438
1551.485352	52566.160156
1550.436523	51998.445313
1549.386719	52463.996094
1548.337891	53149.386719
1547.288086	52660.589844
1546.238281	52512.277344
1545.188477	52428.824219
1544.138672	51968.183594
1543.088867	52655.351563
1542.038086	52090.726563
1540.987305	51972.707031
1539.936523	51956.480469
1538.885742	52365.691406
1537.834961	52238.433594
1536.783203	51988.718750
1535.731445	52081.101563
1534.679688	52025.582031
1533.627930	51882.292969
1532.576172	51764.464844
1531.523438	52027.699219
1530.471680	51420.402344
1529.418945	51097.261719
1528.366211	51399.707031
1527.312500	51545.121094
1526.259766	51383.628906
1525.206055	51411.343750
1524.152344	51358.328125
1523.098633	50984.796875
1522.044922	51436.785156
1520.990234	51084.117188
1519.936523	51190.214844
1518.881836	51383.835938
1517.827148	51448.363281
1516.772461	51476.015625
1515.716797	51112.128906
1514.662109	51554.300781
1513.606445	51358.593750
1512.550781	51183.667969
1511.495117	51229.742188
1510.438477	51232.074219
1509.382813	51298.824219
1508.326172	51395.449219
1507.269531	50940.089844
1506.212891	51581.687500
1505.155273	51298.878906
1504.098633	51724.117188
1503.041016	51744.730469
1501.983398	51310.382813
1500.925781	51836.464844
1499.867188	51145.003906
1498.809570	51494.093750
1497.750977	51399.914063
1496.692383	51271.332031
1495.633789	51480.199219
1494.575195	51489.332031
1493.515625	51466.339844
1492.457031	51915.921875
1491.397461	51766.710938
1490.337891	51548.753906
1489.277344	51720.644531
1488.217773	51658.652344
1487.157227	51974.851563
1486.096680	51784.503906
1485.036133	52027.246094
1483.975586	51983.558594
1482.915039	52042.949219
1481.853516	51802.339844
1480.791992	52022.000000
1479.730469	52140.863281
1478.668945	52012.503906
1477.606445	52062.671875
1476.544922	52323.300781
1475.482422	52320.781250
1474.419922	52091.839844
1473.357422	52546.683594
1472.293945	52594.414063
1471.231445	51956.382813
1470.167969	52646.394531
1469.104492	52346.757813
1468.041016	52408.187500
1466.976563	52688.871094
1465.913086	52882.671875
1464.848633	52788.699219
1463.784180	53101.121094
1462.719727	53077.898438
1461.655273	53321.687500
1460.589844	53323.527344
1459.524414	53215.859375
1458.458984	53160.687500
1457.393555	53388.316406
1456.328125	53517.816406
1455.261719	53517.328125
1454.196289	53651.312500
1453.129883	53689.535156
1452.063477	53802.929688
1450.996094	53923.117188
1449.929688	53933.929688
1448.862305	54022.164063
1447.794922	54005.632813
1446.727539	54043.738281
1445.660156	54725.929688
1444.591797	54438.476563
1443.524414	54342.242188
1442.456055	54978.511719
1441.387695	54886.757813
1440.318359	55077.000000
1439.250000	55205.789063
1438.180664	55650.496094
1437.111328	56051.855469
1436.041992	56600.769531
1434.972656	56331.601563
1433.903320	56516.824219
1432.833008	57580.886719
1431.762695	57284.429688
1430.692383	57106.132813
1429.622070	56705.453125
1428.550781	57108.300781
1427.480469	57381.660156
1426.409180	57205.734375
1425.337891	57476.707031
1424.266602	57318.964844
1423.194336	57551.269531
1422.122070	57228.074219
1421.050781	57306.179688
1419.978516	56860.765625
1418.905273	56909.449219
1417.833008	57032.867188
1416.759766	56975.042969
1415.687500	56695.312500
1414.614258	56707.753906
1413.540039	57175.199219
1412.466797	57527.046875
1411.392578	56912.492188
1410.319336	57336.656250
1409.245117	57661.128906
1408.169922	57515.050781
1407.095703	57807.710938
1406.020508	58367.050781
1404.946289	57795.945313
1403.871094	57729.039063
1402.794922	58157.023438
1401.719727	58139.773438
1400.643555	58237.730469
1399.568359	58362.753906
1398.492188	58435.792969
1397.415039	58260.460938
1396.338867	58746.558594
1395.261719	59121.898438
1394.185547	59203.761719
1393.108398	59202.121094
1392.031250	59653.855469
1390.953125	59640.855469
1389.875977	60599.671875
1388.797852	60043.195313
1387.719727	60557.554688
1386.641602	61080.738281
1385.562500	61364.898438
1384.484375	61775.105469
1383.405273	62221.199219
1382.326172	62273.042969
1381.247070	61933.093750
1380.166992	62401.421875
1379.087891	62538.722656
1378.007813	63096.781250
1376.927734	62183.191406
1375.847656	63382.218750
1374.767578	62583.605469
1373.686523	63190.714844
1372.605469	62446.378906
1371.524414	62516.042969
1370.443359	61709.160156
1369.362305	61693.535156
1368.280273	61237.570313
1367.199219	61019.867188
1366.117188	61148.105469
1365.034180	60959.683594
1363.952148	60607.441406
1362.870117	60915.246094
1361.787109	60625.972656
1360.704102	60065.292969
1359.621094	60406.675781
1358.537109	59931.468750
1357.454102	60245.835938
1356.370117	59674.410156
1355.286133	59638.980469
1354.202148	59637.179688
1353.118164	59642.105469
1352.033203	59474.496094
1350.948242	59750.507813
1349.863281	59426.148438
1348.778320	59108.625000
1347.693359	59393.500000
1346.607422	58890.289063
1345.521484	58971.421875
1344.435547	59256.160156
1343.349609	59258.882813
1342.263672	59017.773438
1341.176758	59566.253906
1340.090820	58929.375000
1339.003906	59412.832031
1337.916016	59585.398438
1336.829102	58917.558594
1335.741211	59706.882813
1334.654297	59106.281250
1333.566406	59077.734375
1332.478516	59609.757813
1331.389648	59869.171875
1330.301758	59782.445313
1329.212891	59588.609375
1328.124023	59160.511719
1327.035156	60252.085938
1325.945313	59650.003906
1324.856445	59483.085938
1323.766602	59249.324219
1322.676758	59443.746094
1321.586914	59731.726563
1320.496094	59899.238281
1319.406250	59984.230469
1318.315430	59714.929688
1317.224609	59626.160156
1316.133789	60276.878906
1315.041992	60029.929688
1313.951172	60072.507813
1312.859375	60192.980469
1311.767578	59906.113281
1310.675781	59672.750000
1309.583008	60342.761719
1308.491211	60000.402344
1307.398438	59987.320313
1306.305664	60009.824219
1305.212891	60637.039063
1304.119141	60152.597656
1303.026367	60619.539063
1301.932617	60135.273438
1300.838867	60384.324219
1299.744141	60875.394531
1298.650391	60782.203125
1297.555664	61108.710938
1296.461914	60951.125000
1295.366211	61259.718750
1294.271484	61295.230469
1293.176758	61896.531250
1292.081055	61681.226563
1290.985352	62020.507813
1289.889648	62293.132813
1288.793945	62306.242188
1287.697266	62124.261719
1286.601563	62261.507813
1285.504883	62318.929688
1284.408203	62121.527344
1283.311523	62023.882813
1282.213867	61986.066406
1281.116211	61394.660156
1280.018555	61642.578125
1278.920898	61660.183594
1277.823242	61682.210938
1276.725586	61024.890625
1275.626953	60555.863281
1274.528320	60781.574219
1273.429688	60160.156250
1272.330078	60257.597656
1271.231445	60668.941406
1270.131836	60330.804688
1269.032227	60308.816406
1267.932617	59990.746094
1266.833008	59663.953125
1265.732422	59697.312500
1264.632813	59847.703125
1263.532227	59463.695313
1262.430664	59305.003906
1261.330078	59281.003906
1260.228516	58939.234375
1259.127930	58727.761719
1258.026367	59257.578125
1256.924805	58856.437500
1255.822266	58795.039063
1254.720703	58402.945313
1253.618164	58883.929688
1252.515625	58655.046875
1251.413086	58825.101563
1250.309570	58594.105469
1249.207031	58629.730469
1248.103516	57683.070313
1247.000000	57811.328125
1245.895508	58650.652344
1244.791992	58430.894531
1243.687500	58160.589844
1242.583008	58328.265625
1241.478516	58227.476563
1240.374023	58245.500000
1239.269531	58672.566406
1238.164063	57991.277344
1237.058594	57631.199219
1235.953125	57884.496094
1234.847656	57572.910156
1233.741211	57999.699219
1232.635742	58265.960938
1231.529297	57750.203125
1230.422852	57952.726563
1229.315430	57691.898438
1228.208984	57374.085938
1227.101563	57464.625000
1225.994141	57443.210938
1224.886719	57391.085938
1223.779297	57319.238281
1222.670898	57361.457031
1221.562500	57061.582031
1220.454102	57173.984375
1219.345703	57260.042969
1218.237305	57159.777344
1217.127930	57438.628906
1216.018555	57246.347656
1214.909180	56797.855469
1213.799805	57886.925781
1212.690430	57035.582031
1211.580078	57703.875000
1210.469727	56828.789063
1209.359375	57429.027344
1208.249023	57508.292969
1207.138672	57386.265625
1206.027344	57036.804688
1204.916016	58019.257813
1203.804688	57892.824219
1202.693359	57536.894531
1201.581055	57766.847656
1200.469727	58597.664063
1199.357422	57610.371094
1198.245117	58825.371094
1197.131836	58268.648438
1196.019531	59548.593750
1194.906250	59179.699219
1193.792969	58861.144531
1192.679688	59131.968750
1191.566406	59483.429688
1190.452148	59507.507813
1189.337891	59333.078125
1188.223633	59346.265625
1187.109375	59612.382813
1185.995117	59472.906250
1184.879883	59135.121094
1183.764648	59113.457031
1182.649414	58967.601563
1181.534180	59094.105469
1180.418945	59396.992188
1179.302734	59233.734375
1178.186523	59220.765625
1177.070313	58905.210938
1175.954102	58480.941406
1174.837891	58785.824219
1173.720703	58598.878906
1172.603516	58829.664063
1171.486328	58146.890625
1170.369141	58223.273438
1169.250977	58173.531250
1168.132813	58245.531250
1167.015625	58547.875000
1165.896484	58115.652344
1164.778320	57933.425781
1163.660156	57375.480469
1162.541016	58166.402344
1161.421875	57897.406250
1160.302734	57724.027344
1159.182617	57785.128906
1158.063477	58314.968750
1156.943359	57794.433594
1155.823242	58124.488281
1154.703125	57855.777344
1153.582031	58096.785156
1152.461914	57802.152344
1151.340820	58112.445313
1150.219727	58017.316406
1149.097656	57332.789063
1147.976563	58327.640625
1146.854492	57662.796875
1145.732422	57877.523438
1144.610352	58308.710938
1143.488281	58456.121094
1142.365234	58761.488281
1141.243164	59335.113281
1140.120117	59138.191406
1138.996094	59317.781250
1137.873047	59570.847656
1136.750000	59854.097656
1135.625977	59611.804688
1134.501953	60124.097656
1133.377930	59791.058594
1132.252930	59710.988281
1131.127930	59205.285156
1130.003906	59546.601563
1128.878906	59388.851563
1127.752930	59481.664063
1126.627930	59652.164063
1125.501953	59662.855469
1124.375977	58997.984375
1123.250000	59444.687500
1122.124023	59371.261719
1120.997070	59196.468750
1119.871094	58814.691406
1118.744141	58778.070313
1117.617188	58532.328125
1116.489258	58553.964844
1115.362305	58700.593750
1114.234375	58640.304688
1113.106445	58480.933594
1111.978516	58084.675781
1110.849609	58513.394531
1109.721680	58205.554688
1108.592773	58399.429688
1107.463867	58311.265625
1106.333984	58681.515625
1105.205078	58593.324219
1104.075195	58302.949219
1102.945313	58068.597656
1101.815430	58473.015625
1100.685547	58610.675781
1099.554688	58417.234375
1098.424805	58582.789063
1097.293945	58150.890625
1096.162109	58378.738281
1095.031250	58163.988281
1093.899414	58267.171875
1092.768555	58202.828125
1091.636719	57756.355469
1090.503906	58243.781250
1089.372070	57696.589844
1088.239258	57591.617188
1087.106445	57426.609375
1085.973633	57242.359375
1084.840820	57086.050781
1083.708008	57377.925781
1082.574219	57571.082031
1081.440430	57241.175781
1080.306641	57402.136719
1079.171875	57023.097656
1078.038086	57143.332031
1076.903320	57550.519531
1075.768555	57304.425781
1074.633789	57253.250000
1073.498047	56964.480469
1072.363281	57459.144531
1071.227539	57095.542969
1070.091797	57446.652344
1068.956055	57660.730469
1067.819336	57600.976563
1066.682617	57684.507813
1065.546875	57545.664063
1064.409180	57515.882813
1063.272461	57142.035156
1062.135742	57917.875000
1060.998047	57823.941406
1059.860352	57362.660156
1058.722656	57672.476563
1057.583984	57305.335938
1056.446289	57422.914063
1055.307617	57184.011719
1054.168945	57692.082031
1053.029297	57446.808594
1051.890625	57941.843750
1050.750977	57939.750000
1049.611328	57645.511719
1048.471680	57594.433594
1047.332031	58035.773438
1046.191406	57502.976563
1045.051758	57679.941406
1043.911133	57720.492188
1042.769531	58118.875000
1041.628906	57752.558594
1040.487305	57854.812500
1039.346680	57641.953125
1038.205078	57516.437500
1037.062500	57220.714844
1035.920898	57608.097656
1034.778320	57286.933594
1033.635742	57401.910156
1032.493164	57070.261719
1031.350586	57083.175781
1030.207031	57397.937500
1029.063477	57459.664063
1027.919922	57007.117188
1026.776367	56918.039063
1025.632813	57436.515625
1024.488281	57349.511719
1023.343750	57797.640625
1022.199219	57468.570313
1021.054688	57485.609375
1019.910156	56965.707031
1018.764648	57377.496094
1017.619141	57498.488281
1016.473633	57844.269531
1015.327148	57468.882813
1014.181641	57468.925781
1013.035156	57142.496094
1011.888672	57157.429688
1010.742188	57221.097656
1009.594727	57293.210938
1008.448242	56638.699219
1007.300781	56933.277344
1006.153320	57261.628906
1005.005859	57371.781250
1003.857422	57784.597656
1002.708984	57784.554688
1001.560547	57835.296875
1000.412109	57921.980469
999.263672	58074.207031
998.114258	57646.898438
996.965820	58103.593750
995.816406	57471.371094
994.666016	57524.210938
993.516602	57767.226563
992.366211	57957.328125
991.215820	57946.667969
990.065430	57807.164063
988.915039	57606.472656
987.763672	57817.566406
986.613281	57361.511719
985.461914	57635.886719
984.309570	57654.824219
983.158203	57329.851563
982.005859	57256.019531
980.854492	57285.550781
979.701172	57431.046875
978.548828	57281.328125
977.396484	57329.804688
976.243164	57454.128906
975.089844	57013.707031
973.936523	57521.457031
972.783203	57289.703125
971.628906	57582.406250
970.474609	57411.781250
969.320313	57394.890625
968.166016	57154.902344
967.010742	56872.910156
965.856445	57396.847656
964.701172	57407.308594
963.545898	57203.238281
962.390625	57255.785156
961.234375	56997.148438
960.078125	57222.074219
958.921875	56999.261719
957.765625	56772.328125
956.609375	57163.136719
955.452148	56862.730469
954.294922	57102.164063
953.137695	57011.847656
951.980469	56638.152344
950.822266	56747.351563
949.665039	57133.519531
948.506836	56390.722656
947.347656	56481.019531
946.189453	56510.457031
945.030273	56357.437500
943.872070	56315.593750
942.712891	56129.125000
941.552734	56565.191406
940.393555	55748.000000
939.233398	55878.085938
938.073242	56276.246094
936.913086	55771.605469
935.752930	56291.078125
934.591797	56171.828125
933.430664	56397.992188
932.269531	56293.410156
931.108398	56607.339844
929.947266	57065.503906
928.785156	56975.488281
927.623047	56927.332031
926.460938	57184.449219
925.298828	57240.789063
924.135742	57037.937500
922.972656	57533.109375
921.810547	57138.054688
920.646484	57967.246094
919.483398	57781.109375
918.319336	57916.609375
917.155273	57818.226563
915.991211	58444.195313
914.827148	58437.574219
913.662109	58950.515625
912.498047	59162.851563
911.333008	59454.367188
910.167969	59312.000000
909.001953	59991.195313
907.836914	60192.746094
906.670898	59733.503906
905.504883	60191.343750
904.337891	59665.593750
903.171875	59700.394531
902.004883	59551.898438
900.837891	59474.257813
899.670898	59323.773438
898.503906	58854.855469
897.335938	58860.625000
896.167969	58997.480469
895.000000	58643.300781
893.832031	59040.148438
892.663086	58844.140625
891.495117	58671.074219
890.326172	58337.996094
889.156250	58693.023438
887.987305	58210.433594
886.817383	58577.816406
885.648438	58803.800781
884.478516	59141.851563
883.307617	58385.414063
882.137695	58640.367188
880.966797	58695.945313
879.795898	58896.777344
878.625000	59329.941406
877.454102	59047.179688
876.282227	59083.960938
875.110352	59411.070313
873.938477	59203.089844
872.766602	59915.652344
871.593750	59800.925781
870.421875	59402.320313
869.249023	59992.199219
868.076172	59780.144531
866.902344	59742.152344
865.729492	59830.488281
864.555664	59674.476563
863.381836	60065.019531
862.207031	60763.792969
861.033203	60473.183594
859.858398	61244.031250
858.683594	61102.371094
857.508789	61151.027344
856.333984	60810.921875
855.158203	60719.027344
853.982422	60651.968750
852.806641	60514.664063
851.630859	60046.812500
850.454102	60052.210938
849.278320	60134.027344
848.101563	60277.765625
846.924805	60460.671875
845.747070	59941.644531
844.570313	60700.378906
843.392578	60930.562500
842.214844	61612.492188
841.036133	62298.289063
839.858398	62915.769531
838.679688	63347.441406
837.500977	64199.519531
836.322266	64383.433594
835.143555	64775.421875
833.963867	64122.593750
832.784180	63923.230469
831.604492	64224.449219
830.424805	62917.203125
829.244141	61876.050781
828.063477	61658.710938
826.882813	61468.203125
825.702148	60606.917969
824.521484	59984.613281
823.339844	60078.390625
822.158203	59573.636719
820.976563	59813.449219
819.794922	59029.320313
818.612305	58705.921875
817.430664	58242.890625
816.248047	58295.777344
815.064453	57717.941406
813.881836	58261.804688
812.698242	57877.226563
811.514648	57638.570313
810.331055	57420.527344
809.147461	57547.378906
807.962891	57403.304688
806.778320	57107.453125
805.593750	57141.972656
804.409180	56887.292969
803.224609	56663.464844
802.039063	56691.890625
800.853516	57007.277344
799.667969	56732.308594
798.482422	56900.031250
797.295898	56289.199219
796.109375	55905.949219
794.922852	56172.023438
793.736328	56231.199219
792.548828	55719.195313
791.362305	55717.023438
790.174805	55450.867188
788.986328	55141.839844
787.798828	55372.972656
786.610352	55213.371094
785.421875	55170.386719
784.233398	55170.347656
783.044922	54626.578125
781.856445	54602.109375
780.666992	54426.445313
779.477539	54350.945313
778.288086	54637.007813
777.097656	54422.621094
775.907227	53891.832031
774.717773	53983.878906
773.526367	54053.433594
772.335938	54206.628906
771.144531	53827.246094
769.954102	54180.335938
768.762695	53943.863281
767.570313	54570.039063
766.378906	54341.730469
765.186523	54608.839844
763.994141	54519.187500
762.801758	54965.468750
761.609375	55491.035156
760.416016	55260.718750
759.222656	55902.113281
758.029297	55912.062500
756.835938	55997.328125
755.641602	56200.613281
754.447266	56027.347656
753.252930	56415.691406
752.058594	55864.078125
750.864258	56032.648438
749.668945	55770.058594
748.473633	55796.261719
747.278320	55178.085938
746.083008	54799.949219
744.886719	54704.394531
743.690430	54704.355469
742.494141	54011.675781
741.297852	53918.343750
740.100586	53985.453125
738.904297	53975.386719
737.707031	53782.652344
736.509766	53583.898438
735.311523	53488.695313
734.113281	53316.437500
732.916016	53472.804688
731.716797	53590.582031
730.518555	53387.984375
729.320313	53442.890625
728.121094	53214.042969
726.921875	52780.625000
725.721680	52665.429688
724.522461	52513.820313
723.322266	52986.007813
722.122070	52536.746094
720.921875	52441.917969
719.721680	52784.308594
718.520508	52329.257813
717.319336	52598.703125
716.118164	52576.746094
714.916992	52514.347656
713.714844	52694.625000
712.513672	52664.570313
711.311523	52341.425781
710.108398	52535.777344
708.906250	52800.769531
707.703125	52318.175781
706.500000	52793.171875
705.296875	52435.960938
704.093750	52159.644531
702.889648	52741.390625
701.685547	52269.339844
700.481445	52384.687500
699.277344	52138.843750
698.072266	51766.003906
696.868164	52381.554688
695.663086	52188.265625
694.457031	52855.921875
693.251953	52469.105469
692.045898	52872.445313
690.839844	52544.199219
689.633789	52467.898438
688.427734	52768.281250
687.220703	52343.566406
686.013672	52523.046875
684.806641	52634.011719
683.599609	52598.007813
682.391602	52714.949219
681.184570	52900.250000
679.976563	53021.109375
678.767578	52870.410156
677.559570	53150.082031
676.350586	53065.753906
675.141602	53232.714844
673.932617	53072.031250
672.723633	53202.753906
671.513672	53777.402344
670.303711	53456.011719
669.093750	53144.781250
667.883789	52853.742188
666.672852	53096.789063
665.462891	52753.679688
664.251953	52693.640625
663.040039	52160.132813
661.829102	51791.304688
660.617188	52419.378906
659.405273	52130.843750
658.193359	52227.339844
656.981445	51682.378906
655.768555	51929.218750
654.555664	51827.328125
653.342773	51843.664063
652.129883	51689.746094
650.916016	51834.261719
649.702148	51624.332031
648.488281	51750.785156
647.274414	51584.980469
646.059570	51675.371094
644.845703	51541.648438
643.630859	52068.074219
642.416016	51460.335938
641.200195	51564.667969
639.984375	51369.082031
638.769531	51499.371094
637.552734	51385.800781
636.336914	51645.906250
635.120117	51550.324219
633.904297	52020.019531
632.687500	52365.722656
631.469727	51796.867188
630.252930	51894.949219
629.035156	51633.746094
627.817383	51711.863281
626.599609	51923.617188
625.380859	51802.175781
624.163086	52065.683594
622.944336	51697.007813
621.724609	51260.687500
620.505859	51695.554688
619.286133	51518.457031
618.066406	51632.324219
616.846680	51174.421875
615.626953	51527.308594
614.406250	51467.855469
613.186523	51557.746094
611.965820	51456.500000
610.744141	51325.441406
609.523438	51228.253906
608.301758	51660.300781
607.080078	51441.746094
605.858398	51330.667969
604.635742	51303.132813
603.414063	51549.949219
602.191406	51391.199219
600.968750	51099.363281
599.745117	51447.402344
598.522461	51521.171875
597.298828	51350.621094
596.075195	51196.015625
594.850586	50630.500000
593.626953	51180.753906
592.402344	50964.738281
591.177734	51159.542969
589.953125	50663.882813
588.727539	50834.859375
587.501953	51168.386719
586.276367	50674.980469
585.050781	51022.285156
583.825195	50951.253906
582.598633	51110.113281
581.372070	50945.968750
580.145508	51308.796875
578.917969	50467.335938
577.691406	51129.117188
576.463867	50482.019531
575.236328	51280.117188
574.007813	50951.851563
572.780273	50956.121094
571.551758	50588.468750
570.323242	50998.269531
569.094727	50822.562500
567.865234	50866.386719
566.635742	50591.929688
565.406250	50760.289063
564.176758	50989.839844
562.947266	51213.375000
561.716797	50925.218750
560.486328	50406.105469
559.255859	50694.777344
558.024414	51060.332031
556.793945	51025.062500
555.562500	50743.121094
554.331055	50907.199219
553.098633	50905.507813
551.867188	50497.511719
550.634766	50442.648438
549.402344	50346.402344
548.168945	50173.312500
546.936523	50301.820313
545.703125	50485.453125
544.469727	50001.152344
543.236328	50176.886719
542.001953	50466.781250
540.767578	50299.753906
539.533203	50071.761719
538.298828	50215.851563
537.064453	49751.808594
535.829102	50114.292969
534.593750	49890.433594
533.358398	50178.011719
532.122070	49995.511719
530.886719	50072.593750
529.650391	50291.171875
528.414063	50173.601563
527.176758	49790.808594
525.940430	49842.324219
524.703125	50113.804688
523.465820	49701.773438
522.227539	49680.621094
520.990234	49720.332031
519.751953	49673.664063
518.513672	49678.031250
517.275391	49896.246094
516.036133	50086.917969
514.796875	49946.066406
513.557617	49891.546875
512.318359	49731.175781
511.079102	49759.035156
509.838867	49769.242188
508.598633	50012.609375
507.358398	49370.417969
506.117188	49966.316406
504.876953	49837.429688
503.635742	49972.906250
502.394531	49896.917969
501.152344	50177.156250
499.911133	49936.785156
498.668945	49944.964844
497.425781	49859.250000
496.183594	49830.277344
494.941406	49979.246094
493.698242	49948.304688
492.455078	50364.964844
491.210938	50390.628906
489.967773	50093.898438
488.723633	50023.878906
487.479492	49936.304688
486.235352	50334.988281
484.990234	50118.531250
483.745117	50021.222656
482.500000	50279.140625
481.254883	50144.757813
480.008789	50617.144531
478.763672	50480.796875
477.517578	50730.621094
476.271484	50666.441406
475.024414	50709.496094
473.777344	50534.242188
472.530273	51105.386719
471.283203	51195.089844
470.036133	51064.636719
468.788086	51191.308594
467.540039	51582.746094
466.291992	51247.875000
465.043945	51999.242188
463.794922	52197.636719
462.545898	52238.351563
461.296875	52238.195313
460.047852	52860.429688
458.797852	52624.855469
457.547852	53071.792969
456.297852	53007.320313
455.047852	53106.128906
453.796875	53655.699219
452.545898	53280.304688
451.294922	53763.589844
450.043945	54200.078125
448.792969	54502.425781
447.541016	54777.480469
446.289063	55271.750000
445.036133	56054.972656
443.784180	56077.343750
442.531250	56148.195313
441.278320	55668.214844
440.025391	55265.976563
438.771484	54576.957031
437.518555	53764.140625
436.264648	53193.878906
435.010742	52662.582031
433.755859	52561.554688
432.500977	51877.558594
431.246094	51784.460938
429.991211	51005.996094
428.736328	51278.953125
427.480469	51507.292969
426.224609	51129.871094
424.968750	50744.851563
423.712891	50891.914063
422.456055	50880.332031
421.199219	50522.640625
419.942383	51176.156250
418.685547	50534.414063
417.427734	51224.390625
416.169922	51033.058594
414.912109	50940.316406
413.654297	51098.683594
412.395508	50720.167969
411.136719	50971.187500
409.877930	51079.265625
408.619141	50868.863281
407.359375	50940.257813
406.099609	50820.628906
404.839844	50851.492188
403.580078	51001.902344
402.319336	50839.906250
401.059570	50683.750000
