#Wave		#Intensity
2001.248047	47062.539063
2000.278320	47024.941406
1999.308594	47129.507813
1998.338867	47133.808594
1997.369141	46915.140625
1996.398438	46994.617188
1995.428711	47199.281250
1994.458008	47125.937500
1993.487305	47403.105469
1992.516602	47187.074219
1991.545898	46913.562500
1990.574219	47403.296875
1989.603516	47372.503906
1988.631836	47114.101563
1987.660156	47250.921875
1986.688477	47870.269531
1985.715820	47644.410156
1984.744141	47718.570313
1983.771484	47460.324219
1982.798828	48101.683594
1981.826172	47678.578125
1980.853516	47612.796875
1979.880859	47769.300781
1978.907227	47671.066406
1977.933594	47655.246094
1976.959961	48420.691406
1975.986328	47848.222656
1975.012695	48236.589844
1974.039063	48063.507813
1973.064453	48070.070313
1972.089844	48418.292969
1971.115234	48354.972656
1970.140625	48543.464844
1969.166016	48014.035156
1968.190430	48043.023438
1967.215820	48139.273438
1966.240234	48529.453125
1965.264648	48406.390625
1964.289063	48089.121094
1963.312500	48528.898438
1962.336914	48734.507813
1961.360352	48235.640625
1960.383789	48670.179688
1959.407227	48654.203125
1958.430664	48775.054688
1957.454102	48724.238281
1956.476563	48946.996094
1955.499023	48834.000000
1954.521484	48840.371094
1953.543945	48938.707031
1952.566406	49658.292969
1951.587891	48615.960938
1950.610352	49057.109375
1949.631836	49460.843750
1948.653320	49464.949219
1947.674805	49469.050781
1946.696289	49473.156250
1945.716797	49477.261719
1944.737305	49481.371094
1943.758789	49485.472656
1942.779297	49489.582031
1941.798828	49803.367188
1940.819336	49263.941406
1939.838867	49478.468750
1938.859375	49702.839844
1937.878906	50289.007813
1936.898438	50027.425781
1935.916992	49867.519531
1934.936523	49977.699219
1933.955078	49931.792969
1932.974609	49578.816406
1931.993164	50137.144531
1931.010742	50356.117188
1930.029297	50151.757813
1929.047852	50182.566406
1928.065430	50401.410156
1927.083008	50686.972656
1926.100586	50334.281250
1925.118164	50659.316406
1924.135742	49755.375000
1923.152344	50552.570313
1922.168945	50598.085938
1921.185547	50613.933594
1920.202148	50427.160156
1919.218750	50519.609375
1918.235352	51157.882813
1917.250977	50850.105469
1916.266602	50991.804688
1915.282227	51214.917969
1914.297852	50808.554688
1913.313477	51024.218750
1912.328125	51030.074219
1911.343750	51642.792969
1910.358398	51281.031250
1909.373047	51104.343750
1908.387695	51369.066406
1907.401367	51364.988281
1906.416016	51903.160156
1905.429688	52300.671875
1904.443359	51946.550781
1903.457031	51693.554688
1902.470703	51689.414063
1901.483398	51488.261719
1900.497070	51614.648438
1899.509766	51760.683594
1898.522461	52054.343750
1897.535156	51983.687500
1896.546875	52395.300781
1895.559570	52339.367188
1894.571289	51961.242188
1893.583008	52178.367188
1892.594727	51726.636719
1891.606445	52110.886719
1890.618164	52519.574219
1889.628906	52527.558594
1888.639648	52211.210938
1887.650391	52467.355469
1886.661133	52296.039063
1885.671875	52689.593750
1884.682617	53134.566406
1883.692383	52653.906250
1882.702148	52782.109375
1881.711914	52780.203125
1880.721680	53114.429688
1879.731445	52749.398438
1878.740234	52897.105469
1877.749023	52966.289063
1876.757813	53116.351563
1875.766602	53214.882813
1874.775391	53092.789063
1873.784180	53416.734375
1872.791992	53368.148438
1871.799805	53128.503906
1870.807617	53584.523438
1869.815430	53364.511719
1868.823242	53786.046875
1867.830078	53580.761719
1866.837891	53909.101563
1865.844727	53911.863281
1864.851563	54007.593750
1863.858398	53998.101563
1862.864258	54482.660156
1861.871094	54348.371094
1860.876953	53940.289063
1859.882813	53740.136719
1858.888672	54473.687500
1857.894531	54173.316406
1856.899414	54322.597656
1855.905273	54579.312500
1854.910156	55168.093750
1853.915039	54850.707031
1852.919922	54465.070313
1851.923828	54462.812500
1850.928711	54528.894531
1849.932617	55024.425781
1848.936523	55085.503906
1847.940430	55083.128906
1846.944336	55134.414063
1845.947266	55178.359375
1844.951172	55417.335938
1843.954102	55307.640625
1842.957031	55648.867188
1841.959961	55100.546875
1840.962891	55417.320313
1839.964844	55943.472656
1838.966797	56262.417969
1837.969727	56138.070313
1836.970703	55867.679688
1835.972656	55964.953125
1834.974609	56278.792969
1833.975586	56830.992188
1832.976563	56820.988281
1831.978516	56971.527344
1830.978516	56742.609375
1829.979492	57394.027344
1828.980469	57255.066406
1827.980469	56853.628906
1826.980469	57244.625000
1825.980469	57161.644531
1824.980469	57469.843750
1823.979492	57603.035156
1822.979492	57767.753906
1821.978516	57531.753906
1820.977539	57628.441406
1819.976563	58225.128906
1818.975586	58076.535156
1817.973633	57743.578125
1816.972656	57942.046875
1815.970703	58353.902344
1814.968750	58493.980469
1813.966797	57974.468750
1812.963867	58667.316406
1811.961914	58281.265625
1810.958984	58663.605469
1809.956055	58764.726563
1808.953125	58940.914063
1807.950195	58683.457031
1806.946289	59125.988281
1805.943359	59364.968750
1804.939453	59160.824219
1803.935547	59387.605469
1802.930664	59735.308594
1801.926758	59206.964844
1800.922852	59571.507813
1799.917969	59628.730469
1798.913086	60341.316406
1797.908203	59600.445313
1796.903320	59819.601563
1795.897461	60120.855469
1794.891602	60366.421875
1793.886719	60218.046875
1792.880859	60205.007813
1791.874023	60559.113281
1790.868164	60253.800781
1789.862305	60400.113281
1788.855469	60807.101563
1787.848633	60583.964844
1786.841797	61198.312500
1785.833984	61013.789063
1784.827148	61099.519531
1783.819336	60799.292969
1782.812500	60988.722656
1781.804688	61421.609375
1780.795898	61391.480469
1779.788086	61436.082031
1778.779297	61666.222656
1777.771484	61990.250000
1776.762695	61499.910156
1775.753906	61643.199219
1774.744141	62063.378906
1773.735352	62062.050781
1772.725586	62248.488281
1771.715820	62170.105469
1770.706055	62435.867188
1769.696289	62588.453125
1768.686523	62678.433594
1767.675781	62554.316406
1766.666016	62718.816406
1765.655273	62972.214844
1764.644531	62992.339844
1763.632813	63324.910156
1762.622070	63844.800781
1761.610352	63372.210938
1760.598633	63714.140625
1759.586914	63796.550781
1758.575195	63614.777344
1757.563477	63882.046875
1756.550781	64197.226563
1755.538086	64178.679688
1754.525391	64496.089844
1753.512695	64451.101563
1752.500000	64900.281250
1751.486328	64675.351563
1750.473633	64925.296875
1749.459961	64681.253906
1748.446289	65221.156250
1747.432617	65159.292969
1746.417969	65408.964844
1745.404297	65493.234375
1744.389648	65989.484375
1743.375000	66442.445313
1742.360352	65733.867188
1741.344727	66150.796875
1740.330078	66498.156250
1739.314453	66297.320313
1738.298828	67350.429688
1737.283203	67204.539063
1736.267578	67735.640625
1735.251953	67809.757813
1734.235352	68295.125000
1733.218750	68390.625000
1732.202148	68476.531250
1731.185547	69250.695313
1730.168945	70005.476563
1729.151367	70341.890625
1728.133789	70327.054688
1727.117188	71162.429688
1726.098633	71725.296875
1725.081055	72058.773438
1724.063477	73065.250000
1723.044922	72909.125000
1722.026367	73518.992188
1721.007813	73956.875000
1719.989258	74685.601563
1718.970703	74643.757813
1717.951172	74628.156250
1716.931641	75287.226563
1715.912109	75495.570313
1714.892578	76228.132813
1713.873047	76498.179688
1712.853516	75920.015625
1711.833008	76568.734375
1710.812500	76188.421875
1709.791992	76327.312500
1708.771484	76032.875000
1707.750000	76412.132813
1706.729492	75684.656250
1705.708008	76563.507813
1704.686523	76216.890625
1703.665039	75853.734375
1702.642578	75314.734375
1701.621094	75356.070313
1700.598633	75128.757813
1699.576172	75124.945313
1698.553711	74555.546875
1697.531250	75029.414063
1696.507813	75431.835938
1695.485352	75411.335938
1694.461914	74231.968750
1693.438477	74848.000000
1692.415039	74127.304688
1691.390625	74676.671875
1690.367188	75028.882813
1689.342773	74495.968750
1688.318359	74399.726563
1687.293945	74339.093750
1686.269531	73993.914063
1685.244141	74035.320313
1684.218750	74652.750000
1683.194336	73745.976563
1682.168945	74503.039063
1681.142578	73949.625000
1680.117188	74469.492188
1679.090820	74612.593750
1678.064453	74535.421875
1677.038086	74522.195313
1676.011719	74440.320313
1674.985352	74270.898438
1673.958008	74262.453125
1672.931641	73913.312500
1671.904297	74626.390625
1670.876953	74407.382813
1669.848633	74195.546875
1668.821289	74853.812500
1667.792969	74835.796875
1666.764648	74692.523438
1665.736328	74733.601563
1664.708008	75062.906250
1663.679688	74794.460938
1662.650391	74816.601563
1661.621094	75554.203125
1660.591797	75382.609375
1659.562500	74800.351563
1658.533203	75976.515625
1657.502930	75266.937500
1656.472656	75605.085938
1655.442383	75973.773438
1654.412109	75330.593750
1653.381836	76130.695313
1652.351563	76065.304688
1651.320313	76579.773438
1650.289063	76372.921875
1649.257813	76347.562500
1648.226563	76392.890625
1647.194336	76657.250000
1646.163086	76424.609375
1645.130859	76625.289063
1644.098633	76623.445313
1643.066406	76896.976563
1642.033203	77170.414063
1641.000977	77474.335938
1639.967773	77627.585938
1638.934570	77801.945313
1637.901367	78427.765625
1636.868164	77983.539063
1635.833984	78044.898438
1634.800781	78423.531250
1633.766602	78517.679688
1632.732422	79304.921875
1631.697266	79467.000000
1630.663086	78851.585938
1629.627930	80493.117188
1628.593750	80178.265625
1627.558594	80262.593750
1626.522461	80637.929688
1625.487305	81606.820313
1624.451172	82045.117188
1623.416016	82051.632813
1622.379883	82508.453125
1621.343750	83989.859375
1620.306641	85451.976563
1619.270508	85657.117188
1618.233398	87552.000000
1617.196289	89694.593750
1616.159180	91278.820313
1615.122070	93719.820313
1614.083984	96466.750000
1613.046875	97360.468750
1612.008789	100164.296875
1610.970703	101419.859375
1609.932617	101528.179688
1608.893555	101107.625000
1607.855469	100860.335938
1606.816406	99394.453125
1605.777344	97959.484375
1604.738281	94965.375000
1603.698242	94237.742188
1602.659180	92012.046875
1601.619141	90775.710938
1600.579102	89383.265625
1599.539063	88005.320313
1598.499023	87443.062500
1597.458008	86836.625000
1596.417969	86132.335938
1595.376953	85561.359375
1594.335938	85280.023438
1593.294922	84730.398438
1592.252930	84684.960938
1591.210938	84226.617188
1590.169922	84456.515625
1589.127930	84401.812500
1588.084961	84433.398438
1587.042969	84308.773438
1586.000000	83848.554688
1584.958008	83682.125000
1583.915039	84305.617188
1582.872070	84171.781250
1581.828125	84762.343750
1580.785156	85038.320313
1579.741211	85144.218750
1578.697266	85268.710938
1577.653320	85628.226563
1576.609375	85482.632813
1575.564453	86232.851563
1574.520508	87089.804688
1573.475586	87232.421875
1572.430664	87656.359375
1571.384766	88047.593750
1570.339844	88136.484375
1569.293945	88332.257813
1568.249023	88560.484375
1567.202148	88972.171875
1566.156250	88289.617188
1565.110352	88828.937500
1564.063477	88692.328125
1563.017578	87216.156250
1561.970703	86966.140625
1560.922852	86414.500000
1559.875977	86431.554688
1558.829102	85546.117188
1557.781250	84760.726563
1556.733398	85320.750000
1555.685547	84331.625000
1554.636719	84168.187500
1553.588867	83840.234375
1552.540039	83612.046875
1551.491211	83036.367188
1550.442383	83538.156250
1549.393555	82937.210938
1548.344727	82341.109375
1547.294922	82685.296875
1546.245117	83040.929688
1545.195313	82905.734375
1544.145508	82414.187500
1543.094727	82603.070313
1542.044922	83233.750000
1540.994141	82515.726563
1539.943359	82135.593750
1538.892578	82571.781250
1537.840820	82147.843750
1536.790039	81735.609375
1535.738281	82111.539063
1534.686523	82011.367188
1533.634766	81414.562500
1532.583008	81367.671875
1531.530273	81304.625000
1530.477539	81077.671875
1529.424805	80825.406250
1528.372070	80836.335938
1527.319336	80413.429688
1526.265625	79889.156250
1525.212891	80726.070313
1524.159180	80416.414063
1523.105469	80259.062500
1522.051758	80300.039063
1520.997070	80380.179688
1519.942383	80188.335938
1518.888672	79800.687500
1517.833984	80166.554688
1516.778320	79905.734375
1515.723633	79665.734375
1514.667969	79679.101563
1513.612305	79568.148438
1512.556641	79494.062500
1511.500977	79484.429688
1510.445313	79700.304688
1509.388672	79488.187500
1508.332031	79793.679688
1507.275391	79298.742188
1506.218750	79300.640625
1505.162109	79589.898438
1504.104492	79256.148438
1503.047852	79524.632813
1501.990234	79436.859375
1500.931641	78999.929688
1499.874023	79086.843750
1498.816406	79497.523438
1497.757813	79678.453125
1496.699219	79423.132813
1495.640625	79271.187500
1494.582031	79091.757813
1493.522461	78882.562500
1492.462891	79045.070313
1491.403320	78852.000000
1490.343750	78798.890625
1489.284180	79211.226563
1488.224609	78665.195313
1487.164063	78960.515625
1486.103516	79271.765625
1485.042969	78826.820313
1483.982422	78998.234375
1482.920898	78915.367188
1481.860352	78839.390625
1480.798828	79301.468750
1479.737305	79177.375000
1478.675781	78998.398438
1477.613281	79123.812500
1476.550781	79283.500000
1475.489258	78997.078125
1474.426758	79460.898438
1473.363281	79455.796875
1472.300781	79014.023438
1471.237305	79381.578125
1470.174805	79499.890625
1469.111328	79928.914063
1468.046875	80437.742188
1466.983398	79692.382813
1465.919922	80333.515625
1464.855469	80319.101563
1463.791016	80069.546875
1462.726563	80500.273438
1461.661133	80419.640625
1460.596680	81317.898438
1459.531250	81478.960938
1458.465820	80638.648438
1457.400391	80678.906250
1456.334961	80953.992188
1455.268555	81035.210938
1454.202148	81125.507813
1453.135742	81336.546875
1452.069336	81100.929688
1451.002930	81594.367188
1449.935547	81468.109375
1448.869141	81300.906250
1447.801758	80972.109375
1446.734375	81772.515625
1445.666016	82030.945313
1444.598633	81925.187500
1443.530273	82224.445313
1442.461914	83194.640625
1441.393555	83450.343750
1440.325195	83580.882813
1439.256836	83711.367188
1438.187500	84426.000000
1437.118164	85113.093750
1436.048828	85261.406250
1434.979492	85507.351563
1433.909180	86325.617188
1432.839844	86596.257813
1431.769531	86414.937500
1430.699219	87343.828125
1429.627930	86890.046875
1428.557617	86940.242188
1427.486328	87183.281250
1426.416016	86922.593750
1425.343750	87274.414063
1424.272461	88047.921875
1423.201172	87161.406250
1422.128906	87254.546875
1421.056641	86805.937500
1419.984375	86856.039063
1418.912109	86924.250000
1417.839844	86797.617188
1416.766602	87429.781250
1415.693359	86829.796875
1414.620117	86551.531250
1413.546875	86698.953125
1412.473633	86814.625000
1411.399414	86421.093750
1410.325195	86781.117188
1409.250977	86706.687500
1408.176758	87964.421875
1407.102539	87469.195313
1406.027344	87774.500000
1404.952148	88755.570313
1403.876953	88339.562500
1402.801758	88348.515625
1401.726563	88264.835938
1400.650391	88750.406250
1399.574219	89127.398438
1398.498047	89662.312500
1397.421875	89095.304688
1396.345703	88948.343750
1395.268555	88548.664063
1394.191406	89363.078125
1393.114258	89053.703125
1392.037109	89432.390625
1390.959961	89355.390625
1389.881836	90128.468750
1388.804688	89828.179688
1387.726563	90733.875000
1386.647461	90510.195313
1385.569336	90980.570313
1384.491211	91137.640625
1383.412109	92037.929688
1382.333008	92654.140625
1381.253906	92529.367188
1380.173828	93280.328125
1379.094727	93783.429688
1378.014648	93395.226563
1376.934570	93511.132813
1375.854492	93766.468750
1374.773438	93346.968750
1373.693359	93633.718750
1372.612305	93023.281250
1371.531250	92781.718750
1370.450195	92110.968750
1369.369141	92370.750000
1368.287109	91423.968750
1367.205078	91189.593750
1366.123047	91130.476563
1365.041016	90534.710938
1363.958984	90107.531250
1362.875977	89258.515625
1361.793945	89336.664063
1360.710938	88766.320313
1359.626953	88837.796875
1358.543945	88420.265625
1357.460938	88736.218750
1356.376953	88036.328125
1355.292969	87569.835938
1354.208984	87477.828125
1353.124023	86749.398438
1352.040039	87529.148438
1350.955078	86738.242188
1349.870117	87152.625000
1348.785156	87775.117188
1347.700195	86525.593750
1346.614258	86874.859375
1345.528320	86816.648438
1344.442383	86595.093750
1343.356445	86351.242188
1342.270508	86044.843750
1341.183594	86273.093750
1340.096680	86194.898438
1339.009766	86644.367188
1337.922852	86467.773438
1336.835938	86447.679688
1335.748047	86168.390625
1334.661133	86726.992188
1333.573242	86657.710938
1332.484375	86956.953125
1331.396484	86434.367188
1330.307617	86628.609375
1329.219727	86894.203125
1328.130859	86206.750000
1327.041992	86499.093750
1325.952148	86532.539063
1324.863281	86893.851563
1323.773438	86084.226563
1322.683594	86559.195313
1321.593750	86548.007813
1320.502930	85941.703125
1319.413086	86140.101563
1318.322266	85754.664063
1317.231445	85875.046875
1316.140625	86465.335938
1315.048828	86142.390625
1313.958008	86019.937500
1312.866211	86311.578125
1311.774414	86322.671875
1310.682617	86244.750000
1309.589844	86500.585938
1308.498047	86676.242188
1307.405273	86925.218750
1306.312500	86951.742188
1305.218750	87073.851563
1304.125977	87496.000000
1303.032227	87777.976563
1301.939453	88088.726563
1300.845703	87979.476563
1299.750977	88361.156250
1298.657227	88927.023438
1297.562500	89486.023438
1296.467773	89838.351563
1295.373047	90494.632813
1294.278320	91141.804688
1293.183594	91757.671875
1292.087891	91060.000000
1290.992188	91165.500000
1289.896484	90554.664063
1288.800781	91498.328125
1287.704102	91029.523438
1286.608398	90263.882813
1285.511719	90265.265625
1284.415039	89998.546875
1283.317383	89235.718750
1282.220703	89330.289063
1281.123047	89024.015625
1280.025391	88934.828125
1278.927734	88298.898438
1277.830078	87928.789063
1276.731445	87950.468750
1275.633789	87892.492188
1274.535156	86653.320313
1273.436523	87641.687500
1272.336914	87028.781250
1271.238281	85759.476563
1270.138672	86210.328125
1269.039063	85739.437500
1267.939453	85750.406250
1266.839844	84522.007813
1265.739258	84873.343750
1264.638672	84895.492188
1263.538086	84754.242188
1262.437500	83952.968750
1261.336914	84948.640625
1260.235352	84204.984375
1259.134766	83481.460938
1258.033203	83863.398438
1256.930664	83254.875000
1255.829102	83389.726563
1254.726563	83021.828125
1253.625000	82854.664063
1252.522461	82021.945313
1251.418945	82084.187500
1250.316406	81862.195313
1249.212891	82149.125000
1248.110352	81310.515625
1247.006836	81260.523438
1245.902344	81168.718750
1244.798828	80680.726563
1243.694336	80716.703125
1242.589844	81109.125000
1241.485352	80146.195313
1240.380859	81209.453125
1239.276367	80352.406250
1238.170898	80155.320313
1237.065430	80595.835938
1235.959961	80324.031250
1234.854492	80186.375000
1233.748047	80039.976563
1232.642578	79983.703125
1231.536133	79863.742188
1230.429688	79653.796875
1229.322266	80284.835938
1228.215820	80019.992188
1227.108398	79465.531250
1226.000977	80317.890625
1224.893555	79552.937500
1223.786133	79825.843750
1222.677734	79232.328125
1221.569336	79612.640625
1220.460938	79061.023438
1219.352539	79002.812500
1218.244141	78951.195313
1217.134766	78450.390625
1216.025391	78611.398438
1214.916016	77972.828125
1213.806641	78252.117188
1212.697266	77749.601563
1211.586914	78545.484375
1210.476563	78417.382813
1209.366211	78753.273438
1208.255859	78377.921875
1207.145508	78339.601563
1206.034180	77962.273438
1204.922852	78617.265625
1203.811523	78817.234375
1202.700195	78689.226563
1201.587891	78701.132813
1200.476563	79174.132813
1199.364258	78497.710938
1198.251953	78625.421875
1197.138672	79401.742188
1196.026367	79402.578125
1194.913086	79626.101563
1193.799805	79960.875000
1192.686523	80059.804688
1191.573242	80579.843750
1190.458984	80434.273438
1189.344727	79961.562500
1188.230469	79694.023438
1187.116211	79971.695313
1186.001953	80131.546875
1184.886719	80332.742188
1183.772461	79775.468750
1182.657227	79671.609375
1181.541016	80005.656250
1180.425781	79973.664063
1179.309570	80065.804688
1178.193359	79064.898438
1177.077148	79333.492188
1175.960938	79297.273438
1174.844727	79276.296875
1173.727539	78576.500000
1172.610352	78742.734375
1171.493164	78097.656250
1170.375977	77685.484375
1169.257813	77671.328125
1168.139648	77954.976563
1167.022461	77108.375000
1165.903320	77265.984375
1164.785156	77527.812500
1163.666992	76979.328125
1162.547852	77249.796875
1161.428711	76673.328125
1160.309570	77071.835938
1159.189453	76840.718750
1158.070313	77147.898438
1156.950195	76582.703125
1155.830078	76338.781250
1154.709961	77068.828125
1153.588867	76484.429688
1152.468750	76604.906250
1151.347656	76493.382813
1150.226563	76423.070313
1149.104492	76888.039063
1147.983398	76852.351563
1146.861328	77444.867188
1145.739258	76590.398438
1144.617188	77429.601563
1143.495117	77380.835938
1142.372070	78111.351563
1141.250000	78324.343750
1140.126953	78372.796875
1139.003906	78953.445313
1137.879883	79339.203125
1136.756836	79476.101563
1135.632813	79150.226563
1134.508789	79687.054688
1133.384766	79054.320313
1132.259766	79150.101563
1131.135742	78480.960938
1130.010742	78740.984375
1128.885742	78761.164063
1127.759766	78826.679688
1126.634766	78121.367188
1125.508789	78381.250000
1124.382813	78977.742188
1123.256836	78065.617188
1122.130859	78031.937500
1121.003906	77978.851563
1119.877930	77830.882813
1118.750977	77307.757813
1117.624023	77681.710938
1116.496094	77003.593750
1115.369141	76601.585938
1114.241211	76510.015625
1113.113281	76677.000000
1111.985352	76322.656250
1110.856445	76612.359375
1109.728516	76477.773438
1108.599609	76610.187500
1107.470703	76531.609375
1106.340820	76302.406250
1105.211914	76953.312500
1104.082031	75981.937500
1102.952148	75565.835938
1101.822266	76246.609375
1100.692383	75822.007813
1099.561523	75573.820313
1098.431641	75078.562500
1097.300781	75859.914063
1096.169922	75517.312500
1095.038086	75804.234375
1093.907227	75027.929688
1092.775391	74949.781250
1091.643555	74912.453125
1090.511719	74527.390625
1089.378906	74717.640625
1088.246094	73658.984375
1087.114258	74089.593750
1085.980469	75976.460938
1084.847656	74793.765625
1083.714844	73783.039063
1082.581055	73630.187500
1081.447266	73273.765625
1080.313477	73408.210938
1079.179688	73613.320313
1078.044922	73955.445313
1076.910156	73824.101563
1075.775391	73315.914063
1074.640625	74340.882813
1073.505859	73798.531250
1072.370117	73451.132813
1071.234375	73831.414063
1070.098633	73918.445313
1068.962891	74108.109375
1067.826172	73499.984375
1066.690430	73304.757813
1065.553711	73440.984375
1064.416992	73115.445313
1063.279297	73016.562500
1062.142578	73308.734375
1061.004883	72677.898438
1059.867188	72920.890625
1058.729492	72768.710938
1057.590820	72573.882813
1056.453125	72654.507813
1055.314453	72617.710938
1054.175781	72179.734375
1053.037109	72795.914063
1051.897461	73100.406250
1050.757813	73008.093750
1049.618164	72736.679688
1048.478516	72426.992188
1047.338867	73083.039063
1046.199219	72992.906250
1045.058594	73318.320313
1043.917969	72927.781250
1042.777344	73325.507813
1041.635742	73009.640625
1040.495117	72894.039063
1039.353516	72431.468750
1038.211914	72294.718750
1037.069336	72485.750000
1035.927734	71978.820313
1034.785156	71969.859375
1033.642578	72116.171875
1032.500000	72079.546875
1031.357422	72093.953125
1030.213867	72916.148438
1029.071289	72768.859375
1027.927734	72415.500000
1026.783203	72835.625000
1025.639648	72960.328125
1024.495117	72938.429688
1023.351563	72901.679688
1022.207031	73204.625000
1021.061523	73341.890625
1019.916992	73285.968750
1018.771484	73348.898438
1017.625977	73191.164063
1016.480469	72908.335938
1015.334961	73543.875000
1014.188477	72796.734375
1013.041992	73211.585938
1011.895508	73321.070313
1010.749023	72938.859375
1009.602539	73311.070313
1008.455078	73329.375000
1007.307617	73019.375000
1006.160156	73421.000000
1005.012695	73648.867188
1003.864258	73372.843750
1002.716797	73551.953125
1001.568359	74596.445313
1000.419922	74866.226563
999.270508	75097.828125
998.122070	75819.992188
996.972656	76457.304688
995.823242	75578.585938
994.673828	75706.296875
993.523438	75605.726563
992.373047	75376.304688
991.222656	75463.843750
990.072266	75215.507813
988.921875	75754.953125
987.771484	75458.093750
986.620117	75925.507813
985.468750	75187.609375
984.317383	75787.835938
983.165039	75605.109375
982.013672	75424.546875
980.861328	75414.882813
979.708984	75219.656250
978.555664	74994.984375
977.403320	75101.328125
976.250000	75226.593750
975.096680	75176.929688
973.943359	74691.179688
972.790039	75484.148438
971.635742	75480.781250
970.481445	75401.609375
969.327148	75547.710938
968.172852	74851.851563
967.018555	74920.140625
965.863281	75327.132813
964.708008	74970.375000
963.552734	75175.296875
962.397461	74890.179688
961.241211	74758.648438
960.084961	74444.273438
958.929688	74966.484375
957.772461	74906.445313
956.616211	75222.476563
955.458984	74992.265625
954.301758	74984.742188
953.144531	74956.218750
951.987305	73924.218750
950.830078	74397.554688
949.671875	73781.546875
948.513672	73692.406250
947.355469	73756.437500
946.196289	73298.187500
945.038086	73391.617188
943.878906	73331.960938
942.719727	73622.390625
941.560547	73091.132813
940.400391	73656.007813
939.241211	73573.281250
938.081055	73553.421875
936.919922	73914.742188
935.759766	73880.164063
934.599609	73301.273438
933.438477	73767.085938
932.277344	73493.968750
931.116211	73802.632813
929.954102	73749.265625
928.791992	73961.546875
927.630859	74395.421875
926.467773	74749.671875
925.305664	74263.429688
924.143555	74594.585938
922.980469	74679.031250
921.817383	74834.476563
920.654297	75119.375000
919.490234	74879.937500
918.327148	75505.085938
917.163086	75649.812500
915.999023	75654.625000
914.833984	76573.531250
913.669922	76682.500000
912.504883	76899.906250
911.339844	77275.750000
910.174805	77407.453125
909.008789	78187.554688
907.843750	78473.304688
906.677734	78619.296875
905.511719	78906.929688
904.345703	78244.375000
903.178711	78267.414063
902.011719	77948.867188
900.844727	77432.609375
899.677734	77441.195313
898.510742	77139.625000
897.342773	76503.078125
896.174805	77052.843750
895.006836	76285.476563
893.838867	77153.312500
892.670898	76542.179688
891.501953	76444.859375
890.333008	76663.554688
889.164063	76385.406250
887.994141	76554.156250
886.825195	76126.523438
885.655273	76010.648438
884.485352	76428.601563
883.315430	75963.835938
882.144531	76423.156250
880.973633	76002.156250
879.803711	76523.554688
878.631836	77003.257813
877.460938	76729.679688
876.289063	77117.890625
875.118164	77298.562500
873.945313	77458.429688
872.773438	77574.703125
871.601563	77330.265625
870.428711	77301.437500
869.255859	77560.632813
868.083008	77469.625000
866.910156	76985.109375
865.736328	77327.039063
864.562500	77884.164063
863.388672	78420.375000
862.214844	78498.992188
861.040039	78890.031250
859.866211	79527.125000
858.691406	79075.937500
857.516602	79009.578125
856.340820	78490.406250
855.166016	79077.476563
853.990234	77973.515625
852.814453	78359.992188
851.637695	78074.789063
850.461914	77833.078125
849.285156	77325.007813
848.108398	78087.148438
846.931641	78324.562500
845.754883	78118.062500
844.577148	78248.054688
843.399414	78910.398438
842.221680	79741.671875
841.043945	80009.484375
839.865234	80609.250000
838.687500	81555.203125
837.508789	82121.460938
836.329102	82943.101563
835.150391	83733.523438
833.970703	83532.546875
832.791992	82791.890625
831.611328	81816.703125
830.431641	81156.945313
829.251953	80828.921875
828.071289	79599.359375
826.890625	78833.343750
825.709961	77843.312500
824.528320	77872.070313
823.347656	76991.593750
822.166016	76851.851563
820.984375	76496.242188
819.801758	76519.046875
818.620117	75762.796875
817.437500	75580.203125
816.254883	75814.804688
815.072266	75215.226563
813.888672	74819.210938
812.706055	74895.679688
811.522461	74549.148438
810.338867	74777.539063
809.154297	74279.265625
807.970703	74037.687500
806.786133	73763.359375
805.601563	74006.078125
804.416992	74082.570313
803.231445	74072.906250
802.045898	73608.101563
800.861328	73237.757813
799.674805	73004.859375
798.489258	73423.640625
797.302734	72723.695313
796.117188	72910.906250
794.930664	72428.390625
793.743164	72283.882813
792.556641	71818.023438
791.369141	71557.015625
790.181641	71339.070313
788.994141	71673.632813
787.805664	71523.250000
786.618164	71569.257813
785.429688	70954.757813
784.241211	71129.656250
783.052734	70678.992188
781.863281	70598.398438
780.673828	70517.835938
779.484375	69859.140625
778.294922	70401.734375
777.105469	70096.601563
775.915039	69675.187500
774.724609	69794.921875
773.534180	69794.179688
772.343750	69605.695313
771.152344	70141.578125
769.960938	69769.500000
768.769531	69854.414063
767.578125	69980.070313
766.385742	70609.265625
765.194336	70290.359375
764.001953	70827.539063
762.808594	70779.710938
761.616211	71196.398438
760.422852	71321.648438
759.230469	71444.812500
758.037109	71441.687500
756.842773	72116.468750
755.649414	72725.859375
754.455078	72557.656250
753.260742	72597.039063
752.066406	72591.648438
750.871094	72537.445313
749.676758	72161.976563
748.481445	72176.992188
747.286133	71352.492188
746.089844	70772.171875
744.894531	71029.234375
743.698242	71058.656250
742.501953	70261.367188
741.304688	70362.000000
740.108398	70535.679688
738.911133	69296.375000
737.713867	70044.585938
736.516602	69219.804688
735.319336	69468.632813
734.121094	69956.726563
732.922852	69682.046875
731.724609	69060.718750
730.526367	68721.421875
729.327148	69235.632813
728.127930	68501.226563
726.928711	68235.164063
725.729492	68388.562500
724.530273	68387.953125
723.330078	67866.882813
722.129883	67752.976563
720.929688	67548.023438
719.728516	67766.156250
718.528320	68301.914063
717.327148	67714.562500
716.125977	68023.562500
714.923828	67784.343750
713.722656	67795.953125
712.520508	68040.062500
711.318359	68449.828125
710.116211	67978.281250
708.913086	68127.234375
707.710938	68569.070313
706.507813	68008.882813
705.304688	67921.460938
704.100586	68282.312500
702.897461	68320.023438
701.693359	68468.734375
700.489258	68677.921875
699.284180	68445.171875
698.080078	68749.093750
696.875000	68415.570313
695.669922	68435.046875
694.464844	68922.250000
693.258789	69181.492188
692.053711	69511.171875
690.847656	69695.648438
689.641602	69664.492188
688.434570	69623.273438
687.228516	70000.937500
686.021484	69838.859375
684.814453	69582.218750
683.607422	69522.914063
682.399414	69495.828125
681.191406	69508.992188
679.983398	69504.039063
678.775391	69838.984375
677.567383	69524.296875
676.358398	69889.257813
675.149414	70229.953125
673.940430	69999.773438
672.730469	70350.367188
671.521484	69879.164063
670.311523	70020.750000
669.101563	69668.265625
667.890625	69159.296875
666.680664	69254.757813
665.469727	69047.109375
664.258789	68418.132813
663.047852	68054.218750
661.835938	67943.195313
660.625000	67575.492188
659.413086	67201.906250
658.201172	67750.671875
656.988281	67411.265625
655.776367	67186.210938
654.563477	67261.789063
653.350586	66824.492188
652.136719	67132.453125
650.923828	66971.687500
649.709961	66580.734375
648.496094	66474.171875
647.282227	66699.890625
646.067383	66721.414063
644.852539	66418.812500
643.637695	67120.484375
642.422852	66495.929688
641.208008	66411.484375
639.992188	66866.843750
638.776367	66646.437500
637.560547	66955.695313
636.344727	67003.085938
635.127930	66694.875000
633.911133	66812.195313
632.694336	66993.375000
631.477539	67122.570313
630.259766	66598.960938
629.042969	66307.054688
627.825195	66398.390625
626.606445	66000.890625
625.388672	66016.437500
624.169922	66159.609375
622.951172	66442.304688
621.732422	65835.757813
620.513672	65887.187500
619.293945	66016.320313
618.074219	65948.148438
616.854492	66077.210938
615.634766	66052.859375
614.414063	66177.867188
613.193359	66024.093750
611.972656	66338.156250
610.751953	65760.484375
609.530273	65650.640625
608.309570	66195.367188
607.087891	66083.484375
605.866211	65428.726563
604.643555	65488.023438
603.420898	66449.828125
602.198242	65660.203125
600.975586	66178.460938
599.752930	66138.218750
598.529297	65529.855469
597.305664	65879.015625
596.082031	66039.406250
594.858398	65848.312500
593.633789	65639.429688
592.410156	65381.007813
591.185547	65831.054688
589.959961	65477.460938
588.735352	65746.812500
587.509766	65738.421875
586.284180	65684.429688
585.058594	65963.500000
583.832031	66028.398438
582.606445	65754.414063
581.379883	65993.671875
580.153320	66387.343750
578.925781	66111.453125
577.699219	66415.851563
576.471680	66345.945313
575.244141	66345.351563
574.015625	66192.359375
572.788086	66365.906250
571.559570	66537.406250
570.331055	66501.156250
569.101563	66075.343750
567.873047	65809.835938
566.643555	65985.250000
565.414063	65862.156250
564.184570	65590.906250
562.954102	65507.437500
561.724609	65850.664063
560.494141	65399.839844
559.263672	65472.437500
558.032227	65240.980469
556.800781	65439.898438
555.570313	65352.589844
554.337891	65016.703125
553.106445	64980.792969
551.874023	65288.074219
550.642578	65240.289063
549.409180	65062.390625
548.176758	65188.125000
546.944336	65039.859375
545.710938	64797.066406
544.477539	64881.394531
543.243164	64892.812500
542.009766	64815.601563
540.775391	64937.281250
539.541016	64797.085938
538.306641	64647.101563
537.071289	65160.343750
535.836914	64778.175781
534.601563	64819.082031
533.366211	64909.136719
532.129883	64991.292969
530.894531	64971.179688
529.658203	64744.675781
528.421875	64779.636719
527.184570	64865.671875
525.948242	64768.968750
524.710938	64894.250000
523.473633	65174.617188
522.235352	65472.550781
520.998047	64806.503906
519.759766	65320.285156
518.521484	65119.582031
517.283203	65256.410156
516.043945	64979.285156
514.804688	65353.386719
513.565430	65311.644531
512.326172	65360.097656
511.085938	64914.585938
509.846680	65339.355469
508.606445	65281.960938
507.366211	65244.175781
506.125000	65392.468750
504.883789	65025.683594
503.643555	65093.683594
502.401367	65230.167969
501.160156	65419.437500
499.917969	64796.574219
498.675781	65189.316406
497.433594	65030.308594
496.191406	64826.371094
494.948242	65259.937500
493.705078	64682.640625
492.461914	65321.292969
491.218750	65248.375000
489.975586	65349.371094
488.731445	65038.148438
487.487305	64996.566406
486.242188	65331.871094
484.998047	65278.527344
483.752930	65106.132813
482.507813	65363.152344
481.262695	65073.722656
480.016602	65498.421875
478.771484	65519.199219
477.525391	65994.351563
476.278320	65769.351563
475.032227	65503.496094
473.785156	65886.765625
472.538086	66106.203125
471.291016	66584.671875
470.043945	66780.507813
468.795898	66485.484375
467.547852	66790.304688
466.299805	66598.562500
465.051758	67212.726563
463.802734	67735.179688
462.553711	68084.273438
461.304688	68291.210938
460.055664	68295.796875
458.805664	68611.515625
457.555664	68977.664063
456.305664	69244.523438
455.055664	69468.531250
453.804688	69148.367188
452.553711	69922.101563
451.302734	69936.062500
450.051758	70272.390625
448.799805	71604.664063
447.548828	71769.703125
446.296875	71936.625000
445.043945	72635.187500
443.791992	73026.937500
442.539063	72873.437500
441.286133	72559.023438
440.033203	72444.453125
438.779297	71552.484375
437.526367	70501.914063
436.272461	69523.437500
435.017578	68967.734375
433.763672	67486.234375
432.508789	67878.257813
431.253906	67594.281250
429.999023	67490.476563
428.744141	66445.914063
427.488281	66439.125000
426.232422	66472.976563
424.976563	66429.421875
423.720703	66209.859375
422.463867	65986.507813
421.207031	65805.773438
419.950195	65692.773438
418.693359	65668.718750
417.435547	65737.429688
416.177734	65923.976563
414.919922	65942.382813
413.662109	65676.867188
412.403320	65587.164063
411.144531	65706.015625
409.885742	65577.734375
408.626953	65862.500000
407.367188	65533.558594
406.107422	65623.375000
404.847656	65537.625000
403.587891	65253.277344
402.327148	65356.582031
401.067383	65438.636719
