#Wave		#Intensity
2001.182617	37030.984375
2000.212891	37030.984375
1999.243164	37325.250000
1998.273438	37258.597656
1997.303711	37259.609375
1996.333008	36997.621094
1995.363281	37351.781250
1994.392578	37122.414063
1993.421875	37418.847656
1992.451172	37602.542969
1991.479492	37771.152344
1990.508789	37399.246094
1989.537109	37415.230469
1988.566406	37686.335938
1987.594727	37397.160156
1986.622070	37390.628906
1985.650391	37529.093750
1984.677734	37547.531250
1983.706055	37605.949219
1982.733398	37801.769531
1981.760742	37937.562500
1980.788086	37606.222656
1979.814453	37372.394531
1978.841797	37440.773438
1977.868164	37618.964844
1976.894531	37767.144531
1975.920898	38127.394531
1974.947266	37886.187500
1973.972656	37754.832031
1972.999023	37890.406250
1972.024414	37709.214844
1971.049805	37979.386719
1970.075195	38154.734375
1969.099609	38043.378906
1968.125000	38193.726563
1967.149414	37942.867188
1966.173828	38108.128906
1965.198242	38153.769531
1964.222656	37910.515625
1963.247070	38068.218750
1962.270508	38011.773438
1961.294922	37965.300781
1960.318359	38180.144531
1959.341797	38245.625000
1958.364258	38403.125000
1957.387695	38187.472656
1956.410156	38538.902344
1955.433594	38320.812500
1954.456055	38341.453125
1953.478516	38541.046875
1952.500000	38201.296875
1951.522461	38162.308594
1950.543945	38302.203125
1949.565430	38578.656250
1948.586914	38472.570313
1947.608398	38652.054688
1946.629883	38255.535156
1945.650391	38427.550781
1944.671875	38589.574219
1943.692383	38406.652344
1942.712891	38620.718750
1941.733398	38264.230469
1940.752930	38490.640625
1939.773438	38726.890625
1938.792969	38229.261719
1937.812500	38698.457031
1936.832031	38468.644531
1935.851563	38687.382813
1934.870117	38700.425781
1933.888672	38928.949219
1932.908203	38882.507813
1931.926758	38964.835938
1930.945313	38836.707031
1929.962891	38597.242188
1928.981445	38632.550781
1927.999023	38949.910156
1927.016602	39022.250000
1926.034180	38688.921875
1925.051758	39184.156250
1924.069336	38885.531250
1923.085938	38957.824219
1922.102539	38765.621094
1921.119141	38954.054688
1920.135742	39048.531250
1919.152344	38886.054688
1918.168945	39183.039063
1917.184570	38781.050781
1916.200195	38949.554688
1915.215820	39293.273438
1914.231445	39135.824219
1913.247070	39143.769531
1912.261719	39243.003906
1911.276367	39376.734375
1910.291992	39345.164063
1909.306641	39256.886719
1908.320313	39269.726563
1907.334961	39410.750000
1906.348633	39628.128906
1905.363281	39295.890625
1904.376953	39675.824219
1903.390625	39590.035156
1902.403320	39085.562500
1901.416992	39489.957031
1900.429688	39480.566406
1899.443359	39611.496094
1898.456055	39319.035156
1897.467773	39627.125000
1896.480469	39829.308594
1895.493164	39369.679688
1894.504883	39621.023438
1893.516602	39810.800781
1892.528320	39521.066406
1891.540039	39821.410156
1890.550781	39718.566406
1889.562500	40001.566406
1888.573242	39883.980469
1887.583984	40073.503906
1886.594727	39968.222656
1885.605469	39705.816406
1884.615234	39912.449219
1883.625000	39910.351563
1882.635742	39905.796875
1881.645508	39763.820313
1880.654297	39904.050781
1879.664063	40456.343750
1878.673828	40051.910156
1877.682617	40008.089844
1876.691406	40037.839844
1875.700195	39682.714844
1874.708984	40131.617188
1873.716797	40109.863281
1872.725586	40296.371094
1871.733398	40517.109375
1870.741211	40198.937500
1869.749023	39993.523438
1868.755859	40708.761719
1867.763672	40691.816406
1866.770508	40408.097656
1865.777344	40493.984375
1864.784180	40844.074219
1863.791016	40440.609375
1862.797852	40753.898438
1861.803711	40780.968750
1860.809570	40253.035156
1859.815430	40187.289063
1858.821289	40268.210938
1857.827148	40622.785156
1856.832031	40859.960938
1855.837891	41004.230469
1854.842773	40865.132813
1853.847656	40586.894531
1852.852539	40950.859375
1851.856445	41500.214844
1850.861328	40912.050781
1849.865234	40956.097656
1848.869141	40865.941406
1847.873047	41124.640625
1846.876953	41041.800781
1845.879883	41244.289063
1844.883789	41080.996094
1843.886719	41678.296875
1842.889648	41768.449219
1841.892578	41578.343750
1840.895508	41329.828125
1839.897461	41500.378906
1838.899414	41605.105469
1837.901367	41607.523438
1836.903320	41463.859375
1835.905273	41838.730469
1834.907227	42043.101563
1833.908203	41770.464844
1832.909180	42096.421875
1831.910156	42137.656250
1830.911133	42195.902344
1829.912109	41928.292969
1828.912109	42151.871094
1827.913086	42020.480469
1826.913086	42404.363281
1825.913086	42214.652344
1824.913086	42326.261719
1823.912109	42408.683594
1822.912109	42784.933594
1821.911133	42231.054688
1820.910156	42029.394531
1819.909180	42201.613281
1818.908203	42546.078125
1817.906250	42266.816406
1816.904297	42819.789063
1815.903320	42678.835938
1814.900391	42598.558594
1813.898438	42787.457031
1812.896484	42731.429688
1811.893555	42934.781250
1810.891602	42803.613281
1809.888672	42779.109375
1808.885742	42408.171875
1807.881836	42868.183594
1806.878906	42921.171875
1805.875000	43121.839844
1804.871094	42993.191406
1803.867188	42811.335938
1802.863281	42782.007813
1801.859375	43142.250000
1800.854492	43178.187500
1799.849609	42974.652344
1798.844727	43061.386719
1797.839844	43203.707031
1796.834961	43116.308594
1795.830078	43314.156250
1794.824219	43342.765625
1793.818359	43228.804688
1792.812500	43163.199219
1791.806641	43235.292969
1790.799805	43582.660156
1789.793945	43917.835938
1788.787109	43521.414063
1787.780273	43467.875000
1786.773438	43481.925781
1785.766602	43990.593750
1784.758789	43768.128906
1783.751953	43794.171875
1782.744141	43908.222656
1781.736328	44022.277344
1780.728516	44136.328125
1779.719727	44250.492188
1778.711914	44364.542969
1777.703125	44478.703125
1776.694336	44592.867188
1775.685547	44281.511719
1774.676758	44343.531250
1773.666992	44292.359375
1772.657227	44628.781250
1771.648438	44363.367188
1770.638672	44396.441406
1769.627930	44410.253906
1768.618164	44683.863281
1767.607422	44623.054688
1766.597656	44694.531250
1765.586914	44438.988281
1764.576172	44570.562500
1763.564453	44894.367188
1762.553711	45386.269531
1761.541992	45335.003906
1760.530273	44925.824219
1759.518555	45182.082031
1758.506836	45901.703125
1757.495117	45735.128906
1756.482422	45549.410156
1755.469727	45834.167969
1754.457031	45540.507813
1753.444336	45959.519531
1752.431641	45920.210938
1751.417969	45991.238281
1750.405273	46366.781250
1749.391602	45996.554688
1748.377930	46520.578125
1747.364258	46474.007813
1746.349609	46722.187500
1745.335938	46419.238281
1744.321289	46664.941406
1743.306641	46572.863281
1742.291992	47156.082031
1741.276367	47042.402344
1740.261719	47598.996094
1739.246094	47281.839844
1738.230469	47716.156250
1737.214844	47523.496094
1736.199219	47649.042969
1735.182617	47939.562500
1734.166992	48378.226563
1733.150391	48204.703125
1732.133789	48576.238281
1731.117188	48875.937500
1730.099609	48900.738281
1729.083008	49109.488281
1728.065430	49150.957031
1727.047852	49954.250000
1726.030273	50026.593750
1725.012695	50645.613281
1723.994141	50357.375000
1722.976563	50412.894531
1721.958008	51005.265625
1720.939453	51187.089844
1719.920898	51251.968750
1718.901367	51567.230469
1717.882813	51958.679688
1716.863281	51928.019531
1715.843750	52104.742188
1714.824219	52455.367188
1713.803711	52248.308594
1712.784180	52062.765625
1711.763672	52358.421875
1710.743164	52542.042969
1709.722656	52182.722656
1708.702148	52078.253906
1707.681641	52830.687500
1706.660156	52257.320313
1705.638672	52519.304688
1704.617188	52476.691406
1703.595703	52379.386719
1702.574219	52322.542969
1701.551758	52805.445313
1700.529297	52068.648438
1699.507813	52351.769531
1698.484375	52347.242188
1697.461914	52513.785156
1696.439453	52026.988281
1695.416016	52580.667969
1694.392578	52459.734375
1693.369141	52407.695313
1692.345703	52581.191406
1691.322266	52946.871094
1690.297852	52716.789063
1689.273438	52747.773438
1688.249023	52755.023438
1687.224609	52667.398438
1686.200195	52987.671875
1685.174805	53056.511719
1684.150391	53293.632813
1683.125000	53120.640625
1682.099609	53490.363281
1681.073242	53774.656250
1680.047852	53267.664063
1679.021484	53840.835938
1677.995117	53660.789063
1676.968750	53471.332031
1675.942383	54055.992188
1674.916016	53911.496094
1673.888672	53866.433594
1672.862305	54822.148438
1671.834961	54448.136719
1670.806641	54809.781250
1669.779297	54568.320313
1668.751953	55005.464844
1667.723633	54787.683594
1666.695313	54312.375000
1665.666992	54742.238281
1664.638672	54992.394531
1663.609375	55214.113281
1662.581055	55145.265625
1661.551758	55605.363281
1660.522461	55321.628906
1659.493164	55439.261719
1658.462891	55589.894531
1657.433594	55716.875000
1656.403320	55537.117188
1655.373047	55956.542969
1654.342773	56031.500000
1653.312500	56309.207031
1652.281250	56178.968750
1651.250977	56699.328125
1650.219727	56102.445313
1649.188477	55847.425781
1648.156250	56876.414063
1647.125000	56465.886719
1646.092773	56915.070313
1645.060547	56824.898438
1644.028320	56843.046875
1642.996094	57367.234375
1641.963867	57088.761719
1640.930664	57038.609375
1639.898438	57099.042969
1638.865234	57622.804688
1637.832031	57652.535156
1636.797852	57891.511719
1635.764648	57895.320313
1634.730469	58127.109375
1633.696289	58262.468750
1632.662109	58198.066406
1631.627930	58819.625000
1630.592773	59260.113281
1629.558594	58906.722656
1628.523438	59638.167969
1627.488281	60411.605469
1626.453125	60152.070313
1625.416992	60781.992188
1624.381836	60637.441406
1623.345703	61907.445313
1622.309570	61915.191406
1621.273438	63067.261719
1620.237305	63752.363281
1619.200195	64584.894531
1618.163086	65454.625000
1617.125977	67282.445313
1616.088867	68741.781250
1615.051758	70437.179688
1614.014648	71534.757813
1612.976563	72088.687500
1611.938477	73557.828125
1610.900391	74436.562500
1609.862305	74009.062500
1608.823242	74136.273438
1607.785156	73556.906250
1606.746094	72126.312500
1605.707031	71058.710938
1604.667969	69598.664063
1603.628906	68457.078125
1602.588867	67862.867188
1601.548828	66705.632813
1600.508789	66308.203125
1599.468750	65665.617188
1598.428711	64782.675781
1597.387695	63977.109375
1596.347656	63923.679688
1595.306641	63991.660156
1594.265625	63200.664063
1593.224609	62876.683594
1592.182617	62744.144531
1591.140625	62742.292969
1590.099609	62605.156250
1589.057617	62619.644531
1588.014648	62230.761719
1586.972656	62590.324219
1585.929688	62080.378906
1584.887695	61682.464844
1583.844727	61960.378906
1582.800781	61669.785156
1581.757813	62276.003906
1580.714844	62656.121094
1579.670898	63296.863281
1578.626953	63485.769531
1577.583008	63511.687500
1576.538086	63200.167969
1575.494141	63512.292969
1574.449219	63421.871094
1573.404297	64431.578125
1572.359375	63717.816406
1571.314453	63634.371094
1570.269531	63697.402344
1569.223633	64111.351563
1568.177734	63637.488281
1567.131836	63444.914063
1566.085938	63250.082031
1565.040039	63245.757813
1563.993164	62823.460938
1562.946289	62545.257813
1561.899414	62559.625000
1560.852539	61931.117188
1559.805664	61571.996094
1558.757813	61744.281250
1557.709961	61241.507813
1556.662109	60959.226563
1555.614258	61175.578125
1554.566406	61969.113281
1553.517578	61292.804688
1552.469727	61309.664063
1551.420898	60955.785156
1550.372070	60826.742188
1549.322266	60987.281250
1548.273438	60853.644531
1547.223633	60206.027344
1546.173828	60486.960938
1545.124023	60557.164063
1544.074219	60326.496094
1543.024414	60577.171875
1541.973633	59971.808594
1540.922852	60259.460938
1539.872070	60251.003906
1538.821289	60309.597656
1537.770508	60007.542969
1536.718750	60364.312500
1535.666992	60025.375000
1534.615234	60201.789063
1533.563477	60313.460938
1532.511719	60187.195313
1531.458984	60169.503906
1530.407227	60366.539063
1529.354492	60362.667969
1528.300781	59989.515625
1527.248047	59697.261719
1526.195313	59658.898438
1525.141602	60139.566406
1524.087891	60216.449219
1523.034180	59382.457031
1521.980469	59489.417969
1520.925781	59492.605469
1519.871094	59447.390625
1518.817383	59040.414063
1517.762695	59520.574219
1516.707031	59406.269531
1515.652344	59029.453125
1514.596680	59251.453125
1513.541016	59466.464844
1512.485352	59308.507813
1511.429688	59201.230469
1510.374023	59031.867188
1509.317383	59543.527344
1508.260742	58932.523438
1507.204102	59388.824219
1506.147461	58927.519531
1505.090820	59312.382813
1504.033203	59168.449219
1502.975586	59231.390625
1501.917969	58731.375000
1500.860352	58704.777344
1499.802734	58813.699219
1498.744141	58757.234375
1497.686523	59171.476563
1496.627930	58722.410156
1495.569336	59363.734375
1494.509766	58680.718750
1493.451172	58899.644531
1492.391602	58611.519531
1491.332031	58550.558594
1490.272461	58994.113281
1489.212891	58655.675781
1488.152344	58601.609375
1487.092773	58856.972656
1486.032227	58649.351563
1484.971680	59090.187500
1483.910156	58603.128906
1482.849609	59181.230469
1481.788086	58911.863281
1480.726563	58931.062500
1479.665039	58806.042969
1478.603516	59127.355469
1477.541992	58915.386719
1476.479492	58946.003906
1475.416992	59120.710938
1474.354492	59062.082031
1473.291992	59133.804688
1472.229492	59681.031250
1471.166016	59924.046875
1470.102539	60107.554688
1469.039063	59710.613281
1467.975586	59642.785156
1466.912109	60054.652344
1465.847656	59842.906250
1464.783203	60035.386719
1463.718750	60298.562500
1462.654297	60290.023438
1461.589844	60660.312500
1460.524414	60834.242188
1459.458984	60795.949219
1458.393555	61537.718750
1457.328125	61036.375000
1456.262695	61143.980469
1455.196289	61351.847656
1454.130859	61420.605469
1453.064453	61491.617188
1451.998047	61961.320313
1450.930664	61449.035156
1449.864258	61927.679688
1448.796875	61609.140625
1447.729492	62126.285156
1446.662109	62005.863281
1445.594727	62561.437500
1444.526367	62800.511719
1443.458008	62457.058594
1442.390625	63580.929688
1441.321289	63069.156250
1440.252930	63537.617188
1439.184570	63824.031250
1438.115234	64337.648438
1437.045898	64903.347656
1435.976563	64773.527344
1434.907227	65182.179688
1433.836914	65086.421875
1432.767578	65578.898438
1431.697266	65558.023438
1430.626953	66390.773438
1429.555664	66099.648438
1428.485352	65783.664063
1427.414063	66404.890625
1426.342773	66712.820313
1425.271484	66938.984375
1424.200195	66799.953125
1423.128906	67645.007813
1422.056641	67172.648438
1420.984375	67323.765625
1419.912109	67594.921875
1418.839844	68110.687500
1417.767578	67296.500000
1416.694336	67440.679688
1415.621094	67698.023438
1414.547852	67106.226563
1413.474609	66956.070313
1412.400391	66652.054688
1411.327148	66194.273438
1410.252930	66340.734375
1409.178711	66435.117188
1408.104492	66631.234375
1407.029297	66282.312500
1405.955078	66170.906250
1404.879883	66649.507813
1403.804688	67234.164063
1402.729492	67915.773438
1401.653320	68228.875000
1400.578125	68478.617188
1399.501953	68260.765625
1398.425781	68341.054688
1397.349609	68084.929688
1396.272461	68754.343750
1395.196289	68446.320313
1394.119141	68713.789063
1393.041992	69166.140625
1391.964844	69525.851563
1390.886719	69657.664063
1389.809570	70395.945313
1388.731445	70633.500000
1387.653320	70537.375000
1386.575195	70493.117188
1385.497070	70777.835938
1384.417969	70821.398438
1383.338867	70770.343750
1382.259766	70795.875000
1381.180664	71136.601563
1380.101563	71371.406250
1379.021484	70789.109375
1377.941406	70587.328125
1376.861328	70435.109375
1375.781250	70366.171875
1374.701172	69912.671875
1373.620117	69724.664063
1372.539063	69473.781250
1371.458008	68598.070313
1370.376953	69161.054688
1369.295898	68517.156250
1368.213867	68518.281250
1367.132813	68375.640625
1366.050781	68372.289063
1364.967773	67834.531250
1363.885742	68004.140625
1362.802734	67751.695313
1361.720703	68291.554688
1360.637695	68088.507813
1359.554688	67923.671875
1358.470703	68256.835938
1357.387695	67941.765625
1356.303711	67640.265625
1355.219727	67222.296875
1354.135742	66903.093750
1353.050781	67204.757813
1351.966797	66285.187500
1350.881836	66792.945313
1349.796875	66005.929688
1348.711914	65534.945313
1347.626953	65399.968750
1346.541016	65374.730469
1345.455078	65409.925781
1344.369141	65084.832031
1343.283203	65182.707031
1342.197266	65510.953125
1341.110352	65879.328125
1340.023438	65073.605469
1338.936523	65142.339844
1337.849609	65743.046875
1336.762695	65795.984375
1335.674805	65875.718750
1334.586914	65323.160156
1333.499023	65525.792969
1332.411133	65940.515625
1331.323242	65707.539063
1330.234375	65615.296875
1329.145508	66257.445313
1328.056641	65870.546875
1326.967773	66206.718750
1325.878906	66063.132813
1324.789063	66550.820313
1323.699219	66855.460938
1322.609375	67612.609375
1321.519531	67163.453125
1320.429688	67561.421875
1319.338867	68240.031250
1318.248047	68570.812500
1317.157227	68651.976563
1316.066406	69383.460938
1314.975586	69749.476563
1313.883789	70273.437500
1312.791992	70607.992188
1311.700195	70973.578125
1310.608398	70513.468750
1309.516602	69982.320313
1308.423828	70301.101563
1307.331055	70019.273438
1306.238281	69310.609375
1305.145508	68906.781250
1304.051758	69338.875000
1302.958984	69006.304688
1301.865234	68789.390625
1300.771484	68434.804688
1299.677734	69062.132813
1298.583008	69940.179688
1297.489258	70411.570313
1296.394531	70700.742188
1295.299805	71378.242188
1294.204102	71209.976563
1293.109375	71760.664063
1292.013672	71836.406250
1290.917969	71612.687500
1289.822266	70945.523438
1288.726563	70819.601563
1287.630859	70279.179688
1286.534180	69672.453125
1285.437500	69885.867188
1284.340820	69921.945313
1283.244141	69149.468750
1282.146484	68791.437500
1281.048828	68544.250000
1279.951172	68208.585938
1278.853516	68481.781250
1277.755859	67657.132813
1276.658203	67439.085938
1275.559570	66900.312500
1274.460938	66669.203125
1273.362305	66769.906250
1272.262695	66446.031250
1271.164063	66487.046875
1270.064453	66108.070313
1268.964844	65983.375000
1267.865234	65818.953125
1266.765625	65784.929688
1265.665039	65629.429688
1264.564453	64842.386719
1263.463867	64583.335938
1262.363281	65028.593750
1261.262695	65098.464844
1260.161133	64784.328125
1259.059570	64549.734375
1257.958008	64851.273438
1256.856445	64497.648438
1255.754883	64311.738281
1254.652344	64282.429688
1253.549805	64045.921875
1252.447266	64067.359375
1251.344727	63881.652344
1250.242188	64275.445313
1249.138672	64217.523438
1248.035156	64289.558594
1246.931641	63762.628906
1245.828125	63887.550781
1244.724609	63633.828125
1243.620117	63633.277344
1242.515625	63894.574219
1241.411133	64120.570313
1240.306641	63864.777344
1239.201172	64328.203125
1238.096680	64318.722656
1236.991211	64166.347656
1235.885742	64407.460938
1234.779297	64277.093750
1233.673828	64199.503906
1232.567383	64288.894531
1231.460938	63646.855469
1230.354492	64401.695313
1229.248047	64152.871094
1228.140625	63757.058594
1227.033203	64408.300781
1225.926758	64071.828125
1224.818359	64830.277344
1223.710938	64408.292969
1222.602539	64519.410156
1221.495117	64073.507813
1220.386719	63719.851563
1219.278320	64144.476563
1218.168945	63902.699219
1217.060547	63619.375000
1215.951172	63252.898438
1214.841797	63280.824219
1213.731445	63479.562500
1212.622070	63432.984375
1211.511719	63279.152344
1210.402344	63666.007813
1209.291992	63501.242188
1208.180664	63424.054688
1207.070313	63646.593750
1205.958984	64059.335938
1204.847656	63949.277344
1203.736328	63922.339844
1202.625000	64326.058594
1201.512695	64259.714844
1200.401367	64320.136719
1199.289063	64590.277344
1198.176758	64491.144531
1197.063477	64451.015625
1195.951172	65777.859375
1194.837891	65449.320313
1193.724609	65505.074219
1192.611328	65772.507813
1191.498047	66146.757813
1190.383789	65973.273438
1189.269531	65566.453125
1188.155273	65183.773438
1187.041016	65341.980469
1185.926758	65066.296875
1184.811523	65082.785156
1183.696289	64360.488281
1182.581055	64523.078125
1181.465820	64720.460938
1180.350586	64510.468750
1179.234375	64119.800781
1178.118164	64317.140625
1177.001953	64240.117188
1175.885742	64171.828125
1174.768555	64229.769531
1173.652344	63902.589844
1172.535156	63162.218750
1171.417969	63126.785156
1170.299805	63602.375000
1169.182617	63192.921875
1168.064453	63053.152344
1166.946289	62848.234375
1165.828125	63286.578125
1164.709961	63064.304688
1163.590820	62859.488281
1162.471680	63351.875000
1161.352539	62986.394531
1160.233398	63124.707031
1159.114258	63184.824219
1157.994141	62899.863281
1156.874023	62814.621094
1155.753906	63404.082031
1154.633789	63203.816406
1153.513672	63268.187500
1152.392578	63000.804688
1151.271484	63325.316406
1150.150391	63914.132813
1149.029297	62935.992188
1147.907227	63862.648438
1146.786133	64139.101563
1145.664063	64530.238281
1144.541992	64533.621094
1143.418945	64450.398438
1142.296875	64187.542969
1141.173828	64755.839844
1140.050781	64049.429688
1138.927734	64225.957031
1137.803711	64573.300781
1136.680664	64909.699219
1135.556641	64467.558594
1134.432617	64656.843750
1133.308594	64528.320313
1132.183594	64490.605469
1131.059570	64342.703125
1129.934570	64283.492188
1128.809570	64224.281250
1127.684570	64165.070313
1126.558594	64105.804688
1125.432617	64046.542969
1124.307617	63987.332031
1123.180664	63658.429688
1122.054688	63903.542969
1120.928711	63542.414063
1119.801758	63599.820313
1118.674805	63212.996094
1117.547852	63624.007813
1116.419922	63687.828125
1115.292969	62889.554688
1114.165039	63597.750000
1113.037109	63247.890625
1111.909180	63083.398438
1110.780273	63209.695313
1109.652344	62987.128906
1108.523438	62762.488281
1107.394531	62686.441406
1106.264648	63008.539063
1105.135742	63154.085938
1104.005859	63030.671875
1102.875977	63331.015625
1101.746094	63521.574219
1100.616211	63445.457031
1099.485352	63083.457031
1098.355469	62697.949219
1097.224609	63187.164063
1096.092773	63023.062500
1094.961914	63466.925781
1093.830078	62997.859375
1092.699219	62784.484375
1091.567383	62661.359375
1090.434570	62840.929688
1089.302734	62584.773438
1088.169922	62633.398438
1087.037109	62538.269531
1085.904297	61909.082031
1084.771484	61962.085938
1083.637695	61871.410156
1082.504883	62025.152344
1081.371094	62088.812500
1080.236328	62045.300781
1079.102539	61796.113281
1077.968750	62585.976563
1076.833984	62259.671875
1075.699219	62325.359375
1074.564453	62500.210938
1073.428711	62137.703125
1072.292969	62261.156250
1071.158203	62102.101563
1070.022461	62931.523438
1068.885742	62885.769531
1067.750000	62581.253906
1066.613281	62631.796875
1065.476563	62269.710938
1064.339844	62437.847656
1063.203125	62898.703125
1062.065430	62697.007813
1060.927734	62574.429688
1059.790039	62678.300781
1058.652344	62568.578125
1057.514648	62924.347656
1056.375977	62428.226563
1055.237305	62169.199219
1054.098633	62652.878906
1052.959961	62758.734375
1051.820313	62273.664063
1050.681641	62560.832031
1049.541992	62346.785156
1048.402344	62740.429688
1047.261719	62754.500000
1046.122070	63101.035156
1044.981445	62874.246094
1043.840820	62979.886719
1042.700195	63057.792969
1041.558594	63308.171875
1040.417969	63164.542969
1039.276367	63414.804688
1038.134766	62945.542969
1036.992188	63308.535156
1035.850586	63128.828125
1034.708008	63002.367188
1033.565430	62846.175781
1032.422852	62858.031250
1031.280273	62735.933594
1030.136719	62958.250000
1028.994141	63012.578125
1027.850586	63071.132813
1026.706055	62827.972656
1025.562500	63279.507813
1024.417969	62987.546875
1023.273438	63073.656250
1022.128906	62635.347656
1020.984375	63241.527344
1019.839844	62941.285156
1018.694336	62910.628906
1017.548828	62856.640625
1016.403320	62900.242188
1015.256836	63753.921875
1014.111328	63443.250000
1012.964844	63645.703125
1011.818359	63557.703125
1010.671875	63175.179688
1009.524414	62799.148438
1008.377930	62639.320313
1007.230469	62748.531250
1006.083008	63336.265625
1004.934570	63233.585938
1003.787109	63780.792969
1002.638672	63675.945313
1001.490234	64578.351563
1000.341797	64460.699219
999.193359	64560.953125
998.043945	64390.468750
996.894531	64615.445313
995.745117	64417.523438
994.595703	64617.042969
993.446289	64565.007813
992.295898	64565.808594
991.145508	64338.453125
989.995117	64573.734375
988.844727	64542.851563
987.693359	65020.804688
986.541992	64592.984375
985.390625	64503.007813
984.239258	64788.671875
983.087891	64639.613281
981.935547	65096.003906
980.783203	64911.082031
979.630859	64806.355469
978.478516	64986.277344
977.325195	64637.058594
976.172852	64738.960938
975.019531	65346.519531
973.865234	64510.777344
972.711914	64983.343750
971.557617	64901.882813
970.404297	64694.117188
969.250000	64610.628906
968.094727	64472.445313
966.940430	64349.039063
965.785156	64486.566406
964.629883	64487.308594
963.474609	64803.527344
962.319336	64823.128906
961.163086	64840.621094
960.007813	64502.859375
958.851563	65289.597656
957.694336	64516.910156
956.538086	64448.296875
955.380859	64665.371094
954.223633	64668.156250
953.066406	64521.855469
951.909180	64667.410156
950.751953	64877.972656
949.593750	65124.132813
948.435547	64730.261719
947.277344	64338.632813
946.118164	64716.882813
944.959961	64512.023438
943.800781	64202.410156
942.641602	64406.480469
941.482422	64180.824219
940.322266	64552.453125
939.162109	64601.304688
938.001953	64654.320313
936.841797	64868.578125
935.681641	64408.515625
934.520508	64647.851563
933.360352	64755.234375
932.198242	65297.859375
931.037109	64559.761719
929.875977	64746.585938
928.713867	64646.789063
927.551758	65575.898438
926.389648	65549.156250
925.227539	65133.605469
924.064453	64931.386719
922.901367	65531.667969
921.738281	65816.250000
920.575195	65526.273438
919.412109	65073.500000
918.248047	66038.718750
917.083984	66216.507813
915.919922	66039.375000
914.755859	66141.960938
913.590820	66334.234375
912.426758	67004.164063
911.261719	66820.750000
910.095703	67336.015625
908.930664	67444.507813
907.764648	68461.859375
906.598633	67826.015625
905.432617	68242.757813
904.266602	68253.070313
903.099609	67623.851563
901.933594	67036.523438
900.766602	67730.046875
899.599609	66659.898438
898.431641	67188.781250
897.264648	66953.671875
896.096680	66391.960938
894.928711	66508.671875
893.759766	66057.492188
892.591797	65901.781250
891.422852	66532.085938
890.253906	66264.078125
889.084961	66251.820313
887.916016	66636.484375
886.746094	66414.312500
885.576172	66339.703125
884.406250	65822.734375
883.236328	66836.382813
882.065430	66803.257813
880.895508	66552.179688
879.724609	67033.812500
878.552734	67052.531250
877.381836	67185.351563
876.209961	67177.062500
875.039063	67430.085938
873.866211	67577.265625
872.694336	67564.757813
871.522461	67266.210938
870.349609	68028.812500
869.176758	67506.515625
868.003906	67361.437500
866.830078	68276.859375
865.657227	68421.593750
864.483398	68661.515625
863.309570	69166.312500
862.135742	68961.023438
860.960938	69268.984375
859.786133	69403.046875
858.611328	69290.906250
857.436523	70080.500000
856.261719	69875.218750
855.085938	69051.867188
853.910156	69039.070313
852.734375	68629.492188
851.558594	68637.437500
850.382813	68707.351563
849.206055	68374.468750
848.029297	69072.179688
846.852539	68888.007813
845.674805	69054.828125
844.498047	69770.593750
843.320313	70091.945313
842.142578	70567.914063
840.963867	70983.890625
839.786133	71707.000000
838.607422	72421.585938
837.428711	73391.546875
836.250000	74126.164063
835.070313	74114.476563
833.891602	74152.242188
832.711914	73928.359375
831.532227	73344.101563
830.352539	72447.046875
829.171875	71601.789063
827.991211	70760.968750
826.810547	70130.382813
825.629883	69438.296875
824.449219	69145.601563
823.267578	68312.007813
822.085938	68128.632813
820.904297	67295.531250
819.722656	67852.523438
818.540039	66732.007813
817.357422	66906.632813
816.174805	66684.632813
814.992188	66553.093750
813.809570	67163.093750
812.625977	66616.687500
811.442383	66425.687500
810.258789	66154.695313
809.074219	66396.906250
807.890625	66700.593750
806.706055	66206.062500
805.521484	66400.945313
804.336914	66337.335938
803.151367	66495.203125
801.966797	66175.328125
800.781250	65675.179688
799.594727	65646.578125
798.409180	65679.460938
797.222656	65523.847656
796.037109	64962.734375
794.849609	64674.195313
793.663086	64737.933594
792.476563	65170.121094
791.289063	64353.636719
790.101563	64466.500000
788.914063	64084.195313
787.725586	63849.308594
786.538086	63951.964844
785.349609	63561.777344
784.161133	64005.871094
782.971680	63229.484375
781.783203	64125.125000
780.593750	63504.289063
779.404297	63896.976563
778.214844	63196.746094
777.024414	62805.144531
775.834961	63289.617188
774.644531	63130.859375
773.454102	62980.320313
772.262695	63348.164063
771.072266	63532.238281
769.880859	62798.292969
768.689453	63561.621094
767.497070	62999.222656
766.305664	63256.609375
765.113281	63603.589844
763.920898	63663.078125
762.728516	64203.421875
761.536133	64372.781250
760.342773	64772.242188
759.149414	64857.929688
757.956055	65255.109375
756.762695	65214.453125
755.568359	65192.132813
754.374023	65745.710938
753.179688	66122.070313
751.985352	65214.699219
750.791016	65879.812500
749.595703	65288.007813
748.400391	65115.230469
747.205078	64619.316406
746.009766	64314.621094
744.813477	64312.792969
743.617188	63868.085938
742.420898	64154.765625
741.224609	63775.234375
740.027344	63211.070313
738.830078	62963.800781
737.632813	62994.687500
736.435547	62477.648438
735.238281	62575.558594
734.040039	62799.203125
732.841797	62807.773438
731.643555	62621.671875
730.445313	62837.058594
729.246094	62831.421875
728.046875	62777.140625
726.847656	62224.421875
725.648438	61801.558594
724.449219	62369.324219
723.249023	61652.941406
722.048828	62315.679688
720.848633	62395.148438
719.647461	62140.625000
718.447266	61851.792969
717.246094	62133.621094
716.044922	61964.238281
714.842773	62120.539063
713.641602	62483.035156
712.439453	62283.347656
711.237305	62184.804688
710.035156	62294.449219
708.832031	62876.875000
707.629883	62479.273438
706.426758	62443.367188
705.223633	62399.394531
704.019531	62797.613281
702.815430	62466.929688
701.612305	62703.515625
700.408203	63145.843750
699.203125	62484.386719
697.999023	62926.585938
696.793945	62783.734375
695.588867	63209.570313
694.383789	62715.917969
693.177734	63429.851563
691.971680	63393.812500
690.766602	63716.445313
689.559570	63851.597656
688.353516	63354.246094
687.146484	63016.164063
685.939453	63316.464844
684.732422	63604.574219
683.525391	63347.136719
682.318359	62524.332031
681.110352	63311.378906
679.902344	62840.902344
678.693359	62855.296875
677.485352	63026.523438
676.276367	62747.351563
675.067383	63360.738281
673.858398	62971.066406
672.649414	63222.503906
671.439453	62903.312500
670.229492	63184.789063
669.019531	63074.570313
667.809570	62769.628906
666.598633	63197.507813
665.387695	62533.390625
664.176758	62074.199219
662.965820	62245.156250
661.754883	62373.917969
660.542969	62745.300781
659.331055	62236.273438
658.119141	61919.894531
656.906250	62174.886719
655.694336	62057.031250
654.481445	62037.398438
653.268555	62436.453125
652.054688	62306.589844
650.841797	62226.832031
649.627930	62361.335938
648.414063	62113.445313
647.200195	62716.242188
645.985352	62688.484375
644.770508	62994.847656
643.555664	63643.136719
642.340820	63377.222656
641.125977	63487.320313
639.910156	63531.398438
638.694336	63843.296875
637.478516	63553.550781
636.262695	62868.300781
635.045898	63166.156250
633.829102	62814.773438
632.612305	62651.234375
631.395508	62431.847656
630.177734	62537.914063
628.959961	62131.023438
627.742188	62053.523438
626.524414	61501.230469
625.306641	61794.878906
624.087891	61310.640625
622.869141	61807.593750
621.650391	61630.535156
620.430664	61640.898438
619.211914	61569.550781
617.992188	61952.500000
616.772461	62008.605469
615.551758	61202.289063
614.332031	61533.312500
613.111328	61503.843750
611.890625	61850.601563
610.669922	61570.320313
609.448242	61329.933594
608.226563	61392.031250
607.004883	61603.281250
605.783203	61812.460938
604.561523	61687.523438
603.338867	61256.484375
602.116211	61517.277344
600.893555	61177.839844
599.669922	61587.558594
598.447266	61597.843750
597.223633	61572.371094
596.000000	61632.289063
594.775391	62005.867188
593.551758	61956.503906
592.327148	61897.234375
591.102539	61528.449219
589.877930	62187.425781
588.652344	61818.714844
587.426758	62062.917969
586.201172	62382.371094
584.975586	62099.062500
583.750000	62612.617188
582.523438	62787.117188
581.296875	62644.554688
580.070313	62939.812500
578.842773	63155.734375
577.616211	63549.785156
576.388672	63094.371094
575.161133	63254.714844
573.932617	63515.921875
572.705078	63387.238281
571.476563	63052.859375
570.248047	63871.710938
569.018555	63466.171875
567.790039	62944.132813
566.560547	63155.664063
565.331055	62459.953125
564.101563	61713.121094
562.871094	62063.050781
561.641602	62314.085938
560.411133	61686.187500
559.179688	62199.804688
557.949219	61702.453125
556.717773	61929.667969
555.486328	61241.128906
554.254883	61288.792969
553.023438	61241.746094
551.791016	61372.222656
550.558594	61333.058594
549.326172	61000.148438
548.093750	61199.578125
546.860352	60632.281250
545.627930	60786.378906
544.393555	60723.710938
543.160156	60590.148438
541.926758	60750.070313
540.692383	60972.933594
539.458008	60652.375000
538.223633	60666.535156
536.988281	60513.417969
535.752930	60899.449219
534.517578	61124.027344
533.282227	61083.007813
532.046875	61006.605469
530.810547	60963.648438
529.574219	61429.804688
528.337891	61341.582031
527.101563	61695.488281
525.864258	61699.570313
524.626953	61805.789063
523.389648	61422.980469
522.152344	61183.644531
520.914063	61831.683594
519.675781	61986.851563
518.437500	61341.339844
517.199219	61669.183594
515.959961	61390.777344
514.721680	61310.054688
513.482422	61229.269531
512.242188	61148.421875
511.002930	61067.636719
509.762695	60986.785156
508.522461	60905.937500
507.282227	61760.304688
506.041016	61094.480469
504.800781	61590.128906
503.559570	61758.625000
502.318359	61153.851563
501.076172	61028.792969
499.833984	61144.460938
498.592773	61281.601563
497.349609	61506.707031
496.107422	61583.097656
494.864258	61198.011719
493.622070	61606.757813
492.377930	61733.894531
491.134766	61317.722656
489.891602	61769.191406
488.647461	61437.160156
487.403320	61831.792969
486.158203	61683.421875
484.914063	61826.000000
483.668945	61925.578125
482.423828	61816.300781
481.178711	61759.738281
479.932617	61999.726563
478.686523	62144.046875
477.440430	62534.023438
476.194336	62368.171875
474.948242	62336.890625
473.701172	62900.062500
472.454102	62829.710938
471.207031	62492.472656
469.958984	62786.472656
468.711914	63298.484375
467.463867	62677.054688
466.215820	62935.804688
464.966797	62929.742188
463.718750	63392.675781
462.469727	63690.046875
461.220703	63948.398438
459.970703	63708.742188
458.721680	64283.953125
457.471680	64538.144531
456.221680	64625.070313
454.970703	65036.519531
453.720703	65465.296875
452.469727	65132.355469
451.218750	65737.703125
449.966797	66540.898438
448.715820	66611.796875
447.463867	67311.632813
446.211914	67520.148438
444.959961	68615.414063
443.707031	68862.406250
442.454102	69508.898438
441.201172	69422.039063
439.948242	68873.703125
438.695313	67639.281250
437.441406	66552.632813
436.187500	65978.015625
434.933594	64760.332031
433.678711	64246.320313
432.424805	63533.003906
431.169922	63774.648438
429.914063	63183.660156
428.659180	62892.937500
427.403320	62803.605469
426.147461	62518.863281
424.891602	62158.773438
423.635742	62328.816406
422.378906	61992.101563
421.122070	62235.578125
419.865234	62194.781250
418.608398	61896.929688
417.350586	61863.937500
416.092773	62371.941406
414.834961	61627.988281
413.577148	62029.613281
412.318359	61745.578125
411.059570	61863.218750
409.800781	61795.503906
408.541992	61108.320313
407.282227	61781.710938
406.022461	61681.246094
404.762695	61582.746094
403.502930	62018.460938
402.242188	61702.054688
400.981445	61775.164063
