#Wave		#Intensity
2001.242188	37833.468750
2000.272461	37866.054688
1999.302734	37568.738281
1998.333008	37807.734375
1997.363281	38006.558594
1996.392578	37872.179688
1995.422852	37898.125000
1994.452148	37896.515625
1993.481445	37982.527344
1992.510742	38000.925781
1991.540039	37701.484375
1990.568359	38140.285156
1989.596680	37918.476563
1988.625977	37891.843750
1987.654297	38187.824219
1986.681641	37918.613281
1985.709961	38371.984375
1984.738281	38290.292969
1983.765625	37751.296875
1982.792969	38236.937500
1981.820313	38402.636719
1980.847656	38118.671875
1979.874023	38314.296875
1978.901367	38330.074219
1977.927734	38258.464844
1976.954102	38281.734375
1975.980469	38309.980469
1975.006836	38083.710938
1974.032227	38423.820313
1973.058594	37823.464844
1972.083984	38510.144531
1971.109375	38074.542969
1970.134766	38239.902344
1969.160156	38589.652344
1968.184570	38540.539063
1967.209961	38429.152344
1966.234375	38459.800781
1965.258789	38435.640625
1964.283203	38152.488281
1963.306641	38494.406250
1962.331055	38557.378906
1961.354492	38259.414063
1960.377930	38215.394531
1959.401367	38390.347656
1958.424805	38809.039063
1957.447266	38461.488281
1956.470703	38760.644531
1955.493164	38753.863281
1954.515625	38640.187500
1953.538086	38921.753906
1952.560547	38388.089844
1951.582031	38557.789063
1950.604492	38633.023438
1949.625977	38820.000000
1948.647461	38887.710938
1947.668945	38761.722656
1946.689453	38960.988281
1945.710938	38976.507813
1944.731445	38639.621094
1943.751953	38831.355469
1942.772461	38474.765625
1941.792969	38753.273438
1940.813477	38954.800781
1939.833008	38895.910156
1938.852539	38879.183594
1937.873047	39236.734375
1936.891602	39410.773438
1935.911133	39032.207031
1934.930664	39193.828125
1933.949219	39011.105469
1932.967773	39440.128906
1931.986328	39150.953125
1931.004883	39520.386719
1930.023438	39493.664063
1929.041016	38937.355469
1928.059570	39697.562500
1927.077148	39396.218750
1926.094727	39282.960938
1925.112305	39075.765625
1924.128906	39499.140625
1923.146484	39136.234375
1922.163086	39235.660156
1921.179688	39199.128906
1920.196289	39229.320313
1919.212891	39195.269531
1918.228516	39472.445313
1917.245117	39675.433594
1916.260742	39167.253906
1915.276367	39473.906250
1914.291992	39913.738281
1913.307617	39472.406250
1912.322266	39384.062500
1911.336914	39384.558594
1910.352539	39491.109375
1909.367188	39328.824219
1908.380859	39408.222656
1907.395508	39384.054688
1906.409180	39372.218750
1905.423828	39407.207031
1904.437500	39723.066406
1903.451172	39321.941406
1902.463867	39292.878906
1901.477539	39529.781250
1900.490234	39446.519531
1899.503906	39666.078125
1898.516602	39981.550781
1897.528320	39676.769531
1896.541016	39829.734375
1895.553711	39510.324219
1894.565430	40012.523438
1893.577148	39816.148438
1892.588867	39858.332031
1891.600586	39595.675781
1890.611328	39443.710938
1889.623047	39908.613281
1888.633789	40078.511719
1887.644531	39931.453125
1886.655273	39978.476563
1885.666016	39865.863281
1884.675781	40106.843750
1883.686523	40023.703125
1882.696289	40355.382813
1881.706055	40112.714844
1880.715820	40032.062500
1879.724609	40366.015625
1878.734375	40457.031250
1877.743164	40285.625000
1876.751953	40366.816406
1875.760742	40435.718750
1874.769531	40359.988281
1873.778320	40524.433594
1872.786133	40064.046875
1871.793945	40471.000000
1870.801758	40407.558594
1869.809570	40187.410156
1868.817383	40427.632813
1867.824219	40376.468750
1866.832031	40946.984375
1865.838867	40217.898438
1864.845703	40922.808594
1863.851563	40854.457031
1862.858398	40896.191406
1861.865234	40859.660156
1860.871094	40754.679688
1859.876953	41072.632813
1858.882813	40955.429688
1857.887695	40992.214844
1856.893555	41190.238281
1855.898438	40855.660156
1854.904297	40897.324219
1853.909180	40692.332031
1852.913086	41300.437500
1851.917969	40956.304688
1850.922852	41471.398438
1849.926758	41107.832031
1848.930664	41342.140625
1847.934570	41410.488281
1846.938477	41139.796875
1845.941406	41756.816406
1844.945313	41086.312500
1843.948242	41583.675781
1842.951172	41339.949219
1841.954102	41729.871094
1840.956055	42085.542969
1839.958984	41586.082031
1838.960938	41880.761719
1837.962891	41520.308594
1836.964844	42209.304688
1835.966797	41668.785156
1834.968750	42391.582031
1833.969727	41688.183594
1832.970703	42067.679688
1831.971680	42232.980469
1830.972656	41953.152344
1829.973633	42130.570313
1828.973633	42081.820313
1827.974609	42565.429688
1826.974609	42200.671875
1825.974609	42292.863281
1824.974609	42341.296875
1823.973633	42280.398438
1822.973633	42620.246094
1821.972656	41923.125000
1820.971680	42165.804688
1819.970703	42427.812500
1818.968750	42255.304688
1817.967773	42281.832031
1816.965820	42419.945313
1815.964844	42332.425781
1814.961914	42734.828125
1813.959961	42247.187500
1812.958008	42814.320313
1811.955078	42472.269531
1810.953125	42685.324219
1809.950195	42263.453125
1808.947266	42696.925781
1807.943359	42379.355469
1806.940430	42478.445313
1805.936523	42773.628906
1804.932617	43056.601563
1803.928711	42811.796875
1802.924805	43118.863281
1801.920898	42690.234375
1800.916016	42968.179688
1799.911133	43168.621094
1798.907227	43011.066406
1797.901367	43051.839844
1796.896484	42812.164063
1795.891602	42985.894531
1794.885742	43386.734375
1793.879883	43072.214844
1792.874023	43335.187500
1791.868164	43537.683594
1790.862305	43614.527344
1789.855469	43474.031250
1788.848633	43521.886719
1787.842773	43690.406250
1786.834961	43431.714844
1785.828125	43522.976563
1784.821289	43558.718750
1783.813477	43765.699219
1782.805664	43656.687500
1781.797852	43938.320313
1780.790039	43718.421875
1779.782227	43852.910156
1778.773438	43681.296875
1777.764648	43408.546875
1776.755859	43954.957031
1775.747070	44137.476563
1774.738281	44536.664063
1773.729492	44047.250000
1772.719727	43914.289063
1771.709961	44197.769531
1770.700195	44606.281250
1769.690430	44571.937500
1768.680664	44453.406250
1767.669922	44779.875000
1766.659180	45079.777344
1765.648438	45124.707031
1764.637695	44900.382813
1763.626953	44916.484375
1762.615234	44807.621094
1761.604492	45441.207031
1760.592773	45233.792969
1759.581055	45778.214844
1758.569336	45585.218750
1757.556641	45327.464844
1756.544922	45197.027344
1755.532227	45671.457031
1754.519531	45696.980469
1753.506836	46046.390625
1752.494141	45726.402344
1751.480469	45708.726563
1750.466797	46350.496094
1749.454102	46289.554688
1748.440430	46317.328125
1747.425781	46491.285156
1746.412109	46415.968750
1745.397461	46422.136719
1744.383789	46811.570313
1743.369141	46685.933594
1742.353516	46823.746094
1741.338867	47011.785156
1740.324219	46800.000000
1739.308594	46822.835938
1738.292969	46484.332031
1737.277344	47485.730469
1736.261719	47089.820313
1735.245117	47586.121094
1734.229492	47479.660156
1733.212891	47461.695313
1732.196289	48098.691406
1731.179688	48654.203125
1730.162109	48483.105469
1729.145508	48918.894531
1728.127930	48551.937500
1727.110352	48801.273438
1726.092773	49377.648438
1725.075195	49607.648438
1724.056641	49942.589844
1723.039063	50110.351563
1722.020508	50285.210938
1721.001953	50352.648438
1719.983398	50715.835938
1718.963867	50764.089844
1717.945313	50666.878906
1716.925781	51041.730469
1715.906250	51418.832031
1714.886719	50894.960938
1713.867188	51381.554688
1712.846680	51722.656250
1711.826172	50789.316406
1710.806641	51513.812500
1709.786133	51190.386719
1708.764648	51319.394531
1707.744141	51391.230469
1706.722656	51189.359375
1705.701172	51151.734375
1704.679688	51045.132813
1703.658203	51147.878906
1702.636719	51519.312500
1701.614258	51488.781250
1700.592773	50928.128906
1699.570313	51339.800781
1698.547852	50948.097656
1697.524414	50734.730469
1696.501953	50440.664063
1695.478516	50548.105469
1694.456055	51170.820313
1693.432617	50613.281250
1692.408203	50205.492188
1691.384766	50592.957031
1690.360352	50365.664063
1689.336914	50726.863281
1688.312500	50048.902344
1687.288086	50554.703125
1686.262695	50562.335938
1685.238281	50565.222656
1684.212891	50011.027344
1683.187500	50232.058594
1682.162109	50708.929688
1681.136719	50903.691406
1680.110352	50629.347656
1679.084961	50966.152344
1678.058594	51148.917969
1677.032227	51206.132813
1676.005859	51497.675781
1674.978516	51171.390625
1673.952148	51178.871094
1672.924805	51101.175781
1671.897461	51728.421875
1670.870117	51416.507813
1669.842773	51397.921875
1668.814453	51783.621094
1667.787109	51689.332031
1666.758789	52410.437500
1665.730469	51912.000000
1664.701172	52131.945313
1663.672852	51820.335938
1662.643555	52762.902344
1661.615234	52526.847656
1660.585938	52973.164063
1659.555664	52772.558594
1658.526367	52862.304688
1657.497070	52947.296875
1656.466797	53218.636719
1655.436523	53393.164063
1654.406250	53560.554688
1653.375977	53819.843750
1652.344727	53845.640625
1651.313477	53157.230469
1650.282227	53694.531250
1649.250977	53600.164063
1648.219727	53658.957031
1647.188477	53906.160156
1646.156250	53597.492188
1645.124023	53705.695313
1644.091797	53940.980469
1643.059570	53936.097656
1642.027344	53841.789063
1640.994141	53996.917969
1639.961914	53803.824219
1638.928711	54076.503906
1637.895508	54356.140625
1636.861328	54400.554688
1635.828125	54480.210938
1634.793945	54541.031250
1633.759766	54571.281250
1632.725586	55212.402344
1631.691406	54970.015625
1630.656250	54701.878906
1629.622070	55077.269531
1628.586914	55311.652344
1627.551758	55764.261719
1626.516602	55416.363281
1625.480469	55514.449219
1624.445313	55757.960938
1623.409180	55698.777344
1622.373047	56303.355469
1621.336914	56926.476563
1620.300781	57753.347656
1619.263672	58251.746094
1618.227539	59448.390625
1617.190430	60248.589844
1616.153320	61990.339844
1615.115234	63647.140625
1614.078125	64680.359375
1613.040039	65591.445313
1612.001953	67061.757813
1610.963867	67424.343750
1609.925781	68002.109375
1608.887695	67470.523438
1607.848633	66316.812500
1606.809570	65593.906250
1605.770508	63760.359375
1604.731445	62271.199219
1603.692383	61350.671875
1602.652344	60502.929688
1601.613281	59484.882813
1600.573242	59450.917969
1599.533203	58524.527344
1598.492188	58310.882813
1597.452148	57268.253906
1596.411133	57612.960938
1595.370117	56841.632813
1594.329102	57195.625000
1593.288086	56251.941406
1592.247070	56489.246094
1591.205078	57165.046875
1590.163086	56438.785156
1589.121094	56549.992188
1588.079102	56700.792969
1587.036133	56313.023438
1585.994141	56389.222656
1584.951172	55996.984375
1583.908203	56597.453125
1582.865234	56738.781250
1581.822266	56560.960938
1580.778320	56590.460938
1579.734375	56757.320313
1578.691406	56400.339844
1577.646484	56939.562500
1576.602539	56475.628906
1575.558594	56472.531250
1574.513672	56581.093750
1573.468750	56480.292969
1572.423828	57025.988281
1571.378906	56397.363281
1570.333008	56619.757813
1569.288086	56783.964844
1568.242188	56532.160156
1567.196289	56745.109375
1566.150391	55578.167969
1565.103516	56223.195313
1564.057617	56206.191406
1563.010742	55736.464844
1561.963867	55299.402344
1560.916992	55303.453125
1559.869141	55553.468750
1558.822266	55919.390625
1557.774414	55403.734375
1556.726563	55820.570313
1555.678711	56230.296875
1554.630859	55960.601563
1553.582031	55607.546875
1552.534180	55966.105469
1551.485352	56065.011719
1550.436523	56203.265625
1549.386719	55861.996094
1548.337891	56011.808594
1547.288086	55932.339844
1546.238281	56806.695313
1545.188477	56375.281250
1544.138672	56670.683594
1543.088867	56438.429688
1542.038086	56432.968750
1540.987305	57156.097656
1539.936523	56708.808594
1538.885742	56592.312500
1537.834961	55872.492188
1536.783203	56777.789063
1535.731445	56118.273438
1534.679688	56531.062500
1533.627930	55973.460938
1532.576172	55575.429688
1531.523438	55710.976563
1530.471680	55943.441406
1529.418945	55494.832031
1528.366211	55254.105469
1527.312500	55264.992188
1526.259766	55665.789063
1525.206055	55141.417969
1524.152344	55645.875000
1523.098633	55043.289063
1522.044922	55040.359375
1520.990234	55599.878906
1519.936523	55423.992188
1518.881836	55179.035156
1517.827148	54830.488281
1516.772461	55122.433594
1515.716797	55230.023438
1514.662109	55052.046875
1513.606445	55201.046875
1512.550781	55198.074219
1511.495117	54824.566406
1510.438477	55150.703125
1509.382813	55179.937500
1508.326172	55604.796875
1507.269531	55134.882813
1506.212891	55127.312500
1505.155273	55386.417969
1504.098633	55188.019531
1503.041016	55807.824219
1501.983398	55618.609375
1500.925781	55907.296875
1499.867188	55911.066406
1498.809570	55671.402344
1497.750977	56230.855469
1496.692383	55869.546875
1495.633789	55441.800781
1494.575195	55427.277344
1493.515625	55557.308594
1492.457031	55682.699219
1491.397461	55397.492188
1490.337891	55635.226563
1489.277344	55765.117188
1488.217773	55663.429688
1487.157227	56084.339844
1486.096680	55609.105469
1485.036133	55782.425781
1483.975586	55554.808594
1482.915039	55691.429688
1481.853516	55928.757813
1480.791992	56186.601563
1479.730469	56071.226563
1478.668945	56058.886719
1477.606445	56023.664063
1476.544922	56057.085938
1475.482422	56307.800781
1474.419922	56425.777344
1473.357422	55592.468750
1472.293945	56650.164063
1471.231445	56196.554688
1470.167969	55635.691406
1469.104492	56658.527344
1468.041016	56570.683594
1466.976563	56364.097656
1465.913086	56397.375000
1464.848633	56323.320313
1463.784180	57114.527344
1462.719727	56796.136719
1461.655273	56916.023438
1460.589844	56424.367188
1459.524414	56742.746094
1458.458984	57558.242188
1457.393555	56861.488281
1456.328125	57058.765625
1455.261719	56825.117188
1454.196289	57218.339844
1453.129883	57280.992188
1452.063477	57298.046875
1450.996094	57212.582031
1449.929688	57004.156250
1448.862305	57522.230469
1447.794922	57375.292969
1446.727539	57685.957031
1445.660156	57673.320313
1444.591797	57753.984375
1443.524414	58016.628906
1442.456055	57901.566406
1441.387695	58170.910156
1440.318359	58562.945313
1439.250000	58466.027344
1438.180664	58994.253906
1437.111328	59304.105469
1436.041992	59495.679688
1434.972656	59196.457031
1433.903320	60273.859375
1432.833008	60369.769531
1431.762695	60131.851563
1430.692383	60225.472656
1429.622070	61356.382813
1428.550781	60941.390625
1427.480469	60621.843750
1426.409180	60867.300781
1425.337891	60640.875000
1424.266602	60629.972656
1423.194336	60172.390625
1422.122070	60111.695313
1421.050781	60454.472656
1419.978516	60919.496094
1418.905273	61024.093750
1417.833008	60915.707031
1416.759766	60186.753906
1415.687500	59858.890625
1414.614258	60491.140625
1413.540039	60070.519531
1412.466797	60193.246094
1411.392578	60657.628906
1410.319336	60730.425781
1409.245117	60613.179688
1408.169922	61194.835938
1407.095703	60932.820313
1406.020508	61177.332031
1404.946289	60949.312500
1403.871094	61593.765625
1402.794922	61060.691406
1401.719727	61982.773438
1400.643555	61117.769531
1399.568359	61581.039063
1398.492188	61508.984375
1397.415039	62017.164063
1396.338867	62084.996094
1395.261719	62026.421875
1394.185547	62874.945313
1393.108398	62414.675781
1392.031250	63122.968750
1390.953125	62694.390625
1389.875977	63377.570313
1388.797852	64506.871094
1387.719727	64087.277344
1386.641602	64145.593750
1385.562500	64891.097656
1384.484375	65530.453125
1383.405273	65338.453125
1382.326172	65907.679688
1381.247070	66190.757813
1380.166992	66221.593750
1379.087891	66689.062500
1378.007813	67039.343750
1376.927734	66732.523438
1375.847656	67120.906250
1374.767578	66380.093750
1373.686523	67015.750000
1372.605469	66538.273438
1371.524414	66081.195313
1370.443359	65266.925781
1369.362305	65228.191406
1368.280273	65297.308594
1367.199219	64919.390625
1366.117188	64608.980469
1365.034180	64988.035156
1363.952148	64520.566406
1362.870117	64226.101563
1361.787109	63720.781250
1360.704102	64007.714844
1359.621094	63693.304688
1358.537109	63401.433594
1357.454102	63289.074219
1356.370117	63008.585938
1355.286133	63402.984375
1354.202148	63201.023438
1353.118164	63026.023438
1352.033203	62889.171875
1350.948242	62624.679688
1349.863281	62716.402344
1348.778320	62469.945313
1347.693359	62149.687500
1346.607422	62181.000000
1345.521484	62838.988281
1344.435547	62326.378906
1343.349609	63015.421875
1342.263672	61939.246094
1341.176758	62073.437500
1340.090820	62466.968750
1339.003906	62533.937500
1337.916016	62173.929688
1336.829102	62529.226563
1335.741211	62524.636719
1334.654297	62526.742188
1333.566406	62685.210938
1332.478516	62772.152344
1331.389648	62644.695313
1330.301758	63195.972656
1329.212891	63316.246094
1328.124023	62840.605469
1327.035156	63380.382813
1325.945313	63351.082031
1324.856445	63074.199219
1323.766602	63281.347656
1322.676758	63530.781250
1321.586914	63282.992188
1320.496094	63318.355469
1319.406250	63086.289063
1318.315430	63228.621094
1317.224609	63562.476563
1316.133789	63212.437500
1315.041992	63639.699219
1313.951172	63383.277344
1312.859375	63527.636719
1311.767578	63255.742188
1310.675781	63564.738281
1309.583008	63708.980469
1308.491211	63512.824219
1307.398438	63794.910156
1306.305664	63416.464844
1305.212891	63522.824219
1304.119141	64087.046875
1303.026367	64626.617188
1301.932617	64474.933594
1300.838867	64634.332031
1299.744141	64582.648438
1298.650391	64739.742188
1297.555664	64994.476563
1296.461914	64543.144531
1295.366211	65268.378906
1294.271484	65300.949219
1293.176758	66032.429688
1292.081055	65669.960938
1290.985352	66088.367188
1289.889648	66355.828125
1288.793945	66230.726563
1287.697266	66183.265625
1286.601563	66412.867188
1285.504883	66560.390625
1284.408203	66253.656250
1283.311523	66587.226563
1282.213867	66659.328125
1281.116211	65641.906250
1280.018555	65924.476563
1278.920898	65801.851563
1277.823242	65280.890625
1276.725586	65691.710938
1275.626953	65308.121094
1274.528320	65097.203125
1273.429688	64744.816406
1272.330078	64830.375000
1271.231445	63965.253906
1270.131836	64000.074219
1269.032227	64651.476563
1267.932617	64054.210938
1266.833008	64069.105469
1265.732422	63587.015625
1264.632813	63473.898438
1263.532227	63230.546875
1262.430664	63453.085938
1261.330078	62585.183594
1260.228516	63088.019531
1259.127930	63387.679688
1258.026367	62648.199219
1256.924805	62405.246094
1255.822266	62557.113281
1254.720703	62682.460938
1253.618164	63050.246094
1252.515625	62333.523438
1251.413086	62375.101563
1250.309570	62328.531250
1249.207031	62630.015625
1248.103516	62446.863281
1247.000000	62177.894531
1245.895508	61459.894531
1244.791992	61671.062500
1243.687500	61699.480469
1242.583008	61967.730469
1241.478516	61771.679688
1240.374023	61839.652344
1239.269531	61852.613281
1238.164063	61588.519531
1237.058594	62001.628906
1235.953125	62076.093750
1234.847656	61772.535156
1233.741211	62159.011719
1232.635742	62255.367188
1231.529297	61752.062500
1230.422852	61716.687500
1229.315430	61984.320313
1228.208984	61755.730469
1227.101563	61963.992188
1225.994141	62132.675781
1224.886719	61691.359375
1223.779297	61816.152344
1222.670898	61861.945313
1221.562500	62008.585938
1220.454102	61786.843750
1219.345703	61536.679688
1218.237305	62053.675781
1217.127930	61858.335938
1216.018555	61483.410156
1214.909180	61945.367188
1213.799805	61947.246094
1212.690430	61791.464844
1211.580078	61994.773438
1210.469727	62403.757813
1209.359375	62164.812500
1208.249023	62722.398438
1207.138672	62527.226563
1206.027344	62690.835938
1204.916016	62327.347656
1203.804688	62648.351563
1202.693359	63214.074219
1201.581055	63265.957031
1200.469727	63610.640625
1199.357422	63417.726563
1198.245117	63954.484375
1197.131836	64471.390625
1196.019531	64060.046875
1194.906250	64207.769531
1193.792969	64414.371094
1192.679688	64915.527344
1191.566406	64596.039063
1190.452148	64577.734375
1189.337891	64856.089844
1188.223633	64805.023438
1187.109375	64376.753906
1185.995117	65407.113281
1184.879883	64647.570313
1183.764648	64836.292969
1182.649414	64800.519531
1181.534180	64710.289063
1180.418945	65057.890625
1179.302734	64765.117188
1178.186523	64583.492188
1177.070313	64789.417969
1175.954102	64723.203125
1174.837891	64735.347656
1173.720703	64712.675781
1172.603516	64424.617188
1171.486328	64504.222656
1170.369141	64261.968750
1169.250977	63876.304688
1168.132813	64114.644531
1167.015625	63618.300781
1165.896484	64543.250000
1164.778320	64768.292969
1163.660156	64265.578125
1162.541016	64030.171875
1161.421875	63692.792969
1160.302734	64071.953125
1159.182617	64153.605469
1158.063477	64213.523438
1156.943359	64000.023438
1155.823242	64120.687500
1154.703125	63653.503906
1153.582031	63975.859375
1152.461914	64040.074219
1151.340820	63850.632813
1150.219727	64133.753906
1149.097656	64470.945313
1147.976563	64558.847656
1146.854492	64566.562500
1145.732422	64615.425781
1144.610352	64742.222656
1143.488281	65247.855469
1142.365234	65969.765625
1141.243164	65936.078125
1140.120117	66086.335938
1138.996094	66193.265625
1137.873047	66103.312500
1136.750000	66342.109375
1135.625977	66347.296875
1134.501953	66819.445313
1133.377930	66180.414063
1132.252930	66220.195313
1131.127930	66441.460938
1130.003906	66230.578125
1128.878906	66052.171875
1127.752930	66567.031250
1126.627930	66259.070313
1125.501953	66758.585938
1124.375977	66306.093750
1123.250000	66149.398438
1122.124023	66016.492188
1120.997070	65814.601563
1119.871094	66013.937500
1118.744141	65227.742188
1117.617188	65560.781250
1116.489258	65182.351563
1115.362305	65788.976563
1114.234375	65636.890625
1113.106445	65355.593750
1111.978516	65244.562500
1110.849609	65019.429688
1109.721680	65072.140625
1108.592773	65378.859375
1107.463867	65280.808594
1106.333984	65344.195313
1105.205078	64884.707031
1104.075195	65365.476563
1102.945313	64852.375000
1101.815430	65253.402344
1100.685547	65538.171875
1099.554688	65603.578125
1098.424805	65002.675781
1097.293945	65463.539063
1096.162109	65748.054688
1095.031250	65473.957031
1093.899414	65635.945313
1092.768555	65149.375000
1091.636719	64916.324219
1090.503906	64801.410156
1089.372070	64791.699219
1088.239258	64659.679688
1087.106445	65023.277344
1085.973633	64646.734375
1084.840820	64349.675781
1083.708008	64663.808594
1082.574219	64508.339844
1081.440430	64496.527344
1080.306641	64424.714844
1079.171875	64449.343750
1078.038086	64521.085938
1076.903320	64496.421875
1075.768555	64570.265625
1074.633789	64603.402344
1073.498047	65015.414063
1072.363281	64295.085938
1071.227539	64813.992188
1070.091797	64464.082031
1068.956055	64492.917969
1067.819336	64812.593750
1066.682617	64559.093750
1065.546875	65445.179688
1064.409180	64766.285156
1063.272461	65162.605469
1062.135742	65041.691406
1060.998047	65194.265625
1059.860352	65163.093750
1058.722656	65657.273438
1057.583984	65702.890625
1056.446289	65825.328125
1055.307617	65288.210938
1054.168945	65118.324219
1053.029297	64867.421875
1051.890625	65245.902344
1050.750977	65803.398438
1049.611328	66222.078125
1048.471680	65971.148438
1047.332031	66276.656250
1046.191406	65797.757813
1045.051758	66258.742188
1043.911133	65961.101563
1042.769531	66413.359375
1041.628906	66420.335938
1040.487305	66182.445313
1039.346680	66221.398438
1038.205078	66390.171875
1037.062500	66092.820313
1035.920898	66231.757813
1034.778320	66366.390625
1033.635742	66267.000000
1032.493164	66382.429688
1031.350586	66365.992188
1030.207031	66188.000000
1029.063477	66348.007813
1027.919922	66765.070313
1026.776367	66412.875000
1025.632813	66426.171875
1024.488281	66600.875000
1023.343750	66675.703125
1022.199219	66230.359375
1021.054688	66850.742188
1019.910156	66774.796875
1018.764648	66951.375000
1017.619141	66767.234375
1016.473633	67166.460938
1015.327148	67065.054688
1014.181641	67084.539063
1013.035156	67220.601563
1011.888672	67240.046875
1010.742188	67318.812500
1009.594727	67170.843750
1008.448242	67399.992188
1007.300781	66872.929688
1006.153320	67351.921875
1005.005859	67832.843750
1003.857422	67473.218750
1002.708984	68226.960938
1001.560547	68988.882813
1000.412109	69012.164063
999.263672	69172.921875
998.114258	69788.320313
996.965820	69578.835938
995.816406	69849.328125
994.666016	69735.023438
993.516602	69677.914063
992.366211	69620.750000
991.215820	69563.593750
990.065430	69506.429688
988.915039	69449.273438
987.763672	69392.062500
986.613281	69575.609375
985.461914	69991.257813
984.309570	69440.281250
983.158203	69864.226563
982.005859	69984.265625
980.854492	69593.867188
979.701172	69745.531250
978.548828	69939.304688
977.396484	70116.132813
976.243164	70090.585938
975.089844	69984.968750
973.936523	70269.125000
972.783203	70357.289063
971.628906	69859.968750
970.474609	70455.609375
969.320313	70834.187500
968.166016	70332.835938
967.010742	70368.281250
965.856445	70708.789063
964.701172	70359.187500
963.545898	70607.031250
962.390625	70503.601563
961.234375	70618.859375
960.078125	70290.539063
958.921875	70523.476563
957.765625	71002.179688
956.609375	70625.640625
955.452148	70553.812500
954.294922	71095.242188
953.137695	70458.515625
951.980469	70880.093750
950.822266	70428.343750
949.665039	70751.132813
948.506836	70822.015625
947.347656	70454.429688
946.189453	70076.484375
945.030273	69960.812500
943.872070	70031.773438
942.712891	70071.265625
941.552734	69867.617188
940.393555	69565.554688
939.233398	69925.648438
938.073242	69613.210938
936.913086	69705.085938
935.752930	69662.906250
934.591797	69702.390625
933.430664	69988.851563
932.269531	69929.898438
931.108398	70314.546875
929.947266	70646.750000
928.785156	70261.406250
927.623047	70549.570313
926.460938	70415.281250
925.298828	71363.890625
924.135742	71359.078125
922.972656	71164.101563
921.810547	71675.375000
920.646484	72061.125000
919.483398	71615.492188
918.319336	72310.148438
917.155273	72449.195313
915.991211	72648.726563
914.827148	73065.226563
913.662109	72623.984375
912.498047	73367.859375
911.333008	73168.671875
910.167969	73330.328125
909.001953	73927.703125
907.836914	73941.140625
906.670898	74146.328125
905.504883	74370.195313
904.337891	74268.945313
903.171875	73892.750000
902.004883	74124.859375
900.837891	73167.851563
899.670898	73139.750000
898.503906	73169.945313
897.335938	72636.117188
896.167969	73321.843750
895.000000	73121.046875
893.832031	72932.804688
892.663086	73249.984375
891.495117	73024.351563
890.326172	73081.531250
889.156250	73250.921875
887.987305	72827.984375
886.817383	73221.750000
885.648438	72857.132813
884.478516	72959.960938
883.307617	72765.804688
882.137695	72804.242188
880.966797	73100.070313
879.795898	72704.664063
878.625000	72714.039063
877.454102	72970.289063
876.282227	73643.375000
875.110352	73820.539063
873.938477	73788.218750
872.766602	74224.429688
871.593750	73163.945313
870.421875	73678.859375
869.249023	73924.210938
868.076172	73523.132813
866.902344	73884.414063
865.729492	74206.203125
864.555664	74712.148438
863.381836	75230.320313
862.207031	75305.382813
861.033203	75363.859375
859.858398	76109.187500
858.683594	75420.750000
857.508789	76103.742188
856.333984	75270.804688
855.158203	75467.734375
853.982422	74821.250000
852.806641	75123.578125
851.630859	74473.257813
850.454102	74903.609375
849.278320	74365.101563
848.101563	74667.273438
846.924805	74304.500000
845.747070	75225.867188
844.570313	74625.757813
843.392578	75668.468750
842.214844	75586.351563
841.036133	76067.406250
839.858398	76977.257813
838.679688	77503.234375
837.500977	78047.562500
836.322266	78834.921875
835.143555	78890.367188
833.963867	78840.710938
832.784180	78698.359375
831.604492	78121.453125
830.424805	77658.015625
829.244141	76935.328125
828.063477	76439.343750
826.882813	76058.796875
825.702148	75001.367188
824.521484	74685.007813
823.339844	74757.546875
822.158203	74237.726563
820.976563	74211.609375
819.794922	73774.320313
818.612305	73688.679688
817.430664	73298.906250
816.248047	72732.562500
815.064453	72304.078125
813.881836	72512.484375
812.698242	72232.046875
811.514648	72766.843750
810.331055	72291.437500
809.147461	71900.359375
807.962891	71809.023438
806.778320	71943.406250
805.593750	71380.289063
804.409180	71453.164063
803.224609	71610.085938
802.039063	71324.109375
800.853516	71595.781250
799.667969	71631.656250
798.482422	70921.671875
797.295898	70427.054688
796.109375	70446.734375
794.922852	70241.140625
793.736328	70506.546875
792.548828	70262.117188
791.362305	70083.265625
790.174805	69859.453125
788.986328	69770.765625
787.798828	69002.960938
786.610352	69339.859375
785.421875	69480.335938
784.233398	68991.046875
783.044922	68970.039063
781.856445	68156.070313
780.666992	68701.226563
779.477539	68404.476563
778.288086	67883.148438
777.097656	67982.835938
775.907227	68002.859375
774.717773	67841.179688
773.526367	68061.242188
772.335938	68334.265625
771.144531	67625.812500
769.954102	67658.101563
768.762695	68053.414063
767.570313	68201.843750
766.378906	68215.648438
765.186523	67999.109375
763.994141	68479.656250
762.801758	68756.250000
761.609375	68232.093750
760.416016	68913.968750
759.222656	69078.312500
758.029297	69550.046875
756.835938	70115.242188
755.641602	69689.007813
754.447266	70085.054688
753.252930	70240.875000
752.058594	70008.093750
750.864258	69702.171875
749.668945	69849.835938
748.473633	69241.125000
747.278320	68917.210938
746.083008	68827.140625
744.886719	68007.625000
743.690430	67712.562500
742.494141	67864.468750
741.297852	67530.953125
740.100586	67154.914063
738.904297	67079.460938
737.707031	66569.679688
736.509766	66563.359375
735.311523	66717.320313
734.113281	66526.367188
732.916016	66179.312500
731.716797	66079.773438
730.518555	66393.867188
729.320313	66122.023438
728.121094	66065.101563
726.921875	65560.390625
725.721680	65768.984375
724.522461	65525.804688
723.322266	65541.929688
722.122070	65258.382813
720.921875	65035.671875
719.721680	65221.886719
718.520508	65408.031250
717.319336	65059.964844
716.118164	65638.500000
714.916992	65717.265625
713.714844	65197.441406
712.513672	64938.617188
711.311523	65316.621094
710.108398	65373.136719
708.906250	65738.789063
707.703125	65451.761719
706.500000	65098.179688
705.296875	65544.445313
704.093750	65439.328125
702.889648	65733.953125
701.685547	65388.644531
700.481445	65681.148438
699.277344	65174.562500
698.072266	66160.914063
696.868164	65856.109375
695.663086	66053.515625
694.457031	66311.328125
693.251953	66034.882813
692.045898	65907.664063
690.839844	66753.718750
689.633789	66642.531250
688.427734	66448.796875
687.220703	66522.968750
686.013672	66941.414063
684.806641	66552.453125
683.599609	67353.140625
682.391602	66827.406250
681.184570	67259.546875
679.976563	67140.359375
678.767578	66826.125000
677.559570	67219.812500
676.350586	67528.914063
675.141602	67761.507813
673.932617	67809.125000
672.723633	68029.523438
671.513672	68470.812500
670.303711	67759.023438
669.093750	67764.414063
667.883789	67649.335938
666.672852	67676.828125
665.462891	67025.914063
664.251953	66634.109375
663.040039	66196.296875
661.829102	65824.843750
660.617188	65573.859375
659.405273	65816.242188
658.193359	65501.195313
656.981445	65621.226563
655.768555	65143.996094
654.555664	64893.359375
653.342773	65229.785156
652.129883	64820.984375
650.916016	64684.687500
649.702148	64978.906250
648.488281	64896.671875
647.274414	65328.832031
646.059570	64910.378906
644.845703	65222.332031
643.630859	64940.070313
642.416016	65059.894531
641.200195	65157.679688
639.984375	65295.410156
638.769531	64765.480469
637.552734	65430.812500
636.336914	65480.488281
635.120117	65160.570313
633.904297	65643.687500
632.687500	65339.832031
631.469727	64996.152344
630.252930	65329.304688
629.035156	65187.328125
627.817383	64568.492188
626.599609	65111.011719
625.380859	64757.707031
624.163086	64811.375000
622.944336	65084.351563
621.724609	64613.625000
620.505859	64721.093750
619.286133	64208.753906
618.066406	64481.628906
616.846680	64369.925781
615.626953	64656.601563
614.406250	64606.636719
613.186523	63780.210938
611.965820	64462.953125
610.744141	64365.277344
609.523438	64349.214844
608.301758	64084.476563
607.080078	64229.582031
605.858398	64388.554688
604.635742	64615.066406
603.414063	64783.839844
602.191406	64147.570313
600.968750	64344.183594
599.745117	64330.113281
598.522461	64327.964844
597.298828	63765.730469
596.075195	64075.441406
594.850586	63868.843750
593.626953	63755.609375
592.402344	63753.554688
591.177734	63904.285156
589.953125	63537.167969
588.727539	63997.296875
587.501953	63368.523438
586.276367	63792.816406
585.050781	63130.609375
583.825195	63737.128906
582.598633	63542.839844
581.372070	63594.296875
580.145508	64085.484375
578.917969	64427.949219
577.691406	64174.257813
576.463867	64189.906250
575.236328	64369.839844
574.007813	64238.992188
572.780273	63771.824219
571.551758	63476.937500
570.323242	64212.644531
569.094727	63929.644531
567.865234	64131.152344
566.635742	64126.996094
565.406250	63966.699219
564.176758	64191.789063
562.947266	63215.582031
561.716797	63960.226563
560.486328	63989.664063
559.255859	64050.679688
558.024414	63785.929688
556.793945	63479.828125
555.562500	63611.937500
554.331055	64006.417969
553.098633	63574.183594
551.867188	63615.464844
550.634766	63583.769531
549.402344	63124.246094
548.168945	63017.742188
546.936523	63346.832031
545.703125	63451.156250
544.469727	63387.984375
543.236328	63340.589844
542.001953	63521.656250
540.767578	63090.296875
539.533203	63050.851563
538.298828	63119.667969
537.064453	62922.796875
535.829102	63286.734375
534.593750	63430.210938
533.358398	63315.984375
532.122070	63433.835938
530.886719	63026.707031
529.650391	63254.636719
528.414063	63492.304688
527.176758	63507.843750
525.940430	63128.503906
524.703125	63165.703125
523.465820	63403.195313
522.227539	62713.859375
520.990234	63008.269531
519.751953	63129.851563
518.513672	63382.855469
517.275391	63284.574219
516.036133	62935.246094
514.796875	63358.765625
513.557617	62874.250000
512.318359	63274.085938
511.079102	63252.347656
509.838867	63134.585938
508.598633	62889.511719
507.358398	63206.750000
506.117188	63465.113281
504.876953	62949.863281
503.635742	63165.097656
502.394531	63258.878906
501.152344	63057.093750
499.911133	63444.371094
498.668945	63350.226563
497.425781	63240.460938
496.183594	63146.382813
494.941406	63572.445313
493.698242	64029.621094
492.455078	63911.984375
491.210938	63937.039063
489.967773	64161.375000
488.723633	64051.582031
487.479492	64191.824219
486.235352	63923.890625
484.990234	64528.753906
483.745117	64682.480469
482.500000	64611.707031
481.254883	64501.937500
480.008789	64725.800781
478.763672	65655.656250
477.517578	64984.105469
476.271484	65412.468750
475.024414	65224.660156
473.777344	65830.164063
472.530273	65503.988281
471.283203	65637.726563
470.036133	66225.273438
468.788086	66933.343750
467.540039	67125.140625
466.291992	66364.867188
465.043945	66835.031250
463.794922	67269.992188
462.545898	66990.703125
461.296875	67604.429688
460.047852	67922.289063
458.797852	68138.898438
457.547852	68155.171875
456.297852	68089.789063
455.047852	68659.953125
453.796875	68631.414063
452.545898	69008.921875
451.294922	69232.835938
450.043945	69431.406250
448.792969	70062.898438
447.541016	70249.585938
446.289063	71090.296875
445.036133	70964.281250
443.784180	71608.570313
442.531250	72132.343750
441.278320	71624.125000
440.025391	70856.250000
438.771484	70714.875000
437.518555	69619.882813
436.264648	68711.343750
435.010742	68491.000000
433.755859	67838.734375
432.500977	67219.632813
431.246094	67754.937500
429.991211	67345.187500
428.736328	66858.156250
427.480469	66785.484375
426.224609	66583.195313
424.968750	66922.687500
423.712891	66410.953125
422.456055	66522.132813
421.199219	66265.890625
419.942383	66301.656250
418.685547	66600.281250
417.427734	67070.773438
416.169922	66553.773438
414.912109	66261.046875
413.654297	66907.078125
412.395508	66676.187500
411.136719	66690.570313
409.877930	66980.976563
408.619141	66775.273438
407.359375	66814.703125
406.099609	67556.343750
404.839844	67126.898438
403.580078	66518.265625
402.319336	66675.320313
401.059570	66749.414063
