#Wave		#Intensity
2001.221680	41109.343750
2000.251953	41071.746094
1999.282227	40971.851563
1998.312500	40912.082031
1997.342773	41022.683594
1996.372070	41386.226563
1995.402344	41148.601563
1994.431641	40833.437500
1993.460938	41194.316406
1992.490234	40781.632813
1991.518555	41132.382813
1990.547852	41150.218750
1989.576172	41343.167969
1988.604492	40940.746094
1987.632813	41296.218750
1986.661133	41158.984375
1985.689453	41036.796875
1984.716797	41387.058594
1983.745117	40947.488281
1982.772461	41897.316406
1981.799805	41307.910156
1980.827148	41800.250000
1979.853516	41305.964844
1978.880859	41503.492188
1977.907227	41471.273438
1976.933594	41536.414063
1975.959961	41494.214844
1974.986328	41279.863281
1974.011719	41572.015625
1973.038086	41649.554688
1972.063477	41442.765625
1971.088867	41378.175781
1970.114258	41729.929688
1969.138672	41493.320313
1968.164063	41924.675781
1967.188477	41680.636719
1966.212891	41705.734375
1965.237305	41586.355469
1964.261719	42104.550781
1963.286133	42154.457031
1962.309570	42102.273438
1961.333984	42052.593750
1960.357422	42229.398438
1959.380859	42057.789063
1958.404297	41846.437500
1957.426758	42003.281250
1956.450195	42015.828125
1955.472656	42125.339844
1954.495117	41894.230469
1953.517578	41521.519531
1952.540039	42083.351563
1951.561523	42135.621094
1950.583008	41785.417969
1949.605469	41907.265625
1948.626953	41865.164063
1947.647461	42096.199219
1946.668945	42250.195313
1945.690430	42138.554688
1944.710938	42260.222656
1943.731445	42414.105469
1942.751953	42466.218750
1941.772461	42565.441406
1940.791992	41890.886719
1939.812500	42019.925781
1938.832031	42414.175781
1937.851563	42307.601563
1936.871094	42409.234375
1935.890625	42434.019531
1934.909180	42414.199219
1933.928711	42599.968750
1932.947266	42634.609375
1931.965820	42542.957031
1930.984375	42389.445313
1930.002930	42748.339844
1929.020508	43000.695313
1928.038086	43052.546875
1927.056641	42819.882813
1926.074219	42839.589844
1925.090820	42654.027344
1924.108398	42651.496094
1923.125000	42690.992188
1922.142578	42409.156250
1921.159180	42690.859375
1920.175781	43063.882813
1919.191406	42688.246094
1918.208008	42932.699219
1917.223633	42673.285156
1916.240234	42813.949219
1915.255859	43196.488281
1914.271484	42554.585938
1913.286133	42626.093750
1912.301758	42411.359375
1911.316406	42727.089844
1910.331055	43158.632813
1909.345703	42672.652344
1908.360352	42734.203125
1907.375000	42758.757813
1906.388672	42430.839844
1905.402344	42894.082031
1904.416016	43100.917969
1903.429688	43066.261719
1902.443359	42965.109375
1901.457031	43176.742188
1900.469727	43193.789063
1899.482422	43262.527344
1898.495117	43139.253906
1897.507813	43033.250000
1896.520508	42956.804688
1895.532227	43404.371094
1894.543945	43052.410156
1893.556641	43071.906250
1892.568359	43324.968750
1891.579102	42739.671875
1890.590820	43457.234375
1889.601563	43380.796875
1888.613281	43456.718750
1887.624023	43812.660156
1886.634766	43610.933594
1885.644531	43362.621094
1884.655273	43369.738281
1883.665039	43200.105469
1882.674805	43869.933594
1881.684570	43629.101563
1880.694336	43366.269531
1879.704102	43694.730469
1878.712891	43517.820313
1877.722656	43343.425781
1876.731445	43865.402344
1875.740234	43335.554688
1874.748047	44141.656250
1873.756836	44129.000000
1872.764648	43878.687500
1871.773438	43388.394531
1870.781250	43625.695313
1869.788086	43735.574219
1868.795898	43620.160156
1867.803711	44102.082031
1866.810547	44148.175781
1865.817383	44010.722656
1864.824219	44137.550781
1863.831055	43897.402344
1862.837891	44070.675781
1861.843750	43720.578125
1860.849609	44140.753906
1859.855469	44260.109375
1858.861328	44442.964844
1857.867188	44330.074219
1856.872070	44148.812500
1855.877930	44153.261719
1854.882813	44499.636719
1853.887695	44767.750000
1852.892578	44078.699219
1851.896484	44390.726563
1850.901367	44539.121094
1849.905273	44316.546875
1848.909180	44238.000000
1847.913086	44288.761719
1846.916992	44659.000000
1845.919922	44543.851563
1844.923828	44806.640625
1843.926758	44625.683594
1842.929688	44283.933594
1841.932617	44612.417969
1840.935547	45247.761719
1839.937500	44937.746094
1838.939453	44954.191406
1837.942383	44914.621094
1836.943359	44217.718750
1835.945313	44910.984375
1834.947266	44783.824219
1833.948242	44956.007813
1832.949219	45098.933594
1831.951172	45560.460938
1830.951172	45121.968750
1829.952148	45079.980469
1828.953125	45531.539063
1827.953125	45547.828125
1826.953125	45187.406250
1825.953125	45327.675781
1824.953125	45402.292969
1823.952148	45073.660156
1822.952148	45264.871094
1821.951172	45485.148438
1820.950195	45481.992188
1819.949219	45828.371094
1818.948242	45647.984375
1817.946289	45678.769531
1816.945313	45787.171875
1815.943359	46011.964844
1814.941406	45982.031250
1813.939453	45908.457031
1812.936523	46123.406250
1811.934570	45584.437500
1810.931641	45755.742188
1809.928711	45895.488281
1808.925781	45831.675781
1807.921875	46073.085938
1806.918945	46319.253906
1805.915039	45851.027344
1804.912109	46673.324219
1803.908203	45936.523438
1802.903320	46465.683594
1801.899414	46859.152344
1800.894531	46795.246094
1799.890625	46300.816406
1798.885742	46498.210938
1797.880859	46482.757813
1796.875000	46554.335938
1795.870117	46783.000000
1794.864258	46999.500000
1793.858398	47131.351563
1792.852539	47299.390625
1791.846680	47090.570313
1790.840820	46874.574219
1789.833984	47332.312500
1788.828125	46976.324219
1787.821289	47093.550781
1786.814453	46957.335938
1785.806641	47214.460938
1784.799805	47227.839844
1783.791992	47255.683594
1782.784180	47341.394531
1781.776367	47214.894531
1780.768555	47315.039063
1779.760742	47444.074219
1778.751953	47609.207031
1777.743164	47595.984375
1776.735352	47452.675781
1775.725586	47692.382813
1774.716797	47455.183594
1773.708008	47817.597656
1772.698242	47727.304688
1771.688477	48161.742188
1770.678711	47623.816406
1769.668945	47704.425781
1768.659180	48218.019531
1767.648438	48389.890625
1766.637695	48287.554688
1765.626953	48351.156250
1764.616211	48258.476563
1763.605469	48514.332031
1762.593750	48895.058594
1761.583008	48477.968750
1760.571289	48909.007813
1759.559570	49474.390625
1758.547852	49259.132813
1757.535156	48794.246094
1756.523438	48992.066406
1755.510742	49840.242188
1754.498047	49872.226563
1753.485352	49409.953125
1752.472656	49952.945313
1751.458984	49742.648438
1750.445313	49709.875000
1749.432617	49900.082031
1748.417969	50025.500000
1747.404297	49848.882813
1746.390625	50079.695313
1745.375977	49989.382813
1744.361328	50452.437500
1743.346680	50184.855469
1742.332031	50786.597656
1741.317383	50701.000000
1740.302734	51419.726563
1739.287109	51460.890625
1738.271484	51427.859375
1737.255859	51186.691406
1736.240234	51921.558594
1735.223633	52677.687500
1734.208008	52548.808594
1733.191406	52931.593750
1732.174805	53414.636719
1731.158203	53505.562500
1730.140625	53842.570313
1729.124023	54339.523438
1728.106445	54788.527344
1727.088867	54800.324219
1726.071289	54929.113281
1725.053711	55549.660156
1724.035156	55721.234375
1723.017578	55947.636719
1721.999023	56016.472656
1720.980469	55999.398438
1719.961914	56991.296875
1718.942383	56387.375000
1717.923828	56973.496094
1716.904297	57037.312500
1715.884766	56989.070313
1714.865234	57536.636719
1713.844727	57068.960938
1712.825195	56637.179688
1711.804688	57794.277344
1710.784180	56779.054688
1709.763672	56983.289063
1708.743164	57299.339844
1707.722656	57070.207031
1706.701172	57079.132813
1705.679688	56624.078125
1704.658203	57082.695313
1703.636719	56803.804688
1702.615234	56482.207031
1701.592773	56545.906250
1700.571289	56583.425781
1699.548828	56513.976563
1698.526367	56385.136719
1697.502930	55403.359375
1696.480469	56037.316406
1695.457031	56074.886719
1694.433594	56364.160156
1693.410156	55884.050781
1692.386719	55634.378906
1691.363281	54846.015625
1690.338867	55930.261719
1689.314453	55540.722656
1688.290039	55616.273438
1687.265625	55641.984375
1686.241211	55741.195313
1685.215820	56174.675781
1684.191406	55903.953125
1683.166016	55114.273438
1682.140625	56310.660156
1681.115234	56236.699219
1680.088867	56155.656250
1679.062500	56098.320313
1678.037109	56197.292969
1677.010742	56324.640625
1675.983398	56290.972656
1674.957031	56633.625000
1673.930664	56907.531250
1672.903320	57086.699219
1671.875977	57218.496094
1670.848633	57461.398438
1669.820313	56968.812500
1668.792969	57022.531250
1667.764648	57449.707031
1666.736328	57484.414063
1665.708008	57620.707031
1664.679688	57279.718750
1663.651367	57638.039063
1662.622070	57982.054688
1661.592773	57775.773438
1660.563477	57933.132813
1659.534180	58066.828125
1658.504883	58257.113281
1657.474609	58355.304688
1656.444336	58472.335938
1655.415039	58362.878906
1654.383789	58435.050781
1653.353516	58516.625000
1652.323242	58803.273438
1651.291992	59066.246094
1650.260742	59258.421875
1649.229492	59639.031250
1648.198242	59385.777344
1647.166016	59109.062500
1646.134766	60092.363281
1645.102539	59662.566406
1644.070313	59830.875000
1643.038086	60352.183594
1642.004883	60595.613281
1640.972656	61034.242188
1639.939453	60759.910156
1638.906250	60894.933594
1637.873047	61723.644531
1636.839844	61322.363281
1635.805664	61480.714844
1634.772461	61899.902344
1633.738281	62462.285156
1632.704102	62657.937500
1631.668945	62968.621094
1630.634766	63344.957031
1629.599609	63413.531250
1628.565430	63477.382813
1627.530273	64400.378906
1626.494141	65046.093750
1625.458984	65435.792969
1624.422852	66083.437500
1623.387695	66482.187500
1622.351563	68034.726563
1621.315430	68482.226563
1620.278320	70584.812500
1619.242188	71913.093750
1618.205078	74131.500000
1617.167969	76210.859375
1616.130859	78558.914063
1615.093750	80988.109375
1614.055664	83311.046875
1613.018555	85122.679688
1611.980469	86865.765625
1610.942383	88294.562500
1609.904297	87618.851563
1608.865234	87219.492188
1607.827148	85486.742188
1606.788086	83153.445313
1605.749023	81457.101563
1604.709961	78662.367188
1603.669922	76965.085938
1602.630859	75095.437500
1601.590820	73455.476563
1600.550781	72395.578125
1599.510742	71298.679688
1598.470703	70533.851563
1597.429688	70061.218750
1596.389648	68850.898438
1595.348633	68413.742188
1594.307617	68541.593750
1593.265625	67710.242188
1592.224609	67159.187500
1591.182617	67116.882813
1590.140625	67009.289063
1589.098633	66192.789063
1588.056641	66418.812500
1587.014648	66124.890625
1585.971680	65798.445313
1584.928711	66147.921875
1583.886719	65830.898438
1582.842773	65362.566406
1581.799805	66112.539063
1580.755859	65655.960938
1579.712891	65595.351563
1578.668945	65711.687500
1577.625000	65858.234375
1576.580078	65669.625000
1575.536133	65990.625000
1574.491211	66760.460938
1573.446289	66271.757813
1572.401367	66950.578125
1571.356445	67203.679688
1570.311523	67617.085938
1569.265625	67732.843750
1568.219727	67023.632813
1567.173828	67613.414063
1566.127930	67048.492188
1565.082031	66760.148438
1564.035156	66518.343750
1562.988281	66631.835938
1561.941406	66489.953125
1560.894531	66519.851563
1559.847656	65941.796875
1558.799805	65960.179688
1557.751953	66222.117188
1556.704102	65853.132813
1555.656250	66026.875000
1554.608398	66242.281250
1553.560547	66272.171875
1552.511719	65919.656250
1551.462891	65829.101563
1550.414063	66086.078125
1549.365234	66247.992188
1548.315430	66342.687500
1547.265625	66066.875000
1546.216797	66136.093750
1545.166992	65628.945313
1544.116211	66292.968750
1543.066406	66128.414063
1542.015625	66220.695313
1540.965820	65915.117188
1539.915039	66039.773438
1538.863281	66088.085938
1537.812500	65570.000000
1536.760742	65532.855469
1535.709961	65437.945313
1534.658203	65109.710938
1533.605469	64728.457031
1532.553711	64520.562500
1531.501953	64398.179688
1530.449219	64472.089844
1529.396484	63712.628906
1528.343750	64084.367188
1527.290039	63306.781250
1526.237305	63279.304688
1525.183594	63069.605469
1524.129883	62813.847656
1523.076172	62763.410156
1522.022461	63123.375000
1520.968750	62266.097656
1519.914063	62416.289063
1518.859375	62310.640625
1517.804688	62317.921875
1516.750000	62051.085938
1515.694336	62346.289063
1514.639648	62777.238281
1513.583984	62220.371094
1512.528320	62906.691406
1511.472656	62761.949219
1510.416016	62398.660156
1509.360352	63477.968750
1508.303711	63054.871094
1507.247070	62723.914063
1506.190430	63310.519531
1505.132813	62264.656250
1504.076172	63124.652344
1503.018555	63085.769531
1501.960938	63141.105469
1500.903320	62174.117188
1499.844727	63017.425781
1498.787109	62523.878906
1497.728516	62831.832031
1496.669922	62744.820313
1495.611328	62908.015625
1494.552734	62318.449219
1493.493164	62823.527344
1492.434570	62649.394531
1491.375000	62791.839844
1490.315430	61851.847656
1489.254883	62239.707031
1488.195313	62567.824219
1487.134766	62091.343750
1486.074219	61983.968750
1485.013672	62412.753906
1483.953125	62573.371094
1482.892578	62427.027344
1481.831055	61825.039063
1480.769531	61800.218750
1479.708008	62274.421875
1478.646484	62071.007813
1477.583984	61963.769531
1476.522461	62343.882813
1475.459961	61998.734375
1474.397461	62639.417969
1473.334961	62319.488281
1472.271484	62395.187500
1471.208984	62411.425781
1470.145508	62423.082031
1469.082031	62258.792969
1468.018555	62295.597656
1466.954102	61964.640625
1465.890625	62775.671875
1464.826172	62894.554688
1463.761719	63189.183594
1462.697266	62856.007813
1461.631836	62678.132813
1460.567383	63616.070313
1459.501953	63746.093750
1458.436523	63264.789063
1457.371094	63342.371094
1456.305664	63226.117188
1455.239258	62852.300781
1454.172852	63618.238281
1453.107422	63784.566406
1452.040039	63650.078125
1450.973633	63451.851563
1449.907227	63704.660156
1448.839844	64007.472656
1447.772461	63993.699219
1446.705078	64016.351563
1445.637695	64512.394531
1444.569336	64735.191406
1443.500977	64518.796875
1442.432617	65000.824219
1441.364258	64734.421875
1440.295898	65220.781250
1439.227539	65447.781250
1438.158203	65795.171875
1437.088867	65974.257813
1436.019531	66200.992188
1434.950195	66450.359375
1433.879883	66790.500000
1432.810547	67089.632813
1431.740234	67713.351563
1430.669922	67753.398438
1429.598633	67850.171875
1428.528320	68827.445313
1427.457031	68819.609375
1426.386719	69140.726563
1425.314453	68869.718750
1424.243164	69403.875000
1423.171875	69384.593750
1422.099609	69505.867188
1421.027344	70066.812500
1419.955078	69442.343750
1418.882813	69808.234375
1417.810547	69342.601563
1416.737305	68879.406250
1415.664063	69532.789063
1414.590820	69411.601563
1413.517578	68378.171875
1412.444336	68243.648438
1411.370117	68000.554688
1410.295898	68067.507813
1409.221680	67650.335938
1408.147461	67773.867188
1407.073242	67368.203125
1405.998047	67362.859375
1404.922852	67404.984375
1403.847656	67408.671875
1402.772461	67362.648438
1401.697266	67407.000000
1400.621094	67074.109375
1399.544922	67269.804688
1398.468750	67607.687500
1397.392578	68098.968750
1396.316406	68454.625000
1395.239258	69112.570313
1394.162109	69576.226563
1393.084961	70364.578125
1392.007813	71012.789063
1390.930664	71299.937500
1389.852539	73030.039063
1388.774414	73300.929688
1387.696289	73830.929688
1386.618164	74047.492188
1385.540039	73601.546875
1384.460938	73601.796875
1383.382813	73840.796875
1382.303711	73987.382813
1381.223633	74005.570313
1380.144531	73965.210938
1379.064453	73585.015625
1377.985352	73416.476563
1376.905273	73693.484375
1375.825195	73351.773438
1374.744141	73406.023438
1373.664063	73264.609375
1372.583008	72878.187500
1371.501953	72159.210938
1370.420898	71662.992188
1369.338867	72312.953125
1368.257813	71956.171875
1367.175781	71449.015625
1366.093750	72109.890625
1365.011719	72316.937500
1363.929688	72126.531250
1362.846680	72490.617188
1361.763672	73105.929688
1360.680664	73234.101563
1359.597656	73137.875000
1358.514648	73151.601563
1357.430664	72474.585938
1356.346680	72667.789063
1355.262695	71782.609375
1354.178711	71493.960938
1353.094727	70985.796875
1352.009766	69281.343750
1350.925781	69526.453125
1349.840820	69368.320313
1348.755859	68580.968750
1347.669922	68353.648438
1346.584961	67470.507813
1345.499023	67617.234375
1344.413086	67184.320313
1343.327148	67527.929688
1342.240234	66855.835938
1341.154297	66778.898438
1340.067383	67323.640625
1338.980469	67244.406250
1337.893555	67422.265625
1336.805664	66701.609375
1335.718750	66828.101563
1334.630859	66811.562500
1333.542969	67130.078125
1332.455078	66865.585938
1331.367188	66815.546875
1330.278320	67178.531250
1329.189453	67490.046875
1328.100586	67897.414063
1327.011719	68226.531250
1325.922852	68626.914063
1324.833008	68607.820313
1323.743164	69561.046875
1322.653320	70110.351563
1321.563477	71312.640625
1320.473633	71917.148438
1319.382813	73390.539063
1318.291992	74112.539063
1317.201172	75593.906250
1316.110352	76760.687500
1315.019531	77557.382813
1313.927734	78427.265625
1312.835938	79285.695313
1311.744141	79117.789063
1310.652344	78974.406250
1309.560547	78746.539063
1308.467773	77662.328125
1307.375000	76921.015625
1306.282227	75744.125000
1305.189453	74283.085938
1304.095703	73858.421875
1303.002930	73000.531250
1301.909180	72358.476563
1300.815430	72543.109375
1299.721680	72181.250000
1298.626953	71861.703125
1297.533203	72081.843750
1296.438477	71795.734375
1295.343750	72444.179688
1294.248047	71860.726563
1293.153320	71661.335938
1292.057617	72433.679688
1290.961914	72425.000000
1289.866211	72649.171875
1288.770508	72968.593750
1287.674805	73079.523438
1286.578125	73310.093750
1285.481445	73135.046875
1284.384766	73239.226563
1283.288086	73062.031250
1282.190430	72599.187500
1281.092773	72535.109375
1279.996094	72236.359375
1278.897461	71780.546875
1277.799805	71475.398438
1276.702148	71710.281250
1275.603516	71126.484375
1274.504883	70567.226563
1273.406250	71226.765625
1272.307617	70689.804688
1271.208008	70267.992188
1270.108398	70283.992188
1269.008789	69351.890625
1267.909180	69737.046875
1266.809570	69938.687500
1265.708984	69362.765625
1264.609375	69449.570313
1263.508789	69368.523438
1262.407227	69062.335938
1261.306641	69102.781250
1260.206055	68723.921875
1259.104492	68810.750000
1258.002930	68774.000000
1256.901367	68525.523438
1255.798828	68374.164063
1254.697266	68028.835938
1253.594727	68192.843750
1252.492188	68145.210938
1251.389648	68020.460938
1250.286133	67878.132813
1249.183594	67834.976563
1248.080078	67547.367188
1246.976563	67759.710938
1245.872070	68106.265625
1244.768555	67684.484375
1243.664063	66908.523438
1242.560547	68210.007813
1241.455078	67766.429688
1240.350586	68455.796875
1239.246094	68432.367188
1238.140625	68721.179688
1237.035156	68647.148438
1235.929688	68472.023438
1234.824219	67881.625000
1233.717773	68370.257813
1232.612305	68151.335938
1231.505859	68207.046875
1230.399414	67966.273438
1229.291992	67589.453125
1228.185547	68158.906250
1227.078125	67220.312500
1225.970703	67941.031250
1224.863281	67294.617188
1223.755859	67499.562500
1222.647461	67110.062500
1221.539063	67286.445313
1220.430664	66877.390625
1219.322266	66996.757813
1218.213867	66982.382813
1217.104492	66402.687500
1215.995117	66614.078125
1214.885742	66323.781250
1213.776367	66570.148438
1212.666992	66023.773438
1211.556641	66489.023438
1210.446289	66960.664063
1209.335938	66517.359375
1208.225586	66728.445313
1207.115234	67099.148438
1206.003906	66984.140625
1204.892578	67739.539063
1203.781250	67856.210938
1202.669922	68060.289063
1201.557617	67877.429688
1200.446289	68219.085938
1199.333984	68451.375000
1198.221680	68742.562500
1197.108398	69055.476563
1195.996094	69462.171875
1194.882813	69628.554688
1193.769531	69519.835938
1192.656250	69260.570313
1191.542969	69976.773438
1190.428711	69176.453125
1189.314453	69192.210938
1188.200195	68992.062500
1187.085938	68735.289063
1185.971680	68018.601563
1184.856445	68110.843750
1183.741211	68019.984375
1182.625977	67839.820313
1181.510742	68167.312500
1180.395508	68056.882813
1179.279297	68375.500000
1178.163086	67644.531250
1177.046875	67919.562500
1175.930664	68000.781250
1174.813477	67842.593750
1173.697266	67651.820313
1172.580078	67493.750000
1171.462891	67163.914063
1170.344727	68001.914063
1169.227539	67585.132813
1168.109375	67209.796875
1166.991211	67532.242188
1165.873047	67324.375000
1164.754883	67136.125000
1163.635742	67245.523438
1162.516602	67018.265625
1161.397461	66886.617188
1160.278320	67488.804688
1159.159180	67235.570313
1158.039063	67548.835938
1156.918945	67245.765625
1155.798828	67370.171875
1154.678711	66973.976563
1153.558594	66731.890625
1152.437500	67257.429688
1151.316406	66933.000000
1150.195313	66968.476563
1149.074219	67433.000000
1147.952148	67284.195313
1146.831055	67601.187500
1145.708984	67647.328125
1144.586914	67944.640625
1143.463867	68447.523438
1142.341797	68677.468750
1141.218750	69459.210938
1140.095703	69476.828125
1138.972656	70115.343750
1137.849609	69635.328125
1136.725586	70189.234375
1135.601563	70040.195313
1134.477539	70312.773438
1133.353516	69789.828125
1132.229492	70239.562500
1131.104492	69891.828125
1129.979492	69857.460938
1128.854492	69624.390625
1127.729492	69160.335938
1126.603516	69164.984375
1125.478516	69329.359375
1124.352539	69618.859375
1123.226563	69055.875000
1122.099609	68659.218750
1120.973633	68465.468750
1119.846680	68470.218750
1118.719727	68311.070313
1117.592773	68011.851563
1116.465820	68385.265625
1115.337891	67394.320313
1114.209961	67116.968750
1113.082031	67003.445313
1111.954102	67325.062500
1110.826172	66449.164063
1109.697266	67072.210938
1108.568359	67072.867188
1107.439453	66729.132813
1106.310547	67007.453125
1105.180664	66345.406250
1104.051758	66961.437500
1102.921875	67114.804688
1101.791992	67087.476563
1100.661133	67038.656250
1099.531250	67280.054688
1098.400391	67274.195313
1097.269531	66569.953125
1096.138672	66839.226563
1095.006836	67211.507813
1093.875977	67038.132813
1092.744141	67126.789063
1091.612305	66313.710938
1090.480469	66810.296875
1089.347656	66405.328125
1088.215820	65785.937500
1087.083008	66305.937500
1085.950195	65751.132813
1084.816406	66114.390625
1083.683594	65544.804688
1082.549805	66278.843750
1081.416016	66369.585938
1080.282227	66556.734375
1079.148438	66660.250000
1078.013672	66498.085938
1076.878906	66057.546875
1075.744141	65972.640625
1074.609375	66074.031250
1073.474609	65989.148438
1072.338867	66129.015625
1071.203125	66170.398438
1070.067383	66402.179688
1068.931641	65778.242188
1067.794922	65954.390625
1066.659180	66314.367188
1065.522461	65765.609375
1064.385742	65574.007813
1063.248047	65726.546875
1062.111328	65943.132813
1060.973633	65787.914063
1059.835938	65884.781250
1058.698242	65765.929688
1057.559570	65762.414063
1056.421875	65803.726563
1055.283203	65819.414063
1054.144531	65660.101563
1053.005859	65594.718750
1051.866211	66094.656250
1050.726563	66029.218750
1049.587891	66057.625000
1048.447266	66294.953125
1047.307617	66178.343750
1046.167969	66272.773438
1045.027344	66633.507813
1043.886719	66141.937500
1042.746094	66466.351563
1041.604492	66343.414063
1040.463867	66265.234375
1039.322266	66791.679688
1038.180664	65862.046875
1037.038086	65945.726563
1035.896484	66086.820313
1034.753906	66025.757813
1033.611328	66183.796875
1032.468750	65952.609375
1031.326172	66053.195313
1030.182617	65411.839844
1029.040039	66462.515625
1027.896484	65576.945313
1026.751953	66208.656250
1025.608398	65720.679688
1024.463867	65449.507813
1023.319336	65615.851563
1022.174805	65487.039063
1021.030273	66538.453125
1019.885742	66212.140625
1018.740234	66017.500000
1017.594727	66245.093750
1016.449219	66572.296875
1015.303711	66367.085938
1014.157227	66075.007813
1013.010742	66016.234375
1011.864258	66016.820313
1010.717773	65886.015625
1009.571289	65626.015625
1008.423828	65383.050781
1007.276367	65748.031250
1006.128906	65392.902344
1004.981445	65774.679688
1003.833008	66109.742188
1002.684570	66173.781250
1001.536133	66751.984375
1000.387695	67035.898438
999.239258	67161.062500
998.089844	67049.312500
996.941406	67413.359375
995.791992	67280.453125
994.641602	66910.867188
993.492188	67131.023438
992.341797	67148.257813
991.191406	66723.960938
990.041016	66766.601563
988.890625	67045.742188
987.739258	66801.156250
986.588867	66499.664063
985.437500	67008.742188
984.285156	66713.640625
983.133789	67429.250000
981.981445	66912.687500
980.829102	66600.890625
979.676758	66563.328125
978.524414	66698.648438
977.372070	66983.585938
976.218750	66653.023438
975.065430	67287.625000
973.912109	66567.382813
972.757813	66550.914063
971.604492	66926.148438
970.450195	67067.531250
969.295898	67198.328125
968.141602	67135.437500
966.986328	67396.640625
965.832031	66769.859375
964.676758	67660.007813
963.521484	67649.640625
962.365234	67578.304688
961.209961	67286.226563
960.053711	67799.343750
958.897461	67765.828125
957.741211	67963.468750
956.584961	68341.710938
955.427734	68003.539063
954.270508	68215.710938
953.113281	68243.039063
951.956055	67886.164063
950.797852	68117.125000
949.639648	67405.750000
948.481445	67122.656250
947.323242	67355.726563
946.165039	67066.445313
945.005859	66754.203125
943.847656	67079.453125
942.687500	67406.671875
941.528320	67306.210938
940.369141	66818.132813
939.208984	67226.914063
938.048828	67260.593750
936.888672	66802.101563
935.728516	66957.289063
934.567383	67240.125000
933.406250	67457.960938
932.245117	67305.304688
931.083984	67472.828125
929.922852	67196.781250
928.760742	67661.265625
927.598633	67688.507813
926.436523	67891.375000
925.274414	67671.882813
924.111328	68587.382813
922.948242	68296.789063
921.785156	68275.820313
920.622070	69098.781250
919.458984	68912.671875
918.294922	69206.898438
917.130859	69100.171875
915.966797	69062.359375
914.802734	69688.218750
913.637695	69867.312500
912.472656	69729.234375
911.307617	69797.703125
910.142578	69893.250000
908.977539	70491.257813
907.811523	70966.039063
906.645508	70784.101563
905.479492	70368.835938
904.313477	70664.187500
903.146484	70261.585938
901.980469	70538.101563
900.813477	69500.546875
899.646484	69791.664063
898.478516	69616.398438
897.311523	69393.328125
896.143555	69698.867188
894.975586	68932.859375
893.806641	69402.687500
892.638672	68609.984375
891.469727	68863.445313
890.300781	69175.015625
889.131836	69033.351563
887.962891	68725.492188
886.792969	68608.890625
885.623047	69333.656250
884.453125	69160.906250
883.283203	69472.062500
882.112305	69291.031250
880.942383	69734.890625
879.771484	69701.234375
878.600586	70267.273438
877.428711	70204.476563
876.257813	70280.679688
875.085938	70740.515625
873.914063	70758.531250
872.741211	71075.054688
871.569336	71770.781250
870.396484	71218.679688
869.223633	71153.695313
868.050781	71424.328125
866.877930	71723.851563
865.704102	71723.000000
864.530273	72492.343750
863.356445	72859.804688
862.182617	72498.609375
861.007813	73966.789063
859.833984	73717.234375
858.659180	74053.156250
857.484375	73524.476563
856.308594	73761.046875
855.133789	73610.937500
853.958008	72880.054688
852.782227	72583.421875
851.605469	72580.304688
850.429688	72736.250000
849.252930	73212.281250
848.076172	73215.234375
846.899414	72408.820313
845.722656	73229.382813
844.544922	73347.898438
843.367188	73470.492188
842.189453	73524.953125
841.011719	74218.859375
839.833008	74528.890625
838.655273	75535.765625
837.476563	75802.140625
836.296875	76478.601563
835.118164	77206.328125
833.938477	76547.078125
832.758789	76085.835938
831.579102	75377.593750
830.399414	74904.375000
829.219727	73937.179688
828.039063	72951.812500
826.858398	72701.585938
825.677734	71735.328125
824.496094	71785.796875
823.315430	71453.632813
822.133789	70389.414063
820.952148	70756.757813
819.769531	70063.125000
818.587891	69789.062500
817.405273	69476.054688
816.222656	69350.148438
815.040039	69587.906250
813.856445	69205.265625
812.673828	68987.054688
811.490234	68912.640625
810.305664	68762.304688
809.122070	69090.242188
807.938477	69210.796875
806.753906	69692.398438
805.569336	69295.859375
804.383789	70386.390625
803.199219	69600.250000
802.013672	69306.445313
800.828125	69080.390625
799.642578	69001.968750
798.457031	68440.007813
797.270508	68064.671875
796.083984	68033.585938
794.897461	67377.906250
793.710938	67234.335938
792.523438	67049.882813
791.336914	66836.835938
790.149414	66750.734375
788.961914	66924.515625
787.773438	66351.570313
786.585938	66553.984375
785.397461	66104.007813
784.208984	66467.898438
783.019531	66345.148438
781.831055	66394.125000
780.641602	65789.210938
779.452148	65123.222656
778.262695	65772.906250
777.072266	65591.164063
775.882813	65082.800781
774.692383	65517.765625
773.501953	65568.843750
772.310547	65275.031250
771.120117	65422.027344
769.928711	65638.320313
768.737305	65442.542969
767.544922	65764.781250
766.353516	65634.296875
765.161133	66070.523438
763.968750	66266.101563
762.776367	66100.937500
761.583984	66463.484375
760.390625	66658.875000
759.197266	67135.218750
758.003906	67601.203125
756.810547	67415.578125
755.616211	68009.554688
754.421875	67956.187500
753.227539	67497.953125
752.033203	67733.554688
750.838867	67497.210938
749.643555	66933.570313
748.448242	67183.367188
747.252930	67020.421875
746.057617	66999.804688
744.861328	66066.843750
743.665039	66026.093750
742.468750	65910.195313
741.272461	65642.023438
740.075195	65664.304688
738.878906	65032.898438
737.681641	64884.785156
736.484375	65256.226563
735.286133	64684.078125
734.087891	64951.957031
732.890625	64789.757813
731.691406	65057.511719
730.493164	64431.074219
729.294922	63904.187500
728.095703	64621.863281
726.896484	64358.550781
725.696289	64287.796875
724.497070	64308.210938
723.296875	64369.117188
722.096680	64255.867188
720.896484	63948.316406
719.696289	64339.164063
718.495117	63989.210938
717.293945	63855.871094
716.092773	63376.667969
714.891602	64396.312500
713.689453	63506.691406
712.487305	64305.554688
711.285156	64247.058594
710.083008	64471.519531
708.880859	64324.101563
707.677734	64811.085938
706.474609	64219.285156
705.271484	64790.921875
704.068359	64605.179688
702.864258	64482.082031
701.660156	64740.496094
700.456055	63878.839844
699.251953	64155.421875
698.046875	63802.527344
696.841797	63978.171875
695.636719	64389.675781
694.431641	64700.218750
693.226563	64335.378906
692.020508	64220.574219
690.814453	63731.027344
689.608398	64087.781250
688.402344	63781.730469
687.195313	63822.167969
685.988281	63834.398438
684.781250	63764.082031
683.574219	63736.058594
682.366211	63583.281250
681.158203	63726.312500
679.950195	63302.023438
678.742188	63801.027344
677.534180	63680.511719
676.325195	63948.050781
675.116211	64072.773438
673.907227	63940.207031
672.697266	64458.703125
671.488281	64046.867188
670.278320	63972.621094
669.068359	63988.765625
667.858398	63880.414063
666.647461	63487.050781
665.436523	63631.718750
664.225586	63047.906250
663.014648	63509.593750
661.802734	63002.242188
660.591797	62763.820313
659.379883	63207.246094
658.167969	63105.195313
656.955078	63079.351563
655.743164	63322.054688
654.530273	63189.976563
653.317383	63338.406250
652.103516	63130.257813
650.890625	63348.730469
649.676758	64057.648438
648.462891	63847.468750
647.249023	63929.578125
646.034180	64557.937500
644.819336	65328.109375
643.604492	65265.859375
642.389648	66153.601563
641.174805	65747.289063
639.958984	65964.875000
638.743164	65412.835938
637.527344	64918.957031
636.311523	64692.996094
635.094727	64698.847656
633.877930	64385.128906
632.661133	64389.031250
631.444336	63756.031250
630.226563	63520.507813
629.008789	63346.937500
627.791016	62880.097656
626.573242	63145.621094
625.355469	62940.292969
624.136719	62766.949219
622.917969	62990.460938
621.699219	63185.976563
620.480469	63325.605469
619.260742	63600.691406
618.041016	63212.187500
616.821289	63451.328125
615.601563	63564.898438
614.380859	63439.464844
613.160156	62742.675781
611.939453	62858.296875
610.718750	62739.027344
609.497070	62872.511719
608.276367	63071.589844
607.054688	62896.644531
605.832031	62988.250000
604.610352	62906.832031
603.387695	62614.718750
602.165039	62565.199219
600.942383	62936.980469
599.719727	62237.714844
598.496094	63201.382813
597.272461	62635.394531
596.048828	62766.597656
594.825195	62709.144531
593.600586	62401.605469
592.375977	62556.589844
591.151367	62628.171875
589.926758	62453.730469
588.701172	62124.636719
587.476563	62463.972656
586.250977	61879.222656
585.024414	62436.531250
583.798828	62141.375000
582.572266	62767.773438
581.345703	62086.312500
580.119141	62393.562500
578.892578	62419.460938
577.665039	62189.914063
576.437500	62530.617188
575.209961	62443.640625
573.982422	62641.675781
572.753906	62685.296875
571.525391	62691.312500
570.296875	62252.292969
569.068359	62325.617188
567.838867	62602.558594
566.610352	62209.261719
565.380859	62590.863281
564.150391	62223.402344
562.920898	62114.886719
561.690430	62395.542969
560.459961	62146.808594
559.229492	62103.519531
557.999023	62385.984375
556.767578	62230.156250
555.536133	62202.652344
554.304688	62532.285156
553.073242	62165.425781
551.840820	62252.339844
550.608398	61958.628906
549.375977	61958.792969
548.143555	61976.695313
546.910156	62104.953125
545.676758	62114.929688
544.443359	62109.140625
543.209961	61914.261719
541.975586	61810.039063
540.742188	62170.531250
539.507813	62245.437500
538.272461	62196.312500
537.038086	62096.042969
535.802734	62767.062500
534.567383	62778.839844
533.332031	62481.828125
532.096680	62175.097656
530.860352	62552.648438
529.624023	63071.582031
528.387695	62739.351563
527.151367	63301.277344
525.914063	63493.652344
524.676758	62921.898438
523.439453	62968.945313
522.202148	63200.539063
520.963867	62585.960938
519.725586	62566.308594
518.487305	62295.484375
517.249023	62389.679688
516.009766	61909.097656
514.771484	62370.066406
513.532227	62101.433594
512.291992	62519.054688
511.052734	62107.402344
509.812500	62003.578125
508.572266	61864.519531
507.332031	62164.320313
506.090820	62379.789063
504.850586	62371.933594
503.609375	61790.417969
502.368164	62638.097656
501.125977	62501.019531
499.884766	62142.871094
498.642578	62631.976563
497.400391	62270.023438
496.157227	62760.867188
494.915039	62631.699219
493.671875	62185.878906
492.428711	62367.636719
491.184570	62711.515625
489.941406	63037.679688
488.697266	62597.968750
487.453125	62467.007813
486.208984	62791.070313
484.963867	62644.496094
483.718750	62585.812500
482.473633	63212.156250
481.228516	63049.968750
479.982422	63155.101563
478.737305	63061.246094
477.491211	63860.578125
476.244141	63468.304688
474.998047	64171.730469
473.750977	63791.234375
472.503906	64340.386719
471.256836	64053.511719
470.009766	64232.296875
468.761719	64099.402344
467.513672	63962.664063
466.265625	63561.207031
465.017578	64419.242188
463.768555	64654.207031
462.519531	65155.640625
461.270508	64956.562500
460.021484	65399.398438
458.771484	65285.906250
457.521484	65806.273438
456.271484	65568.328125
455.021484	66067.062500
453.770508	66108.968750
452.519531	66148.906250
451.268555	66499.617188
450.017578	67166.734375
448.765625	67421.968750
447.514648	67560.625000
446.262695	68564.875000
445.009766	68598.468750
443.757813	69101.570313
442.504883	69305.742188
441.251953	69424.500000
439.999023	68653.171875
438.745117	67953.867188
437.492188	67574.648438
436.238281	66637.429688
434.983398	66080.335938
433.729492	65819.851563
432.474609	65263.121094
431.219727	64367.703125
429.964844	64101.871094
428.709961	64163.285156
427.454102	64185.964844
426.198242	63589.414063
424.942383	63666.359375
423.685547	63516.953125
422.429688	63472.039063
421.172852	63442.601563
419.916016	62682.421875
418.658203	63482.332031
417.401367	63408.457031
416.143555	63367.453125
414.885742	63426.910156
413.626953	63523.039063
412.369141	63051.410156
411.110352	63570.378906
409.851563	63652.902344
408.591797	63584.859375
407.333008	63574.726563
406.073242	63836.609375
404.813477	63456.093750
403.553711	63405.484375
402.292969	63217.996094
401.032227	63339.011719
