#Wave		#Intensity
2001.110352	39770.074219
2000.140625	39546.996094
1999.170898	39497.492188
1998.201172	40129.523438
1997.231445	39856.968750
1996.261719	40290.839844
1995.291016	39705.320313
1994.320313	40011.367188
1993.349609	39751.535156
1992.378906	39679.515625
1991.408203	39652.566406
1990.436523	39452.980469
1989.464844	40101.523438
1988.494141	39889.421875
1987.522461	40157.539063
1986.549805	40383.058594
1985.578125	39936.019531
1984.606445	40176.492188
1983.633789	39907.074219
1982.661133	39717.703125
1981.688477	39788.207031
1980.715820	40303.281250
1979.742188	40098.953125
1978.769531	39597.566406
1977.795898	39827.808594
1976.822266	39843.312500
1975.848633	40113.351563
1974.875000	40266.031250
1973.900391	39562.976563
1972.925781	40107.289063
1971.952148	40185.066406
1970.977539	40170.562500
1970.002930	40450.226563
1969.027344	40470.570313
1968.052734	40249.179688
1967.077148	40182.343750
1966.101563	39784.199219
1965.125977	40574.285156
1964.150391	40482.519531
1963.174805	40062.117188
1962.198242	40662.535156
1961.221680	40142.687500
1960.245117	40434.296875
1959.268555	40509.332031
1958.291992	40564.437500
1957.315430	40171.816406
1956.337891	40512.945313
1955.360352	40657.527344
1954.382813	40376.957031
1953.405273	40166.082031
1952.427734	40613.824219
1951.449219	40912.328125
1950.471680	40544.957031
1949.493164	40617.343750
1948.514648	40649.968750
1947.536133	41305.792969
1946.556641	40720.144531
1945.578125	40412.691406
1944.598633	40631.441406
1943.619141	40465.535156
1942.639648	40666.832031
1941.660156	40813.492188
1940.680664	40719.550781
1939.700195	40489.273438
1938.719727	40663.148438
1937.739258	40574.238281
1936.758789	40790.164063
1935.778320	40324.644531
1934.797852	40914.605469
1933.816406	40877.718750
1932.834961	40766.546875
1931.853516	41007.003906
1930.872070	40487.386719
1929.890625	40665.925781
1928.908203	40940.914063
1927.925781	40864.460938
1926.944336	40921.621094
1925.960938	40590.441406
1924.978516	41035.875000
1923.996094	40944.621094
1923.012695	40979.468750
1922.030273	40940.156250
1921.046875	41197.402344
1920.062500	40597.195313
1919.079102	40577.730469
1918.095703	40926.281250
1917.111328	40803.042969
1916.126953	40825.519531
1915.142578	40924.511719
1914.158203	41114.789063
1913.173828	41201.355469
1912.188477	40752.484375
1911.204102	40930.355469
1910.218750	41285.742188
1909.233398	40970.253906
1908.247070	41303.316406
1907.261719	40906.582031
1906.275391	41005.386719
1905.290039	41150.980469
1904.303711	41237.390625
1903.317383	41087.277344
1902.330078	41131.792969
1901.343750	41365.906250
1900.356445	41206.000000
1899.369141	41070.761719
1898.381836	41245.687500
1897.394531	41004.671875
1896.407227	41174.625000
1895.418945	41664.312500
1894.431641	41211.824219
1893.443359	41312.792969
1892.455078	41725.972656
1891.466797	41327.789063
1890.477539	41713.785156
1889.489258	41708.917969
1888.500000	41261.804688
1887.510742	41510.039063
1886.521484	41959.578125
1885.531250	41473.363281
1884.541992	41760.707031
1883.551758	42020.945313
1882.561523	42003.746094
1881.571289	41831.957031
1880.581055	41731.378906
1879.590820	41988.980469
1878.599609	42001.226563
1877.608398	41635.828125
1876.618164	41751.105469
1875.625977	41851.628906
1874.634766	42292.792969
1873.643555	42559.816406
1872.651367	42412.683594
1871.659180	42096.582031
1870.666992	42135.718750
1869.674805	42431.960938
1868.682617	42390.226563
1867.689453	42593.296875
1866.697266	42669.023438
1865.704102	42480.445313
1864.710938	42879.113281
1863.717773	42350.542969
1862.723633	42230.593750
1861.730469	42455.476563
1860.736328	42633.824219
1859.742188	42902.550781
1858.748047	42371.988281
1857.752930	42476.941406
1856.758789	42811.515625
1855.763672	42645.210938
1854.768555	42388.597656
1853.773438	42605.792969
1852.778320	42429.843750
1851.783203	42881.289063
1850.787109	42942.085938
1849.791016	42790.562500
1848.795898	43458.839844
1847.798828	43487.785156
1846.802734	43119.179688
1845.806641	42914.082031
1844.809570	43450.207031
1843.812500	43515.687500
1842.815430	43174.140625
1841.818359	43519.871094
1840.821289	43507.339844
1839.823242	43711.601563
1838.826172	43365.382813
1837.828125	44024.945313
1836.830078	43963.632813
1835.831055	43977.800781
1834.833008	43653.675781
1833.833984	43689.792969
1832.834961	43995.941406
1831.835938	44000.355469
1830.836914	44440.097656
1829.837891	43938.664063
1828.837891	44237.250000
1827.838867	44000.972656
1826.838867	44260.558594
1825.838867	44357.246094
1824.838867	44434.464844
1823.837891	44458.214844
1822.837891	44467.386719
1821.836914	44498.402344
1820.835938	44425.015625
1819.834961	44890.511719
1818.833008	44642.343750
1817.832031	44513.156250
1816.830078	44532.000000
1815.828125	44482.917969
1814.826172	44797.625000
1813.824219	45180.113281
1812.822266	45080.027344
1811.819336	45440.515625
1810.816406	45318.601563
1809.813477	45359.074219
1808.810547	46034.253906
1807.807617	45684.613281
1806.803711	45603.906250
1805.800781	45491.750000
1804.796875	45478.886719
1803.792969	45378.890625
1802.789063	45823.437500
1801.784180	46207.335938
1800.780273	46215.621094
1799.775391	46223.914063
1798.770508	46232.210938
1797.765625	46240.503906
1796.760742	46248.796875
1795.754883	46264.812500
1794.749023	46097.152344
1793.744141	46142.179688
1792.738281	46426.347656
1791.731445	46191.113281
1790.725586	46337.519531
1789.718750	46153.085938
1788.712891	46412.902344
1787.706055	46580.910156
1786.699219	46321.714844
1785.691406	46410.050781
1784.684570	46544.191406
1783.676758	46753.050781
1782.668945	46677.277344
1781.661133	46886.035156
1780.653320	46846.417969
1779.645508	46811.636719
1778.636719	46991.339844
1777.627930	46968.585938
1776.619141	46849.480469
1775.610352	46528.097656
1774.601563	46830.531250
1773.591797	47224.343750
1772.583008	47021.015625
1771.573242	46998.269531
1770.563477	47042.910156
1769.553711	47722.714844
1768.542969	47064.785156
1767.533203	47414.835938
1766.522461	47740.714844
1765.511719	47749.109375
1764.500977	47901.734375
1763.489258	47713.011719
1762.478516	47964.105469
1761.466797	47758.621094
1760.455078	48160.949219
1759.443359	47835.410156
1758.431641	48324.027344
1757.419922	47988.968750
1756.407227	48261.339844
1755.394531	48612.816406
1754.381836	48832.187500
1753.369141	48634.019531
1752.356445	49057.199219
1751.342773	49005.355469
1750.330078	49339.593750
1749.316406	49023.992188
1748.302734	49386.871094
1747.288086	49342.187500
1746.274414	49568.292969
1745.259766	49640.984375
1744.246094	49665.738281
1743.231445	49934.769531
1742.215820	49763.109375
1741.201172	49864.437500
1740.186523	49771.835938
1739.170898	50265.617188
1738.155273	50335.687500
1737.139648	50432.046875
1736.124023	50640.796875
1735.107422	50976.222656
1734.090820	51457.386719
1733.075195	52091.382813
1732.058594	51816.843750
1731.041016	51778.992188
1730.024414	52111.519531
1729.007813	52549.046875
1727.990234	52723.667969
1726.972656	52988.976563
1725.955078	53153.902344
1724.936523	53731.777344
1723.918945	53968.117188
1722.900391	54018.222656
1721.881836	54822.308594
1720.863281	54757.730469
1719.844727	54841.058594
1718.826172	55162.835938
1717.806641	55179.292969
1716.787109	55064.628906
1715.767578	55517.281250
1714.748047	55681.414063
1713.728516	55597.687500
1712.708008	55957.089844
1711.688477	55608.957031
1710.667969	55627.679688
1709.647461	55729.734375
1708.626953	55867.453125
1707.605469	55731.406250
1706.583984	55814.339844
1705.563477	55364.277344
1704.541992	55463.894531
1703.519531	55420.765625
1702.498047	55594.054688
1701.476563	55767.277344
1700.454102	55493.523438
1699.431641	55162.820313
1698.409180	55499.992188
1697.385742	54829.640625
1696.363281	55216.628906
1695.339844	54962.207031
1694.316406	54805.230469
1693.292969	54945.089844
1692.269531	54935.347656
1691.246094	55272.125000
1690.221680	55195.878906
1689.197266	55262.011719
1688.172852	55508.402344
1687.148438	55434.519531
1686.124023	55372.515625
1685.098633	55376.917969
1684.074219	55784.296875
1683.048828	55731.742188
1682.023438	55560.718750
1680.997070	55650.367188
1679.971680	55721.031250
1678.945313	56059.292969
1677.918945	56364.281250
1676.892578	56276.148438
1675.866211	56403.453125
1674.839844	56331.910156
1673.812500	56901.648438
1672.785156	56153.402344
1671.758789	56633.078125
1670.730469	56497.679688
1669.703125	56672.085938
1668.675781	56487.074219
1667.647461	56895.429688
1666.619141	56968.042969
1665.590820	57780.218750
1664.562500	57569.148438
1663.533203	57454.992188
1662.504883	58035.199219
1661.475586	57557.371094
1660.446289	57403.136719
1659.416992	58089.253906
1658.386719	57880.699219
1657.357422	58063.898438
1656.327148	57966.296875
1655.296875	58300.371094
1654.266602	58403.210938
1653.235352	59340.699219
1652.205078	58813.871094
1651.173828	58508.789063
1650.142578	59134.679688
1649.111328	58886.191406
1648.080078	59391.644531
1647.048828	59291.582031
1646.016602	58812.410156
1644.984375	59932.128906
1643.952148	59695.480469
1642.919922	59986.136719
1641.886719	59994.300781
1640.854492	60548.316406
1639.821289	60575.191406
1638.788086	60787.859375
1637.754883	60880.519531
1636.721680	61022.519531
1635.687500	61778.015625
1634.653320	61971.507813
1633.620117	62493.917969
1632.584961	61479.562500
1631.550781	62194.496094
1630.516602	62653.164063
1629.481445	63170.375000
1628.446289	62748.265625
1627.411133	63265.269531
1626.375977	63547.386719
1625.340820	64237.707031
1624.304688	64463.238281
1623.268555	64885.730469
1622.232422	65399.539063
1621.196289	66107.789063
1620.160156	67097.117188
1619.123047	67167.218750
1618.086914	69180.187500
1617.049805	70168.437500
1616.012695	72053.632813
1614.974609	73230.750000
1613.937500	75049.148438
1612.899414	76131.640625
1611.861328	77993.351563
1610.823242	78185.445313
1609.785156	78777.671875
1608.747070	78400.953125
1607.708008	77598.578125
1606.668945	76745.031250
1605.629883	74970.351563
1604.590820	73710.710938
1603.551758	73215.992188
1602.511719	71758.429688
1601.471680	71030.523438
1600.431641	69938.367188
1599.391602	69542.781250
1598.351563	68897.398438
1597.310547	68574.523438
1596.270508	68620.679688
1595.229492	68339.976563
1594.188477	67377.828125
1593.146484	67270.140625
1592.105469	67500.804688
1591.063477	66952.226563
1590.021484	66865.648438
1588.979492	66522.585938
1587.937500	66701.914063
1586.895508	67165.578125
1585.852539	66845.945313
1584.809570	66402.914063
1583.766602	66805.796875
1582.723633	66840.476563
1581.680664	66772.656250
1580.636719	67387.156250
1579.593750	66779.101563
1578.549805	67598.234375
1577.504883	67306.882813
1576.460938	67394.937500
1575.416992	67794.718750
1574.372070	68189.703125
1573.327148	68163.585938
1572.282227	68869.953125
1571.237305	69013.437500
1570.191406	68956.953125
1569.146484	68626.250000
1568.100586	68455.984375
1567.054688	67897.796875
1566.007813	67876.390625
1564.961914	67632.031250
1563.915039	67373.820313
1562.869141	67317.679688
1561.822266	66620.906250
1560.774414	66936.242188
1559.727539	67084.398438
1558.679688	66448.351563
1557.632813	66246.281250
1556.584961	67057.742188
1555.537109	66626.078125
1554.488281	67038.429688
1553.440430	66368.171875
1552.391602	66926.421875
1551.342773	67187.875000
1550.293945	66714.859375
1549.245117	65950.164063
1548.195313	66123.648438
1547.146484	66401.265625
1546.096680	66000.476563
1545.046875	65548.914063
1543.996094	65639.023438
1542.946289	65613.414063
1541.895508	65402.738281
1540.844727	65071.867188
1539.793945	65499.613281
1538.743164	64664.796875
1537.692383	65247.339844
1536.640625	65263.414063
1535.588867	64734.113281
1534.537109	64565.429688
1533.485352	64309.019531
1532.433594	64260.566406
1531.380859	63992.753906
1530.329102	63988.238281
1529.276367	63632.847656
1528.222656	63522.222656
1527.169922	62989.355469
1526.117188	62862.730469
1525.063477	63075.238281
1524.009766	62741.070313
1522.956055	62464.667969
1521.902344	62582.601563
1520.847656	62055.066406
1519.792969	62433.453125
1518.738281	62254.070313
1517.683594	62093.179688
1516.628906	61969.199219
1515.574219	62128.535156
1514.518555	61748.996094
1513.462891	61652.765625
1512.407227	62012.316406
1511.351563	61893.050781
1510.294922	61447.089844
1509.239258	61571.820313
1508.182617	61864.417969
1507.125977	61894.734375
1506.069336	61941.136719
1505.011719	62500.171875
1503.955078	62408.531250
1502.897461	62199.722656
1501.839844	62158.710938
1500.782227	61927.042969
1499.724609	61690.863281
1498.666016	61902.566406
1497.607422	61723.867188
1496.548828	61689.855469
1495.490234	62041.441406
1494.431641	61419.914063
1493.372070	61686.531250
1492.313477	61563.074219
1491.253906	61042.871094
1490.194336	60678.789063
1489.133789	60874.261719
1488.074219	60491.996094
1487.013672	60467.402344
1485.953125	60319.074219
1484.892578	60645.050781
1483.832031	60132.523438
1482.770508	60575.214844
1481.709961	59996.472656
1480.648438	59759.062500
1479.586914	59897.132813
1478.524414	60286.902344
1477.462891	59903.113281
1476.400391	59784.843750
1475.337891	59888.492188
1474.275391	60062.996094
1473.212891	60084.234375
1472.150391	60242.632813
1471.086914	60179.257813
1470.023438	60323.863281
1468.959961	60664.921875
1467.896484	60448.429688
1466.833008	60702.542969
1465.768555	60568.332031
1464.704102	60915.937500
1463.639648	60555.726563
1462.575195	60512.906250
1461.510742	61344.125000
1460.445313	61369.621094
1459.379883	61112.234375
1458.314453	61379.527344
1457.249023	60663.855469
1456.183594	61391.691406
1455.117188	61321.398438
1454.051758	61577.054688
1452.985352	61260.644531
1451.917969	61315.714844
1450.851563	61197.640625
1449.785156	61464.515625
1448.717773	61731.289063
1447.650391	61369.582031
1446.583008	61611.234375
1445.514648	61893.761719
1444.447266	61934.980469
1443.378906	62604.109375
1442.310547	62197.066406
1441.242188	62483.824219
1440.173828	62513.527344
1439.104492	63025.195313
1438.036133	63257.085938
1436.966797	63379.808594
1435.897461	63154.824219
1434.827148	62859.496094
1433.757813	63545.527344
1432.687500	63704.433594
1431.617188	63890.527344
1430.546875	64778.042969
1429.476563	64135.394531
1428.406250	64661.707031
1427.334961	64488.984375
1426.263672	64829.019531
1425.192383	64869.531250
1424.121094	65665.187500
1423.048828	64796.320313
1421.977539	64671.320313
1420.905273	64451.167969
1419.833008	64738.703125
1418.759766	64670.417969
1417.687500	64312.191406
1416.614258	64146.609375
1415.541992	64277.734375
1414.468750	64716.722656
1413.394531	63826.769531
1412.321289	64059.718750
1411.247070	63883.003906
1410.172852	63477.839844
1409.098633	63276.402344
1408.024414	63475.347656
1406.950195	63902.605469
1405.875000	64241.531250
1404.799805	63762.062500
1403.724609	63748.324219
1402.649414	64480.257813
1401.574219	64597.425781
1400.498047	63779.406250
1399.421875	63898.906250
1398.345703	64074.816406
1397.269531	63860.093750
1396.193359	64162.339844
1395.116211	64056.003906
1394.039063	64649.167969
1392.961914	64481.863281
1391.884766	64851.437500
1390.807617	64941.238281
1389.729492	65123.445313
1388.651367	65639.226563
1387.573242	65960.976563
1386.495117	66142.898438
1385.416992	66354.039063
1384.337891	66164.117188
1383.258789	66699.500000
1382.179688	66847.367188
1381.100586	67087.484375
1380.021484	67296.000000
1378.941406	67110.570313
1377.861328	67514.773438
1376.781250	67491.351563
1375.701172	67290.226563
1374.621094	67424.289063
1373.540039	67036.609375
1372.458984	66705.273438
1371.377930	66556.125000
1370.296875	66265.437500
1369.215820	66372.585938
1368.133789	66093.265625
1367.051758	66236.335938
1365.969727	65211.527344
1364.887695	65017.886719
1363.805664	65857.015625
1362.722656	65117.886719
1361.639648	65227.324219
1360.556641	65188.628906
1359.473633	65495.429688
1358.390625	64606.609375
1357.306641	65041.218750
1356.223633	64410.644531
1355.139648	64645.617188
1354.054688	64143.089844
1352.970703	64664.859375
1351.885742	63913.808594
1350.801758	63288.472656
1349.716797	63928.812500
1348.630859	63408.941406
1347.545898	63334.804688
1346.459961	63600.945313
1345.375000	63432.792969
1344.289063	63381.062500
1343.202148	63286.835938
1342.116211	63121.058594
1341.029297	62662.359375
1339.943359	63395.664063
1338.856445	63724.039063
1337.768555	63120.175781
1336.681641	63162.410156
1335.593750	63582.253906
1334.506836	63530.554688
1333.418945	63291.242188
1332.330078	63295.437500
1331.242188	63694.847656
1330.153320	63047.085938
1329.065430	63850.394531
1327.976563	63970.523438
1326.886719	63483.703125
1325.797852	63889.398438
1324.708008	64196.804688
1323.619141	64269.941406
1322.529297	64004.144531
1321.438477	64844.144531
1320.348633	64353.218750
1319.257813	64747.160156
1318.167969	65247.898438
1317.076172	64997.746094
1315.985352	64968.171875
1314.894531	65323.847656
1313.802734	65405.542969
1312.710938	65222.312500
1311.619141	65644.507813
1310.527344	65218.742188
1309.435547	65460.574219
1308.342773	65519.914063
1307.250000	65917.273438
1306.157227	65542.898438
1305.064453	65041.937500
1303.970703	64790.105469
1302.877930	65778.460938
1301.784180	65906.539063
1300.690430	65787.976563
1299.596680	65300.734375
1298.501953	65608.710938
1297.407227	65763.359375
1296.313477	65882.437500
1295.217773	66199.007813
1294.123047	66393.406250
1293.028320	66800.734375
1291.932617	66615.601563
1290.836914	67016.085938
1289.741211	66864.242188
1288.645508	66956.343750
1287.548828	66186.078125
1286.453125	66557.523438
1285.356445	66228.585938
1284.259766	66003.890625
1283.162109	65894.468750
1282.065430	65973.335938
1280.967773	65166.429688
1279.870117	65209.972656
1278.772461	65094.117188
1277.674805	64801.253906
1276.576172	64200.917969
1275.477539	65107.410156
1274.378906	64221.886719
1273.280273	64055.437500
1272.181641	63831.558594
1271.082031	63596.703125
1269.983398	63076.792969
1268.883789	63498.507813
1267.783203	63425.128906
1266.683594	63247.941406
1265.583984	62611.398438
1264.483398	62582.378906
1263.382813	62495.960938
1262.282227	62078.437500
1261.180664	62508.609375
1260.080078	63026.890625
1258.978516	62541.093750
1257.876953	62119.445313
1256.775391	61331.824219
1255.672852	61609.570313
1254.571289	61247.839844
1253.468750	61380.007813
1252.366211	61523.148438
1251.262695	60820.070313
1250.160156	61181.367188
1249.056641	60879.500000
1247.953125	60877.261719
1246.849609	60745.105469
1245.746094	60630.605469
1244.642578	60593.187500
1243.538086	60982.722656
1242.433594	60516.179688
1241.329102	60830.789063
1240.224609	60137.882813
1239.119141	60137.960938
1238.014648	60562.390625
1236.909180	60287.593750
1235.803711	60122.789063
1234.697266	59892.113281
1233.591797	59980.105469
1232.485352	60347.054688
1231.378906	60083.511719
1230.272461	60470.066406
1229.166016	60136.332031
1228.058594	59859.792969
1226.951172	59952.070313
1225.843750	59585.691406
1224.736328	59704.308594
1223.628906	59879.914063
1222.520508	59687.000000
1221.412109	59603.789063
1220.303711	59397.835938
1219.195313	59424.304688
1218.086914	59277.625000
1216.977539	59396.128906
1215.868164	59129.007813
1214.758789	59267.207031
1213.649414	59298.039063
1212.540039	59326.671875
1211.429688	59110.097656
1210.319336	59880.746094
1209.208984	59524.089844
1208.098633	59346.980469
1206.987305	59872.144531
1205.876953	60040.605469
1204.765625	60034.058594
1203.654297	59861.343750
1202.542969	60125.890625
1201.430664	59472.382813
1200.318359	60005.679688
1199.206055	60136.773438
1198.093750	60051.562500
1196.981445	60309.265625
1195.868164	60481.714844
1194.755859	60361.546875
1193.642578	60455.335938
1192.528320	60516.351563
1191.415039	60784.636719
1190.301758	60834.656250
1189.187500	60773.414063
1188.073242	60400.332031
1186.958984	60249.785156
1185.843750	60310.757813
1184.729492	60853.402344
1183.614258	60042.539063
1182.499023	60001.101563
1181.382813	59713.511719
1180.267578	59789.757813
1179.151367	59955.257813
1178.035156	59702.660156
1176.918945	59800.628906
1175.802734	59315.265625
1174.686523	59559.058594
1173.569336	59339.339844
1172.452148	59863.648438
1171.334961	59778.792969
1170.217773	59228.628906
1169.099609	59128.695313
1167.981445	59404.847656
1166.863281	59509.207031
1165.745117	59583.101563
1164.626953	59346.300781
1163.507813	59159.542969
1162.388672	59398.503906
1161.269531	59018.550781
1160.150391	59142.386719
1159.031250	59155.480469
1157.911133	58630.371094
1156.791016	58830.144531
1155.670898	58528.722656
1154.550781	58784.828125
1153.430664	58474.847656
1152.309570	58704.847656
1151.188477	58277.929688
1150.067383	58338.820313
1148.946289	58646.722656
1147.824219	59461.484375
1146.702148	59127.875000
1145.580078	58820.375000
1144.458008	59160.433594
1143.335938	59939.859375
1142.212891	60151.875000
1141.090820	60121.417969
1139.967773	60116.937500
1138.844727	60590.566406
1137.720703	60523.269531
1136.597656	60998.808594
1135.473633	60401.710938
1134.349609	60407.976563
1133.224609	60349.394531
1132.100586	59932.101563
1130.975586	59733.179688
1129.850586	59573.214844
1128.725586	59389.546875
1127.600586	59879.695313
1126.475586	59555.695313
1125.349609	58940.386719
1124.223633	58916.671875
1123.097656	58955.539063
1121.971680	58571.523438
1120.844727	58394.726563
1119.717773	58073.492188
1118.590820	57553.992188
1117.463867	57752.597656
1116.336914	57791.621094
1115.208984	57160.382813
1114.081055	56688.824219
1112.953125	57150.261719
1111.825195	56894.265625
1110.697266	57002.312500
1109.568359	57022.035156
1108.439453	56884.597656
1107.310547	56975.359375
1106.181641	56403.273438
1105.051758	56653.300781
1103.921875	56623.582031
1102.791992	56434.710938
1101.662109	56381.382813
1100.532227	56648.421875
1099.401367	56577.871094
1098.271484	56496.597656
1097.140625	56797.843750
1096.008789	56347.023438
1094.877930	56371.082031
1093.746094	56111.640625
1092.615234	56339.718750
1091.483398	55964.441406
1090.350586	56246.121094
1089.218750	56167.152344
1088.085938	55802.835938
1086.953125	55631.726563
1085.820313	55812.437500
1084.687500	55480.546875
1083.553711	55558.300781
1082.419922	55286.593750
1081.287109	55925.902344
1080.152344	55810.656250
1079.018555	55665.457031
1077.883789	55509.597656
1076.750000	55887.089844
1075.615234	55971.078125
1074.479492	56378.316406
1073.344727	55263.449219
1072.208984	56199.289063
1071.073242	56002.832031
1069.937500	55892.023438
1068.801758	55717.078125
1067.665039	55773.167969
1066.529297	55688.109375
1065.392578	56238.019531
1064.255859	55774.574219
1063.118164	55975.921875
1061.981445	55749.859375
1060.843750	56102.808594
1059.706055	55633.312500
1058.568359	55712.804688
1057.429688	56121.070313
1056.291992	56275.156250
1055.153320	56209.347656
1054.014648	56004.851563
1052.875000	55964.714844
1051.736328	56020.578125
1050.596680	56057.226563
1049.457031	56315.625000
1048.317383	56616.562500
1047.177734	56657.335938
1046.037109	56565.960938
1044.896484	56576.890625
1043.755859	56860.507813
1042.615234	56611.515625
1041.474609	56780.019531
1040.333008	56565.195313
1039.191406	56350.445313
1038.049805	56308.179688
1036.908203	56565.980469
1035.765625	56627.941406
1034.624023	56843.039063
1033.481445	56815.589844
1032.337891	55860.996094
1031.195313	56665.042969
1030.051758	56012.671875
1028.909180	56516.718750
1027.765625	56565.839844
1026.621094	56141.167969
1025.477539	56164.843750
1024.333008	55455.812500
1023.188477	56768.492188
1022.043945	56027.757813
1020.899414	56093.882813
1019.754883	56297.921875
1018.609375	56427.621094
1017.463867	56266.632813
1016.318359	56247.812500
1015.171875	55925.742188
1014.026367	56294.996094
1012.879883	56350.367188
1011.733398	56204.363281
1010.586914	56367.800781
1009.439453	56469.734375
1008.292969	55927.660156
1007.145508	56095.285156
1005.998047	56434.367188
1004.849609	56335.074219
1003.702148	56790.402344
1002.553711	56597.957031
1001.405273	57139.820313
1000.256836	57469.921875
999.107422	57658.183594
997.958984	57372.656250
996.809570	57696.183594
995.660156	57440.343750
994.510742	57546.031250
993.360352	57660.128906
992.209961	57229.062500
991.060547	57668.492188
989.909180	57053.824219
988.758789	56931.410156
987.608398	57319.972656
986.457031	57638.730469
985.305664	57222.898438
984.154297	57018.238281
983.001953	57279.902344
981.849609	57389.593750
980.698242	57773.410156
979.544922	57282.015625
978.392578	57140.765625
977.240234	56995.343750
976.086914	57338.898438
974.933594	57678.113281
973.780273	57332.535156
972.625977	57267.214844
971.472656	57147.164063
970.318359	57031.363281
969.164063	57157.691406
968.009766	56892.496094
966.854492	56896.746094
965.699219	57243.937500
964.544922	57111.386719
963.388672	57359.550781
962.233398	57149.222656
961.078125	56901.121094
959.921875	57273.203125
958.765625	56989.437500
957.609375	57609.304688
956.452148	57527.257813
955.294922	57392.730469
954.138672	57655.160156
952.980469	57333.781250
951.823242	56710.218750
950.666016	57092.257813
949.507813	56871.882813
948.349609	56685.152344
947.191406	56355.843750
946.032227	56586.648438
944.874023	56603.476563
943.714844	56504.980469
942.555664	56268.171875
941.395508	56586.835938
940.236328	56243.226563
939.076172	56402.546875
937.916016	56235.042969
936.755859	56811.062500
935.595703	56258.269531
934.434570	56938.742188
933.273438	56647.757813
932.112305	56534.761719
930.951172	57007.656250
929.790039	57020.148438
928.627930	57534.605469
927.465820	57017.921875
926.303711	56925.859375
925.140625	57433.769531
923.978516	57621.718750
922.815430	56854.632813
921.652344	57429.125000
920.489258	58005.488281
919.325195	58074.140625
918.162109	57900.546875
916.998047	58276.078125
915.833984	58284.101563
914.668945	58239.945313
913.504883	58368.984375
912.339844	58604.371094
911.174805	58973.156250
910.009766	58976.859375
908.843750	59587.292969
907.678711	59111.414063
906.512695	59644.476563
905.346680	59595.945313
904.179688	59618.265625
903.013672	59046.902344
901.846680	59231.761719
900.679688	59056.312500
899.512695	58354.195313
898.344727	58049.914063
897.177734	58313.894531
896.009766	58417.554688
894.841797	57830.488281
893.673828	57794.835938
892.504883	57819.500000
891.335938	57515.636719
890.166992	57671.308594
888.998047	57317.695313
887.829102	57672.835938
886.659180	57633.078125
885.489258	57287.972656
884.319336	57900.453125
883.149414	57385.140625
881.978516	57789.753906
880.808594	58073.820313
879.637695	57847.234375
878.465820	57765.980469
877.294922	58402.570313
876.123047	58512.066406
874.952148	58949.187500
873.779297	58685.316406
872.607422	58726.277344
871.435547	58723.699219
870.262695	58841.308594
869.089844	58461.613281
867.916992	59097.109375
866.743164	58984.679688
865.570313	59512.160156
864.396484	58695.757813
863.222656	59419.742188
862.047852	59961.328125
860.874023	59656.386719
859.699219	59997.042969
858.524414	60213.460938
857.349609	60220.921875
856.174805	59909.945313
854.999023	59648.699219
853.823242	59379.277344
852.647461	59273.210938
851.471680	59489.507813
850.294922	59350.402344
849.118164	59397.234375
847.941406	59177.656250
846.764648	60085.457031
845.587891	59902.984375
844.410156	60222.101563
843.232422	60499.828125
842.054688	60521.621094
840.876953	61026.082031
839.698242	61982.011719
838.520508	62242.699219
837.341797	63327.921875
836.162109	63382.132813
834.983398	63951.531250
833.803711	64085.960938
832.624023	63114.082031
831.444336	63139.449219
830.264648	62536.718750
829.083984	61415.359375
827.904297	61019.019531
826.723633	60486.984375
825.541992	59418.066406
824.361328	58919.441406
823.179688	58525.902344
821.998047	58689.851563
820.816406	58366.410156
819.634766	57995.800781
818.452148	57666.433594
817.269531	58151.007813
816.086914	58060.078125
814.904297	57722.656250
813.721680	57440.816406
812.538086	57522.562500
811.354492	56912.347656
810.170898	57176.855469
808.986328	57113.609375
807.802734	57050.414063
806.618164	56987.167969
805.433594	56923.921875
804.249023	56860.675781
803.063477	56797.378906
801.877930	57237.855469
800.693359	56694.281250
799.506836	56993.203125
798.321289	56203.992188
797.134766	56588.929688
795.948242	56351.058594
794.761719	56135.800781
793.575195	55836.671875
792.388672	55754.644531
791.201172	55856.847656
790.013672	55631.597656
788.826172	55111.812500
787.637695	55457.496094
786.449219	55293.792969
785.261719	55602.500000
784.072266	55138.296875
782.883789	54641.558594
781.694336	54815.324219
780.505859	54799.000000
779.316406	54939.980469
778.125977	54676.484375
776.936523	54631.597656
775.746094	54903.195313
774.555664	54368.343750
773.365234	54450.070313
772.174805	54390.964844
770.983398	54521.617188
769.791992	54466.593750
768.600586	54281.062500
767.409180	54462.632813
766.216797	54442.300781
765.025391	54112.144531
763.833008	54741.996094
762.639648	54707.351563
761.447266	54587.156250
760.253906	55285.808594
759.060547	55314.207031
757.867188	55753.878906
756.673828	55440.175781
755.479492	56030.269531
754.286133	55844.828125
753.091797	55649.277344
751.896484	56090.500000
750.702148	55445.503906
749.506836	55872.359375
748.311523	55447.207031
747.116211	54782.359375
745.920898	54963.183594
744.724609	54321.019531
743.528320	54542.488281
742.332031	54002.191406
741.135742	54315.019531
739.938477	53628.773438
738.742188	53606.597656
737.544922	53239.386719
736.346680	53387.742188
735.149414	53339.238281
733.951172	53706.593750
732.752930	53309.207031
731.554688	53108.656250
730.356445	53548.828125
729.157227	53088.847656
727.958008	53046.519531
726.758789	53097.414063
725.559570	53059.144531
724.359375	52917.589844
723.160156	52747.734375
721.959961	52853.300781
720.759766	52515.496094
719.558594	52764.761719
718.358398	53062.500000
717.157227	52777.441406
715.955078	52793.886719
714.753906	52674.820313
713.552734	52667.011719
712.350586	52693.570313
711.148438	52922.246094
709.945313	52912.367188
708.743164	52775.191406
707.540039	52559.277344
706.336914	52525.226563
705.133789	52886.992188
703.930664	52747.894531
702.726563	53059.011719
701.522461	53077.359375
700.318359	52639.644531
699.114258	52803.320313
697.909180	52621.996094
696.704102	53045.773438
695.499023	52963.273438
694.293945	53019.906250
693.088867	52798.351563
691.882813	52758.253906
690.676758	52510.636719
689.470703	52845.304688
688.263672	53326.882813
687.057617	52829.578125
685.850586	52775.410156
684.643555	53292.957031
683.435547	53216.574219
682.228516	52751.851563
681.020508	52379.843750
679.812500	52705.972656
678.604492	52828.851563
677.395508	52951.683594
676.186523	53098.589844
674.977539	52519.820313
673.768555	53243.519531
672.559570	53056.742188
671.349609	52835.882813
670.139648	52902.320313
668.929688	52864.308594
667.719727	52788.160156
666.508789	52677.910156
665.297852	52545.625000
664.086914	52292.988281
662.875977	52379.500000
661.665039	52678.601563
660.453125	52185.414063
659.241211	52606.750000
658.029297	52332.273438
656.816406	52837.601563
655.604492	52713.480469
654.391602	52391.039063
653.178711	52407.273438
651.964844	52365.410156
650.751953	52299.535156
649.538086	52479.941406
648.324219	52201.875000
647.109375	52352.207031
645.895508	51882.167969
644.680664	52700.710938
643.465820	52970.871094
642.250977	52746.960938
641.035156	52937.027344
639.820313	52801.160156
638.604492	52813.250000
637.388672	52797.359375
636.171875	52567.679688
634.956055	52609.765625
633.739258	52643.843750
632.522461	52328.449219
631.304688	52332.617188
630.087891	52570.324219
628.870117	52161.316406
627.652344	52199.421875
626.434570	52215.570313
625.215820	52016.285156
623.997070	52126.187500
622.778320	52154.292969
621.559570	51737.832031
620.340820	51947.371094
619.121094	52200.671875
617.901367	52459.855469
616.681641	52276.703125
615.461914	52689.125000
614.241211	51926.535156
613.020508	52239.316406
611.799805	52038.421875
610.579102	51789.835938
609.357422	52150.214844
608.136719	52156.343750
606.915039	52100.804688
605.692383	51524.253906
604.470703	51796.917969
603.248047	51870.683594
602.025391	52019.949219
600.802734	51892.937500
599.579102	51793.785156
598.356445	52074.074219
597.132813	51929.242188
595.909180	51818.218750
594.684570	51925.621094
593.460938	51768.980469
592.236328	51713.609375
591.011719	51896.359375
589.787109	51880.656250
588.561523	51809.421875
587.335938	51877.027344
586.110352	52045.718750
584.884766	51500.710938
583.658203	51843.816406
582.432617	52359.191406
581.206055	52468.222656
579.979492	52050.304688
578.751953	52511.871094
577.524414	51832.726563
576.297852	52674.257813
575.069336	53165.128906
573.841797	52438.742188
572.613281	52745.457031
571.385742	52523.867188
570.156250	52739.460938
568.927734	52432.921875
567.699219	52547.613281
566.469727	52013.894531
565.240234	52110.832031
564.009766	52515.988281
562.780273	52596.984375
561.549805	52194.011719
560.319336	52156.542969
559.088867	52089.464844
557.858398	52184.289063
556.626953	52123.148438
555.395508	52348.171875
554.164063	52294.910156
552.931641	52208.132813
551.700195	52079.968750
550.467773	51938.042969
549.235352	51806.031250
548.001953	51942.140625
546.769531	51644.621094
545.536133	51920.609375
544.302734	52216.187500
543.068359	51692.265625
541.834961	51682.527344
540.600586	51597.972656
539.366211	51848.101563
538.131836	51690.718750
536.896484	51785.273438
535.662109	52100.148438
534.426758	51559.214844
533.190430	52080.511719
531.955078	51638.101563
530.718750	52216.195313
529.482422	52200.457031
528.246094	52432.339844
527.009766	51921.414063
525.772461	52143.437500
524.535156	51813.453125
523.297852	52259.273438
522.060547	51927.425781
520.822266	51927.449219
519.583984	52135.507813
518.345703	52394.503906
517.107422	52194.320313
515.868164	52245.281250
514.628906	51892.222656
513.389648	51894.199219
512.150391	52105.933594
510.911133	52288.187500
509.670898	51735.492188
508.430664	52186.167969
507.190430	52152.812500
505.949219	52172.347656
504.708008	52017.593750
503.466797	52536.390625
502.225586	52062.554688
500.984375	52166.238281
499.742188	52031.160156
498.500000	52753.011719
497.257813	52480.949219
496.015625	52230.500000
494.772461	52453.308594
493.529297	52666.261719
492.286133	52499.953125
491.042969	52656.140625
489.798828	52413.695313
488.554688	52261.195313
487.310547	52712.238281
486.066406	52469.914063
484.821289	52567.375000
483.576172	53022.000000
482.331055	52537.753906
481.085938	52830.257813
479.840820	52510.093750
478.594727	53102.859375
477.348633	52852.960938
476.102539	53067.187500
474.855469	52870.019531
473.608398	53310.238281
472.361328	52988.382813
471.114258	53052.398438
469.867188	53445.574219
468.619141	53770.437500
467.371094	53629.812500
466.123047	53461.980469
464.874023	53843.093750
463.625977	53811.503906
462.376953	54429.773438
461.127930	54468.109375
459.877930	54496.703125
458.628906	54846.132813
457.378906	55008.789063
456.128906	55052.808594
454.877930	55240.621094
453.627930	55434.191406
452.376953	55915.207031
451.125977	55737.582031
449.874023	56581.500000
448.623047	56710.585938
447.371094	57437.523438
446.119141	57871.109375
444.867188	58713.976563
443.614258	58832.847656
442.361328	58614.152344
441.108398	58542.929688
439.855469	58157.609375
438.602539	57312.964844
437.348633	56718.679688
436.094727	56324.226563
434.840820	55604.406250
433.585938	54813.175781
432.331055	54948.054688
431.076172	54538.730469
429.821289	54179.898438
428.566406	53823.136719
427.310547	54188.398438
426.054688	53973.015625
424.798828	53622.289063
423.541992	53418.699219
422.286133	53433.714844
421.029297	53363.644531
419.772461	53434.722656
418.514648	53536.691406
417.256836	53688.867188
416.000000	53612.996094
414.741211	52955.707031
413.483398	53080.859375
412.224609	52856.453125
410.966797	53251.855469
409.707031	53552.523438
408.448242	53511.484375
407.188477	53565.007813
405.929688	53797.917969
404.668945	53266.941406
403.409180	53320.472656
402.148438	53557.140625
400.888672	53664.566406
