#Wave		#Intensity
2001.221680	52376.125000
2000.251953	52220.722656
1999.282227	52249.195313
1998.312500	52282.671875
1997.342773	51772.503906
1996.372070	52427.226563
1995.402344	51929.730469
1994.431641	52168.546875
1993.460938	51658.750000
1992.490234	52360.585938
1991.518555	52056.136719
1990.547852	52427.371094
1989.576172	52190.558594
1988.604492	52271.488281
1987.632813	52920.078125
1986.661133	52528.273438
1985.689453	52631.597656
1984.716797	52562.414063
1983.745117	52998.070313
1982.772461	52788.917969
1981.799805	52789.687500
1980.827148	52810.437500
1979.853516	53213.269531
1978.880859	53146.542969
1977.907227	53496.746094
1976.933594	53335.140625
1975.959961	52996.402344
1974.986328	53269.089844
1974.011719	53484.304688
1973.038086	53652.050781
1972.063477	53779.832031
1971.088867	53780.406250
1970.114258	53823.355469
1969.138672	53589.617188
1968.164063	53782.109375
1967.188477	53685.496094
1966.212891	53701.023438
1965.237305	53883.425781
1964.261719	54441.804688
1963.286133	53859.601563
1962.309570	54141.449219
1961.333984	54368.441406
1960.357422	54037.902344
1959.380859	54262.339844
1958.404297	54125.972656
1957.426758	54494.574219
1956.450195	53888.191406
1955.472656	54080.164063
1954.495117	54090.589844
1953.517578	53949.390625
1952.540039	54496.621094
1951.561523	54864.761719
1950.583008	54485.003906
1949.605469	54306.570313
1948.626953	54403.851563
1947.647461	54513.511719
1946.668945	54548.656250
1945.690430	54710.371094
1944.710938	54651.164063
1943.731445	55194.910156
1942.751953	54535.277344
1941.772461	54510.847656
1940.791992	54620.343750
1939.812500	54791.781250
1938.832031	54737.566406
1937.851563	54631.312500
1936.871094	54475.535156
1935.890625	55045.789063
1934.909180	55053.488281
1933.928711	55088.429688
1932.947266	55338.808594
1931.965820	55230.074219
1930.984375	54663.394531
1930.002930	55017.667969
1929.020508	55201.054688
1928.038086	55324.996094
1927.056641	55342.515625
1926.074219	55261.089844
1925.090820	55399.785156
1924.108398	55580.464844
1923.125000	55872.324219
1922.142578	55484.363281
1921.159180	55489.468750
1920.175781	55588.457031
1919.191406	55531.777344
1918.208008	55909.828125
1917.223633	55495.023438
1916.240234	55801.339844
1915.255859	55453.351563
1914.271484	56297.632813
1913.286133	55574.574219
1912.301758	55981.812500
1911.316406	55828.914063
1910.331055	55779.660156
1909.345703	55949.902344
1908.360352	55942.554688
1907.375000	56218.707031
1906.388672	55878.570313
1905.402344	56014.164063
1904.416016	56250.726563
1903.429688	55844.242188
1902.443359	56317.199219
1901.457031	56351.648438
1900.469727	56506.726563
1899.482422	56664.210938
1898.495117	56420.445313
1897.507813	56757.527344
1896.520508	56307.148438
1895.532227	56196.406250
1894.543945	56307.066406
1893.556641	56570.148438
1892.568359	56702.824219
1891.579102	56793.660156
1890.590820	56764.031250
1889.601563	56336.304688
1888.613281	56815.355469
1887.624023	56569.550781
1886.634766	57217.859375
1885.644531	56792.804688
1884.655273	56905.593750
1883.665039	56792.500000
1882.674805	56811.980469
1881.684570	56738.199219
1880.694336	57395.597656
1879.704102	57243.238281
1878.712891	57196.394531
1877.722656	57075.996094
1876.731445	56840.402344
1875.740234	57158.902344
1874.748047	57170.921875
1873.756836	57053.054688
1872.764648	58015.718750
1871.773438	57958.980469
1870.781250	57529.976563
1869.788086	57434.160156
1868.795898	57522.003906
1867.803711	57700.386719
1866.810547	57398.992188
1865.817383	57829.378906
1864.824219	57838.789063
1863.831055	57520.398438
1862.837891	57361.093750
1861.843750	58270.464844
1860.849609	57607.425781
1859.855469	57614.410156
1858.861328	57768.031250
1857.867188	57858.066406
1856.872070	57693.968750
1855.877930	58377.574219
1854.882813	58535.832031
1853.887695	57824.703125
1852.892578	58312.601563
1851.896484	57882.480469
1850.901367	58475.136719
1849.905273	58369.683594
1848.909180	58442.367188
1847.913086	58036.914063
1846.916992	58558.386719
1845.919922	58243.273438
1844.923828	58657.250000
1843.926758	58444.605469
1842.929688	58658.542969
1841.932617	58723.761719
1840.935547	59690.402344
1839.937500	58751.812500
1838.939453	59374.699219
1837.942383	59731.941406
1836.943359	59585.089844
1835.945313	59606.246094
1834.947266	59814.792969
1833.948242	59865.097656
1832.949219	60097.851563
1831.951172	60384.031250
1830.951172	59848.078125
1829.952148	59876.445313
1828.953125	59863.468750
1827.953125	60472.777344
1826.953125	60313.875000
1825.953125	60480.636719
1824.953125	60253.761719
1823.952148	60444.761719
1822.952148	60353.968750
1821.951172	60705.140625
1820.950195	60942.082031
1819.949219	61166.796875
1818.948242	61202.132813
1817.946289	61446.132813
1816.945313	61122.343750
1815.943359	60915.097656
1814.941406	61316.648438
1813.939453	61366.464844
1812.936523	61421.105469
1811.934570	61570.261719
1810.931641	61261.316406
1809.928711	61618.828125
1808.925781	61254.261719
1807.921875	60841.375000
1806.918945	61721.867188
1805.915039	61771.523438
1804.912109	61673.476563
1803.908203	61868.347656
1802.903320	62244.652344
1801.899414	62516.777344
1800.894531	62142.867188
1799.890625	62518.917969
1798.885742	61627.601563
1797.880859	62383.226563
1796.875000	62819.464844
1795.870117	62554.589844
1794.864258	63009.972656
1793.858398	62923.953125
1792.852539	63248.652344
1791.846680	63251.988281
1790.840820	63463.003906
1789.833984	63623.242188
1788.828125	63100.222656
1787.821289	63542.859375
1786.814453	63555.781250
1785.806641	63696.574219
1784.799805	63982.058594
1783.791992	64221.613281
1782.784180	63711.085938
1781.776367	64278.511719
1780.768555	63924.843750
1779.760742	64019.613281
1778.751953	64384.250000
1777.743164	64392.156250
1776.735352	64380.789063
1775.725586	64429.636719
1774.716797	64755.402344
1773.708008	64515.230469
1772.698242	64807.160156
1771.688477	64545.398438
1770.678711	64707.265625
1769.668945	64998.996094
1768.659180	64807.093750
1767.648438	65178.070313
1766.637695	65310.843750
1765.626953	65539.742188
1764.616211	65436.812500
1763.605469	65680.015625
1762.593750	65502.601563
1761.583008	65815.382813
1760.571289	65645.210938
1759.559570	66056.320313
1758.547852	66147.906250
1757.535156	65987.359375
1756.523438	66573.421875
1755.510742	66820.867188
1754.498047	66189.945313
1753.485352	66720.468750
1752.472656	66795.031250
1751.458984	66879.164063
1750.445313	66975.242188
1749.432617	67270.289063
1748.417969	67172.101563
1747.404297	67222.531250
1746.390625	67277.742188
1745.375977	67646.789063
1744.361328	68063.601563
1743.346680	67759.375000
1742.332031	68508.867188
1741.317383	68927.695313
1740.302734	69080.671875
1739.287109	68917.671875
1738.271484	69776.492188
1737.255859	69914.867188
1736.240234	70129.742188
1735.223633	70760.679688
1734.208008	70607.078125
1733.191406	71675.210938
1732.174805	72647.351563
1731.158203	73009.710938
1730.140625	73068.476563
1729.124023	73170.218750
1728.106445	74466.250000
1727.088867	74945.039063
1726.071289	74568.828125
1725.053711	75152.476563
1724.035156	76452.000000
1723.017578	76316.750000
1721.999023	76964.187500
1720.980469	76771.632813
1719.961914	77671.601563
1718.942383	77278.656250
1717.923828	77260.203125
1716.904297	77239.367188
1715.884766	77747.687500
1714.865234	77888.828125
1713.844727	78041.820313
1712.825195	77303.773438
1711.804688	77692.617188
1710.784180	77912.234375
1709.763672	77641.281250
1708.743164	77729.890625
1707.722656	77518.562500
1706.701172	77259.710938
1705.679688	76836.765625
1704.658203	77263.257813
1703.636719	77427.953125
1702.615234	76512.929688
1701.592773	76463.703125
1700.571289	76357.437500
1699.548828	76153.750000
1698.526367	75724.382813
1697.502930	75958.062500
1696.480469	75923.210938
1695.457031	75624.734375
1694.433594	74960.648438
1693.410156	75540.937500
1692.386719	75802.914063
1691.363281	75302.906250
1690.338867	75306.164063
1689.314453	75342.632813
1688.290039	74833.476563
1687.265625	75294.562500
1686.241211	75361.835938
1685.215820	75884.296875
1684.191406	75444.140625
1683.166016	75985.359375
1682.140625	76348.656250
1681.115234	76498.585938
1680.088867	75771.992188
1679.062500	76239.335938
1678.037109	76171.343750
1677.010742	76747.351563
1675.983398	76639.046875
1674.957031	76455.039063
1673.930664	76247.429688
1672.903320	76931.835938
1671.875977	77097.953125
1670.848633	77360.976563
1669.820313	76718.250000
1668.792969	77435.171875
1667.764648	77816.179688
1666.736328	77471.492188
1665.708008	78244.593750
1664.679688	78287.406250
1663.651367	78067.992188
1662.622070	78554.812500
1661.592773	78739.203125
1660.563477	78855.070313
1659.534180	78739.562500
1658.504883	80294.992188
1657.474609	79443.062500
1656.444336	80183.890625
1655.415039	79681.382813
1654.383789	80374.726563
1653.353516	80417.031250
1652.323242	80787.015625
1651.291992	81550.500000
1650.260742	81385.179688
1649.229492	81757.140625
1648.198242	82004.109375
1647.166016	82458.257813
1646.134766	83070.031250
1645.102539	83714.546875
1644.070313	83459.539063
1643.038086	83738.921875
1642.004883	84754.781250
1640.972656	84080.906250
1639.939453	85213.960938
1638.906250	85490.468750
1637.873047	85670.453125
1636.839844	86391.148438
1635.805664	86836.546875
1634.772461	87140.750000
1633.738281	87820.843750
1632.704102	88028.429688
1631.668945	88959.476563
1630.634766	89220.796875
1629.599609	90329.765625
1628.565430	90733.960938
1627.530273	92142.734375
1626.494141	91994.898438
1625.458984	92504.179688
1624.422852	93224.429688
1623.387695	93918.609375
1622.351563	94736.851563
1621.315430	96462.296875
1620.278320	97612.710938
1619.242188	98910.390625
1618.205078	100941.179688
1617.167969	103172.773438
1616.130859	106518.773438
1615.093750	109957.273438
1614.055664	112755.171875
1613.018555	115725.343750
1611.980469	117919.523438
1610.942383	119546.437500
1609.904297	119864.500000
1608.865234	119351.765625
1607.827148	119433.445313
1606.788086	116813.406250
1605.749023	114877.203125
1604.709961	112553.523438
1603.669922	110010.906250
1602.630859	107843.187500
1601.590820	106531.593750
1600.550781	105538.242188
1599.510742	104108.367188
1598.470703	103454.476563
1597.429688	101857.328125
1596.389648	101257.773438
1595.348633	101879.390625
1594.307617	101055.960938
1593.265625	100883.921875
1592.224609	100114.617188
1591.182617	99637.195313
1590.140625	100246.867188
1589.098633	99788.242188
1588.056641	99924.335938
1587.014648	99960.132813
1585.971680	99818.781250
1584.928711	99996.734375
1583.886719	100135.007813
1582.842773	99935.445313
1581.799805	100560.460938
1580.755859	100817.320313
1579.712891	100953.000000
1578.668945	101137.523438
1577.625000	101024.054688
1576.580078	101685.531250
1575.536133	102325.835938
1574.491211	103005.445313
1573.446289	103352.218750
1572.401367	104696.460938
1571.356445	104701.031250
1570.311523	105433.179688
1569.265625	105623.539063
1568.219727	105711.578125
1567.173828	105585.843750
1566.127930	105662.234375
1565.082031	105120.812500
1564.035156	104781.601563
1562.988281	104723.421875
1561.941406	104166.195313
1560.894531	104249.718750
1559.847656	103938.726563
1558.799805	103722.968750
1557.751953	104312.179688
1556.704102	103850.585938
1555.656250	103917.835938
1554.608398	103593.257813
1553.560547	103118.117188
1552.511719	102997.726563
1551.462891	103465.921875
1550.414063	103176.390625
1549.365234	102912.429688
1548.315430	103197.421875
1547.265625	102220.382813
1546.216797	103190.640625
1545.166992	102452.359375
1544.116211	102278.992188
1543.066406	102177.421875
1542.015625	102200.804688
1540.965820	101530.273438
1539.915039	101854.390625
1538.863281	101579.531250
1537.812500	101443.476563
1536.760742	101469.257813
1535.709961	100755.539063
1534.658203	100351.671875
1533.605469	100925.109375
1532.553711	100364.289063
1531.501953	99935.296875
1530.449219	99705.015625
1529.396484	99276.281250
1528.343750	98953.867188
1527.290039	98908.476563
1526.237305	98616.234375
1525.183594	98247.960938
1524.129883	97819.851563
1523.076172	98235.875000
1522.022461	97404.445313
1520.968750	96409.640625
1519.914063	97164.476563
1518.859375	96762.265625
1517.804688	96620.546875
1516.750000	95997.437500
1515.694336	96111.531250
1514.639648	95661.429688
1513.583984	95957.414063
1512.528320	95744.585938
1511.472656	95396.046875
1510.416016	95500.921875
1509.360352	95030.609375
1508.303711	94967.585938
1507.247070	94959.789063
1506.190430	95009.460938
1505.132813	94429.210938
1504.076172	94256.000000
1503.018555	94326.453125
1501.960938	94178.585938
1500.903320	93086.585938
1499.844727	93315.679688
1498.787109	93230.070313
1497.728516	92623.281250
1496.669922	93052.046875
1495.611328	92642.890625
1494.552734	92238.460938
1493.493164	92270.117188
1492.434570	91769.554688
1491.375000	91209.523438
1490.315430	90796.460938
1489.254883	90557.789063
1488.195313	89482.484375
1487.134766	89097.445313
1486.074219	88746.906250
1485.013672	88914.289063
1483.953125	88463.117188
1482.892578	87883.843750
1481.831055	87849.765625
1480.769531	87627.960938
1479.708008	87545.867188
1478.646484	87562.210938
1477.583984	87880.593750
1476.522461	87034.343750
1475.459961	87110.234375
1474.397461	86538.867188
1473.334961	86406.726563
1472.271484	86590.125000
1471.208984	86234.007813
1470.145508	86751.039063
1469.082031	86337.890625
1468.018555	85799.234375
1466.954102	86311.476563
1465.890625	86044.781250
1464.826172	85942.570313
1463.761719	86116.632813
1462.697266	85751.953125
1461.631836	85716.023438
1460.567383	85782.781250
1459.501953	85623.664063
1458.436523	85409.859375
1457.371094	85497.148438
1456.305664	85203.632813
1455.239258	85505.210938
1454.172852	84842.554688
1453.107422	84467.265625
1452.040039	84347.289063
1450.973633	84489.328125
1449.907227	84036.851563
1448.839844	84135.625000
1447.772461	84710.203125
1446.705078	84879.375000
1445.637695	84037.945313
1444.569336	83893.148438
1443.500977	84039.609375
1442.432617	84413.500000
1441.364258	85414.960938
1440.295898	85033.507813
1439.227539	85040.968750
1438.158203	85027.960938
1437.088867	85646.765625
1436.019531	85938.132813
1434.950195	86361.164063
1433.879883	86136.664063
1432.810547	86298.328125
1431.740234	86319.140625
1430.669922	86714.546875
1429.598633	85847.765625
1428.528320	86538.125000
1427.457031	86912.835938
1426.386719	85937.585938
1425.314453	86219.273438
1424.243164	86235.515625
1423.171875	85585.140625
1422.099609	85764.703125
1421.027344	85452.359375
1419.955078	84852.320313
1418.882813	85294.742188
1417.810547	85191.046875
1416.737305	85257.265625
1415.664063	84822.984375
1414.590820	85070.367188
1413.517578	84928.289063
1412.444336	84410.554688
1411.370117	84906.781250
1410.295898	84034.015625
1409.221680	85070.765625
1408.147461	84725.250000
1407.073242	84578.843750
1405.998047	84927.625000
1404.922852	84751.843750
1403.847656	85317.421875
1402.772461	85193.601563
1401.697266	85331.890625
1400.621094	85382.039063
1399.544922	85197.281250
1398.468750	85260.968750
1397.392578	84739.914063
1396.316406	85408.585938
1395.239258	85618.890625
1394.162109	86131.468750
1393.084961	86303.203125
1392.007813	86535.773438
1390.930664	87122.320313
1389.852539	88022.062500
1388.774414	88326.328125
1387.696289	87859.617188
1386.618164	88806.062500
1385.540039	89211.398438
1384.460938	89582.796875
1383.382813	89776.125000
1382.303711	89638.335938
1381.223633	90241.351563
1380.144531	90967.960938
1379.064453	91604.273438
1377.985352	91304.226563
1376.905273	91499.257813
1375.825195	90909.140625
1374.744141	91335.820313
1373.664063	90907.843750
1372.583008	90641.890625
1371.501953	90164.734375
1370.420898	89424.789063
1369.338867	89662.578125
1368.257813	89233.023438
1367.175781	87972.500000
1366.093750	88520.343750
1365.011719	87940.765625
1363.929688	86660.945313
1362.846680	86932.625000
1361.763672	86809.218750
1360.680664	86692.585938
1359.597656	86394.273438
1358.514648	86327.093750
1357.430664	86342.914063
1356.346680	86643.484375
1355.262695	85450.898438
1354.178711	85453.406250
1353.094727	84499.007813
1352.009766	84873.617188
1350.925781	84627.562500
1349.840820	84473.414063
1348.755859	83707.976563
1347.669922	83616.734375
1346.584961	82665.921875
1345.499023	82854.664063
1344.413086	82492.851563
1343.327148	82437.679688
1342.240234	82467.531250
1341.154297	82349.757813
1340.067383	82598.750000
1338.980469	81998.070313
1337.893555	82714.210938
1336.805664	82180.765625
1335.718750	82594.945313
1334.630859	82195.757813
1333.542969	82830.921875
1332.455078	82208.492188
1331.367188	82171.304688
1330.278320	82917.742188
1329.189453	83065.703125
1328.100586	82767.265625
1327.011719	82879.492188
1325.922852	82728.429688
1324.833008	83302.320313
1323.743164	83193.601563
1322.653320	83488.492188
1321.563477	83546.960938
1320.473633	83933.054688
1319.382813	83866.625000
1318.291992	83911.617188
1317.201172	84598.164063
1316.110352	84531.640625
1315.019531	85796.796875
1313.927734	85678.867188
1312.835938	85783.578125
1311.744141	85837.054688
1310.652344	86048.507813
1309.560547	85757.054688
1308.467773	86355.492188
1307.375000	85868.367188
1306.282227	85285.804688
1305.189453	85417.101563
1304.095703	85797.312500
1303.002930	85406.195313
1301.909180	84801.898438
1300.815430	84857.640625
1299.721680	85610.835938
1298.626953	85337.718750
1297.533203	85051.382813
1296.438477	85184.726563
1295.343750	85619.890625
1294.248047	86148.093750
1293.153320	86891.335938
1292.057617	86192.328125
1290.961914	86682.429688
1289.866211	87159.046875
1288.770508	87427.062500
1287.674805	86879.195313
1286.578125	87694.617188
1285.481445	87853.796875
1284.384766	87543.203125
1283.288086	87155.195313
1282.190430	87418.468750
1281.092773	87734.796875
1279.996094	87448.789063
1278.897461	87012.359375
1277.799805	86706.664063
1276.702148	86500.648438
1275.603516	86396.476563
1274.504883	86383.031250
1273.406250	85936.117188
1272.307617	85159.882813
1271.208008	85347.843750
1270.108398	85586.570313
1269.008789	84726.835938
1267.909180	84963.367188
1266.809570	84567.976563
1265.708984	84108.679688
1264.609375	84130.968750
1263.508789	83771.265625
1262.407227	83515.445313
1261.306641	83348.007813
1260.206055	83050.421875
1259.104492	82673.507813
1258.002930	82058.484375
1256.901367	82006.101563
1255.798828	81411.257813
1254.697266	81473.656250
1253.594727	81432.421875
1252.492188	81400.015625
1251.389648	80710.945313
1250.286133	80982.710938
1249.183594	80368.859375
1248.080078	80501.835938
1246.976563	80090.867188
1245.872070	79684.445313
1244.768555	79421.242188
1243.664063	79323.195313
1242.560547	79436.421875
1241.455078	79182.203125
1240.350586	78606.929688
1239.246094	78557.468750
1238.140625	78448.656250
1237.035156	77638.585938
1235.929688	77973.968750
1234.824219	77078.570313
1233.717773	77493.031250
1232.612305	77648.109375
1231.505859	77131.023438
1230.399414	77088.468750
1229.291992	76562.890625
1228.185547	76753.132813
1227.078125	77031.093750
1225.970703	76613.328125
1224.863281	76050.906250
1223.755859	76107.281250
1222.647461	76295.226563
1221.539063	75325.296875
1220.430664	75581.273438
1219.322266	75229.960938
1218.213867	74905.078125
1217.104492	74959.390625
1215.995117	74654.382813
1214.885742	74724.046875
1213.776367	74281.218750
1212.666992	74383.765625
1211.556641	74289.234375
1210.446289	74520.875000
1209.335938	74242.523438
1208.225586	74745.398438
1207.115234	74128.015625
1206.003906	74842.882813
1204.892578	74547.164063
1203.781250	74660.421875
1202.669922	74710.234375
1201.557617	74607.031250
1200.446289	75163.804688
1199.333984	75202.570313
1198.221680	75044.710938
1197.108398	75142.437500
1195.996094	75281.625000
1194.882813	75844.304688
1193.769531	75439.765625
1192.656250	74956.804688
1191.542969	75586.867188
1190.428711	75413.851563
1189.314453	75559.351563
1188.200195	75774.585938
1187.085938	75701.921875
1185.971680	76030.406250
1184.856445	74976.851563
1183.741211	75562.507813
1182.625977	75407.117188
1181.510742	75489.242188
1180.395508	75458.062500
1179.279297	75352.859375
1178.163086	74875.367188
1177.046875	74935.742188
1175.930664	74850.265625
1174.813477	75091.234375
1173.697266	74716.382813
1172.580078	74900.726563
1171.462891	74837.054688
1170.344727	74316.750000
1169.227539	74424.960938
1168.109375	74244.015625
1166.991211	74091.390625
1165.873047	73949.679688
1164.754883	73603.804688
1163.635742	73559.976563
1162.516602	73833.234375
1161.397461	73709.039063
1160.278320	73396.007813
1159.159180	73434.718750
1158.039063	73829.320313
1156.918945	73566.328125
1155.798828	73099.515625
1154.678711	73339.953125
1153.558594	73808.007813
1152.437500	73226.476563
1151.316406	72961.648438
1150.195313	73015.531250
1149.074219	72928.531250
1147.952148	73647.546875
1146.831055	73250.687500
1145.708984	73505.882813
1144.586914	73875.750000
1143.463867	74206.507813
1142.341797	74630.226563
1141.218750	75506.109375
1140.095703	75648.125000
1138.972656	75448.257813
1137.849609	75655.117188
1136.725586	75736.460938
1135.601563	75683.718750
1134.477539	75259.140625
1133.353516	74977.382813
1132.229492	74291.593750
1131.104492	74310.437500
1129.979492	73821.601563
1128.854492	74263.859375
1127.729492	73459.914063
1126.603516	73440.023438
1125.478516	73342.414063
1124.352539	72370.726563
1123.226563	72732.984375
1122.099609	72611.820313
1120.973633	71994.554688
1119.846680	72207.859375
1118.719727	71228.617188
1117.592773	71168.171875
1116.465820	70846.921875
1115.337891	70859.835938
1114.209961	70596.929688
1113.082031	70394.437500
1111.954102	70185.562500
1110.826172	70131.812500
1109.697266	70069.468750
1108.568359	69318.242188
1107.439453	69779.101563
1106.310547	69746.976563
1105.180664	69712.703125
1104.051758	69127.726563
1102.921875	69149.500000
1101.791992	69799.195313
1100.661133	69365.015625
1099.531250	68864.359375
1098.400391	69414.867188
1097.269531	69251.750000
1096.138672	69206.851563
1095.006836	69389.664063
1093.875977	69117.101563
1092.744141	68666.406250
1091.612305	68430.562500
1090.480469	68267.781250
1089.347656	68330.406250
1088.215820	68096.890625
1087.083008	68459.859375
1085.950195	67713.757813
1084.816406	67291.750000
1083.683594	67650.375000
1082.549805	67425.757813
1081.416016	67325.531250
1080.282227	67261.773438
1079.148438	67138.046875
1078.013672	67040.062500
1076.878906	66886.429688
1075.744141	67015.507813
1074.609375	67557.757813
1073.474609	67055.179688
1072.338867	67132.789063
1071.203125	67180.406250
1070.067383	66350.828125
1068.931641	67140.820313
1067.794922	66762.812500
1066.659180	66848.937500
1065.522461	66520.281250
1064.385742	66324.265625
1063.248047	66089.851563
1062.111328	66806.359375
1060.973633	66234.398438
1059.835938	66818.187500
1058.698242	66141.789063
1057.559570	66076.281250
1056.421875	65893.390625
1055.283203	66295.375000
1054.144531	65779.601563
1053.005859	65889.156250
1051.866211	65732.015625
1050.726563	65839.398438
1049.587891	66204.757813
1048.447266	66390.898438
1047.307617	66069.632813
1046.167969	65989.312500
1045.027344	66260.617188
1043.886719	66116.367188
1042.746094	66012.648438
1041.604492	65651.273438
1040.463867	65737.171875
1039.322266	65520.738281
1038.180664	65742.851563
1037.038086	65626.507813
1035.896484	64950.617188
1034.753906	65351.398438
1033.611328	65120.328125
1032.468750	65620.875000
1031.326172	65372.824219
1030.182617	65441.601563
1029.040039	64985.382813
1027.896484	65814.945313
1026.751953	64808.554688
1025.608398	65162.015625
1024.463867	65143.679688
1023.319336	64777.105469
1022.174805	65075.171875
1021.030273	64850.953125
1019.885742	64826.308594
1018.740234	64614.945313
1017.594727	64798.250000
1016.449219	64985.730469
1015.303711	64623.875000
1014.157227	64648.046875
1013.010742	64733.683594
1011.864258	65304.660156
1010.717773	64610.296875
1009.571289	64700.121094
1008.423828	64654.339844
1007.276367	64962.269531
1006.128906	65090.085938
1004.981445	65461.332031
1003.833008	65231.269531
1002.684570	65443.617188
1001.536133	65907.687500
1000.387695	66545.070313
999.239258	66302.273438
998.089844	65922.093750
996.941406	66622.546875
995.791992	65756.210938
994.641602	65619.406250
993.492188	65575.640625
992.341797	66034.757813
991.191406	66170.484375
990.041016	65657.734375
988.890625	65339.453125
987.739258	65409.773438
986.588867	65625.726563
985.437500	65244.296875
984.285156	65285.042969
983.133789	65513.546875
981.981445	65079.609375
980.829102	64926.324219
979.676758	65572.265625
978.524414	64562.996094
977.372070	64624.886719
976.218750	64653.031250
975.065430	65207.933594
973.912109	64677.679688
972.757813	64366.675781
971.604492	64544.355469
970.450195	64740.917969
969.295898	64771.097656
968.141602	64262.445313
966.986328	64848.250000
965.832031	64322.933594
964.676758	64723.386719
963.521484	64328.679688
962.365234	64588.093750
961.209961	64262.929688
960.053711	64303.640625
958.897461	64546.093750
957.741211	64836.781250
956.584961	64713.484375
955.427734	65037.636719
954.270508	65115.953125
953.113281	64665.109375
951.956055	64523.031250
950.797852	64777.703125
949.639648	64014.476563
948.481445	64434.898438
947.323242	63948.917969
946.165039	63972.781250
945.005859	64170.687500
943.847656	63898.871094
942.687500	63576.843750
941.528320	64472.621094
940.369141	63899.144531
939.208984	63501.863281
938.048828	63770.839844
936.888672	64148.613281
935.728516	63960.890625
934.567383	64158.441406
933.406250	63763.558594
932.245117	64130.582031
931.083984	63861.386719
929.922852	63960.476563
928.760742	64586.609375
927.598633	64275.644531
926.436523	64562.769531
925.274414	64761.988281
924.111328	64768.839844
922.948242	65341.992188
921.785156	64874.464844
920.622070	65014.976563
919.458984	64468.308594
918.294922	64928.324219
917.130859	65254.546875
915.966797	64856.335938
914.802734	65286.792969
913.637695	65525.125000
912.472656	65314.832031
911.307617	66203.835938
910.142578	65974.726563
908.977539	66250.273438
907.811523	66323.500000
906.645508	66207.031250
905.479492	66599.070313
904.313477	66393.000000
903.146484	66157.835938
901.980469	65789.460938
900.813477	65821.031250
899.646484	65429.945313
898.478516	65303.363281
897.311523	64877.132813
896.143555	64842.250000
894.975586	64528.601563
893.806641	64687.230469
892.638672	64384.117188
891.469727	64434.589844
890.300781	63923.742188
889.131836	64527.156250
887.962891	64427.941406
886.792969	64569.773438
885.623047	64663.777344
884.453125	64523.042969
883.283203	64577.554688
882.112305	63961.433594
880.942383	64292.109375
879.771484	64653.789063
878.600586	64977.980469
877.428711	64621.562500
876.257813	65101.207031
875.085938	65236.406250
873.914063	65137.242188
872.741211	65425.789063
871.569336	65676.914063
870.396484	65308.312500
869.223633	65752.054688
868.050781	65528.578125
866.877930	65849.906250
865.704102	65953.679688
864.530273	66254.101563
863.356445	66922.882813
862.182617	66993.273438
861.007813	67107.093750
859.833984	67688.437500
858.659180	67589.023438
857.484375	67320.054688
856.308594	67582.593750
855.133789	67295.109375
853.958008	66850.640625
852.782227	66451.796875
851.605469	66708.085938
850.429688	66454.023438
849.252930	66542.914063
848.076172	66268.312500
846.899414	67063.328125
845.722656	67185.078125
844.544922	67110.703125
843.367188	67453.195313
842.189453	67603.671875
841.011719	67877.867188
839.833008	68197.328125
838.655273	68867.210938
837.476563	69105.953125
836.296875	69653.796875
835.118164	70516.750000
833.938477	69730.984375
832.758789	68935.210938
831.579102	69132.515625
830.399414	67974.695313
829.219727	66942.898438
828.039063	66761.679688
826.858398	66175.054688
825.677734	65561.890625
824.496094	65125.894531
823.315430	65263.972656
822.133789	64133.031250
820.952148	63800.347656
819.769531	64051.660156
818.587891	63791.054688
817.405273	63816.203125
816.222656	63672.851563
815.040039	62514.687500
813.856445	63283.597656
812.673828	62824.156250
811.490234	62742.679688
810.305664	62468.261719
809.122070	62721.429688
807.938477	62408.121094
806.753906	62958.699219
805.569336	61853.644531
804.383789	62274.902344
803.199219	62517.605469
802.013672	62360.425781
800.828125	62375.484375
799.642578	61578.964844
798.457031	61547.031250
797.270508	61033.671875
796.083984	61358.246094
794.897461	60822.582031
793.710938	60487.765625
792.523438	59819.390625
791.336914	59789.851563
790.149414	59921.980469
788.961914	60604.433594
787.773438	59887.425781
786.585938	59262.718750
785.397461	59797.675781
784.208984	59604.597656
783.019531	59266.457031
781.831055	59341.269531
780.641602	59048.250000
779.452148	58775.769531
778.262695	58648.406250
777.072266	59125.578125
775.882813	58849.144531
774.692383	58917.808594
773.501953	58267.996094
772.310547	58665.289063
771.120117	58321.800781
769.928711	58657.734375
768.737305	58779.386719
767.544922	58164.855469
766.353516	58488.386719
765.161133	58432.652344
763.968750	58242.429688
762.776367	58692.089844
761.583984	59198.625000
760.390625	58800.597656
759.197266	59036.062500
758.003906	59489.304688
756.810547	59979.015625
755.616211	60631.375000
754.421875	60215.117188
753.227539	59990.269531
752.033203	59865.175781
750.838867	60126.558594
749.643555	60127.558594
748.448242	59327.515625
747.252930	59515.667969
746.057617	59242.406250
744.861328	58674.609375
743.665039	58753.062500
742.468750	58356.187500
741.272461	58562.605469
740.075195	58407.527344
738.878906	57958.148438
737.681641	57746.406250
736.484375	57624.027344
735.286133	57698.496094
734.087891	57430.113281
732.890625	57350.445313
731.691406	56794.277344
730.493164	57270.261719
729.294922	56906.878906
728.095703	56778.714844
726.896484	57345.613281
725.696289	56806.156250
724.497070	56813.789063
723.296875	56430.562500
722.096680	56517.222656
720.896484	56739.480469
719.696289	56463.746094
718.495117	56285.250000
717.293945	56699.628906
716.092773	56729.503906
714.891602	56498.460938
713.689453	56779.101563
712.487305	56368.195313
711.285156	56867.054688
710.083008	56575.523438
708.880859	56225.496094
707.677734	56255.402344
706.474609	57034.660156
705.271484	56706.949219
704.068359	56324.847656
702.864258	56673.660156
701.660156	56112.062500
700.456055	56030.953125
699.251953	56417.953125
698.046875	56318.656250
696.841797	56515.867188
695.636719	56690.820313
694.431641	55815.328125
693.226563	56419.687500
692.020508	56457.511719
690.814453	56495.320313
689.608398	56454.542969
688.402344	56125.746094
687.195313	56588.503906
685.988281	56340.339844
684.781250	56851.191406
683.574219	56083.789063
682.366211	56238.312500
681.158203	57175.421875
679.950195	56175.039063
678.742188	56820.183594
677.534180	56741.187500
676.325195	56682.324219
675.116211	57236.550781
673.907227	57266.035156
672.697266	56616.363281
671.488281	57069.835938
670.278320	57460.871094
669.068359	56737.214844
667.858398	56662.347656
666.647461	57119.476563
665.436523	56795.683594
664.225586	56650.605469
663.014648	56206.640625
661.802734	56127.921875
660.591797	56173.570313
659.379883	56034.722656
658.167969	55685.417969
656.955078	55957.617188
655.743164	55828.902344
654.530273	55523.906250
653.317383	55437.382813
652.103516	56091.972656
650.890625	55877.207031
649.676758	56121.019531
648.462891	55395.863281
647.249023	56330.160156
646.034180	56319.605469
644.819336	56503.121094
643.604492	56032.464844
642.389648	56003.968750
641.174805	55967.480469
639.958984	56114.925781
638.743164	55870.550781
637.527344	55660.234375
636.311523	56023.437500
635.094727	55943.019531
633.877930	56114.289063
632.661133	56407.300781
631.444336	56035.347656
630.226563	55877.125000
629.008789	55623.160156
627.791016	55327.382813
626.573242	55406.785156
625.355469	54977.511719
624.136719	55230.449219
622.917969	55608.906250
621.699219	55628.378906
620.480469	55751.488281
619.260742	54937.925781
618.041016	55591.101563
616.821289	55180.265625
615.601563	55044.433594
614.380859	55304.925781
613.160156	55031.742188
611.939453	54732.781250
610.718750	55452.910156
609.497070	55452.453125
608.276367	55060.066406
607.054688	55320.246094
605.832031	55162.695313
604.610352	55239.828125
603.387695	55114.152344
602.165039	54877.218750
600.942383	55333.910156
599.719727	55333.453125
598.496094	54866.175781
597.272461	55310.683594
596.048828	55167.253906
594.825195	55268.070313
593.600586	54985.746094
592.375977	54884.125000
591.151367	55006.753906
589.926758	55420.964844
588.701172	55073.359375
587.476563	55217.691406
586.250977	55026.886719
585.024414	54394.082031
583.798828	54800.078125
582.572266	54896.785156
581.345703	54676.453125
580.119141	54983.113281
578.892578	54901.480469
577.665039	54966.402344
576.437500	55231.253906
575.209961	55379.218750
573.982422	55269.855469
572.753906	54838.007813
571.525391	54900.890625
570.296875	54684.863281
569.068359	55232.242188
567.838867	54776.992188
566.610352	55134.367188
565.380859	54776.148438
564.150391	55058.292969
562.920898	54915.566406
561.690430	55065.230469
560.459961	55110.167969
559.229492	54979.347656
557.999023	55077.578125
556.767578	55116.558594
555.536133	54608.878906
554.304688	54859.042969
553.073242	54351.597656
551.840820	54923.199219
550.608398	54798.484375
549.375977	54427.367188
548.143555	54862.609375
546.910156	54544.828125
545.676758	54516.824219
544.443359	53952.957031
543.209961	54224.464844
541.975586	54269.394531
540.742188	54164.660156
539.507813	54684.011719
538.272461	54732.757813
537.038086	54643.730469
535.802734	54692.457031
534.567383	54912.304688
533.332031	54669.878906
532.096680	54968.296875
530.860352	54808.519531
529.624023	54617.351563
528.387695	54880.230469
527.151367	54846.304688
525.914063	54814.355469
524.676758	54800.089844
523.439453	54532.503906
522.202148	54883.488281
520.963867	54553.160156
519.725586	54442.777344
518.487305	54921.125000
517.249023	54292.753906
516.009766	54372.746094
514.771484	54517.421875
513.532227	54669.886719
512.291992	54859.539063
511.052734	54823.707031
509.812500	54613.472656
508.572266	54154.476563
507.332031	54906.300781
506.090820	54553.179688
504.850586	54021.992188
503.609375	54082.281250
502.368164	54608.425781
501.125977	54281.062500
499.884766	54624.988281
498.642578	54197.964844
497.400391	54620.011719
496.157227	54439.558594
494.915039	54910.277344
493.671875	54960.511719
492.428711	54789.855469
491.184570	55088.269531
489.941406	54987.988281
488.697266	54696.304688
487.453125	55076.585938
486.208984	54861.148438
484.963867	54827.355469
483.718750	54926.304688
482.473633	55054.492188
481.228516	54985.550781
479.982422	54700.089844
478.737305	55187.125000
477.491211	55826.082031
476.244141	55454.828125
474.998047	55015.480469
473.750977	55410.476563
472.503906	55674.757813
471.256836	55841.523438
470.009766	55928.363281
468.761719	55999.582031
467.513672	56004.570313
466.265625	55820.710938
465.017578	55995.066406
463.768555	56338.660156
462.519531	56559.539063
461.270508	56720.031250
460.021484	57084.679688
458.771484	56858.027344
457.521484	57387.765625
456.271484	57287.488281
455.021484	57039.542969
453.770508	58149.929688
452.519531	57917.449219
451.268555	58192.019531
450.017578	58509.207031
448.765625	58612.687500
447.514648	59480.996094
446.262695	59658.003906
445.009766	60056.164063
443.757813	60289.257813
442.504883	60720.117188
441.251953	60433.218750
439.999023	59938.941406
438.745117	59766.675781
437.492188	59061.425781
436.238281	58098.691406
434.983398	57694.351563
433.729492	57383.148438
432.474609	57048.816406
431.219727	56596.484375
429.964844	56425.058594
428.709961	56247.890625
427.454102	55904.339844
426.198242	55984.691406
424.942383	55751.593750
423.685547	55615.296875
422.429688	55529.332031
421.172852	55727.628906
419.916016	55485.078125
418.658203	55517.082031
417.401367	55724.925781
416.143555	55326.003906
414.885742	55425.621094
413.626953	55291.503906
412.369141	55346.671875
411.110352	55453.941406
409.851563	55456.937500
408.591797	55183.949219
407.333008	55250.660156
406.073242	55367.503906
404.813477	55551.808594
403.553711	55579.835938
402.292969	54913.742188
401.032227	55084.527344
