#Wave		#Intensity
2001.110352	37303.710938
2000.140625	36940.273438
1999.170898	37527.753906
1998.201172	37082.726563
1997.231445	37431.984375
1996.261719	37553.187500
1995.291016	37115.894531
1994.320313	37172.011719
1993.349609	36935.207031
1992.378906	37003.847656
1991.408203	37292.683594
1990.436523	37337.250000
1989.464844	37381.812500
1988.494141	37426.332031
1987.522461	37470.898438
1986.549805	37515.507813
1985.578125	37560.070313
1984.606445	37604.636719
1983.633789	37649.246094
1982.661133	37693.855469
1981.688477	37738.464844
1980.715820	37783.074219
1979.742188	37434.343750
1978.769531	37355.394531
1977.795898	37316.414063
1976.822266	37332.355469
1975.848633	37420.664063
1974.875000	37334.277344
1973.900391	37587.199219
1972.925781	37637.996094
1971.952148	37469.320313
1970.977539	37440.332031
1970.002930	37194.464844
1969.027344	37507.000000
1968.052734	37405.746094
1967.077148	37321.964844
1966.101563	37778.796875
1965.125977	37196.828125
1964.150391	37334.761719
1963.174805	37627.019531
1962.198242	37476.050781
1961.221680	37618.835938
1960.245117	37781.480469
1959.268555	37473.808594
1958.291992	37464.765625
1957.315430	37522.878906
1956.337891	37566.050781
1955.360352	38004.542969
1954.382813	37886.027344
1953.405273	37879.398438
1952.427734	37721.179688
1951.449219	37801.542969
1950.471680	38023.476563
1949.493164	37969.628906
1948.514648	37789.148438
1947.536133	37946.406250
1946.556641	38029.136719
1945.578125	37992.695313
1944.598633	37874.371094
1943.619141	37924.808594
1942.639648	37838.785156
1941.660156	37943.773438
1940.680664	38071.042969
1939.700195	38056.941406
1938.719727	37936.242188
1937.739258	38286.515625
1936.758789	38150.945313
1935.778320	37874.195313
1934.797852	38097.949219
1933.816406	38155.671875
1932.834961	38213.375000
1931.853516	37934.328125
1930.872070	38256.929688
1929.890625	38262.601563
1928.908203	37916.871094
1927.925781	38353.113281
1926.944336	37911.003906
1925.960938	38389.144531
1924.978516	38320.593750
1923.996094	38185.308594
1923.012695	37936.355469
1922.030273	38386.957031
1921.046875	38649.593750
1920.062500	38329.031250
1919.079102	38510.058594
1918.095703	38421.800781
1917.111328	38333.574219
1916.126953	38904.609375
1915.142578	38218.921875
1914.158203	38446.699219
1913.173828	38274.617188
1912.188477	38322.187500
1911.204102	38631.226563
1910.218750	38456.734375
1909.233398	38625.078125
1908.247070	38495.027344
1907.261719	38263.945313
1906.275391	38594.902344
1905.290039	38477.238281
1904.303711	38302.949219
1903.317383	38190.304688
1902.330078	38240.253906
1901.343750	38506.886719
1900.356445	38738.957031
1899.369141	38596.765625
1898.381836	38681.062500
1897.394531	38556.156250
1896.407227	38576.453125
1895.418945	38604.121094
1894.431641	38671.132813
1893.443359	38634.835938
1892.455078	39151.753906
1891.466797	38756.480469
1890.477539	38970.878906
1889.489258	38384.097656
1888.500000	38640.253906
1887.510742	38805.425781
1886.521484	39009.835938
1885.531250	39133.132813
1884.541992	38924.937500
1883.551758	38785.542969
1882.561523	38810.636719
1881.571289	38867.625000
1880.581055	39228.820313
1879.590820	39148.339844
1878.599609	38935.445313
1877.608398	38840.328125
1876.618164	39154.683594
1875.625977	38995.824219
1874.634766	38746.335938
1873.643555	39210.019531
1872.651367	39127.179688
1871.659180	38826.351563
1870.666992	39294.667969
1869.674805	39263.277344
1868.682617	38903.820313
1867.689453	39340.050781
1866.697266	39198.527344
1865.704102	39321.328125
1864.710938	39400.050781
1863.717773	39415.140625
1862.723633	39144.070313
1861.730469	39215.441406
1860.736328	39374.796875
1859.742188	39301.875000
1858.748047	39492.929688
1857.752930	39407.792969
1856.758789	39271.375000
1855.763672	39105.691406
1854.768555	39765.566406
1853.773438	39087.054688
1852.778320	39448.839844
1851.783203	39222.210938
1850.787109	39571.636719
1849.791016	39557.355469
1848.795898	39211.277344
1847.798828	39589.789063
1846.802734	39568.187500
1845.806641	39727.042969
1844.809570	39907.777344
1843.812500	39659.437500
1842.815430	39915.671875
1841.818359	39930.578125
1840.821289	39972.277344
1839.823242	40167.417969
1838.826172	39541.750000
1837.828125	39992.570313
1836.830078	40180.296875
1835.831055	40236.511719
1834.833008	40046.902344
1833.833984	40088.515625
1832.834961	40198.238281
1831.835938	40358.996094
1830.836914	40463.765625
1829.837891	40434.753906
1828.837891	40106.722656
1827.838867	40376.761719
1826.838867	40294.312500
1825.838867	40428.148438
1824.838867	39857.398438
1823.837891	39979.117188
1822.837891	40389.792969
1821.836914	40287.980469
1820.835938	40261.460938
1819.834961	40538.363281
1818.833008	40584.609375
1817.832031	40502.242188
1816.830078	40034.160156
1815.828125	40609.250000
1814.826172	40378.976563
1813.824219	40488.250000
1812.822266	40330.808594
1811.819336	40464.285156
1810.816406	40340.828125
1809.813477	40651.132813
1808.810547	40474.386719
1807.807617	40598.046875
1806.803711	40847.597656
1805.800781	40934.828125
1804.796875	40842.878906
1803.792969	40884.085938
1802.789063	41370.566406
1801.784180	40830.957031
1800.780273	40978.585938
1799.775391	40966.519531
1798.770508	41189.035156
1797.765625	41101.980469
1796.760742	41121.324219
1795.754883	41097.152344
1794.749023	41793.140625
1793.744141	41068.156250
1792.738281	41101.980469
1791.731445	41159.945313
1790.725586	41609.101563
1789.718750	41835.964844
1788.712891	40802.605469
1787.706055	41437.433594
1786.699219	41606.285156
1785.691406	41413.160156
1784.684570	41343.128906
1783.676758	41748.273438
1782.668945	41719.203125
1781.661133	41477.960938
1780.653320	41865.988281
1779.645508	41844.136719
1778.636719	41776.503906
1777.627930	41764.308594
1776.619141	42043.601563
1775.610352	41759.199219
1774.601563	42019.125000
1773.591797	42033.375000
1772.583008	42220.937500
1771.573242	41768.218750
1770.563477	42076.082031
1769.553711	42896.308594
1768.542969	41943.347656
1767.533203	42549.246094
1766.522461	42779.796875
1765.511719	42673.664063
1764.500977	42908.914063
1763.489258	42836.441406
1762.478516	42961.039063
1761.466797	43260.976563
1760.455078	43493.550781
1759.443359	43394.597656
1758.431641	43461.367188
1757.419922	43446.484375
1756.407227	43297.179688
1755.394531	43618.332031
1754.381836	43680.210938
1753.369141	43240.636719
1752.356445	43388.910156
1751.342773	43606.683594
1750.330078	44095.343750
1749.316406	44082.753906
1748.302734	44053.382813
1747.288086	43765.187500
1746.274414	44128.863281
1745.259766	44346.265625
1744.246094	44113.253906
1743.231445	44225.203125
1742.215820	45026.730469
1741.201172	44453.757813
1740.186523	44577.546875
1739.170898	45091.390625
1738.155273	44920.699219
1737.139648	44874.476563
1736.124023	45471.707031
1735.107422	45224.507813
1734.090820	45343.234375
1733.075195	45997.441406
1732.058594	45778.953125
1731.041016	46361.152344
1730.024414	46620.566406
1729.007813	46275.460938
1727.990234	46957.574219
1726.972656	47152.257813
1725.955078	47124.808594
1724.936523	47465.019531
1723.918945	47628.472656
1722.900391	47433.894531
1721.881836	47826.355469
1720.863281	48256.847656
1719.844727	48665.714844
1718.826172	48640.402344
1717.806641	48882.148438
1716.787109	49231.085938
1715.767578	48504.921875
1714.748047	49068.277344
1713.728516	48997.636719
1712.708008	49217.656250
1711.688477	49397.101563
1710.667969	49002.558594
1709.647461	49146.261719
1708.626953	48885.214844
1707.605469	48900.351563
1706.583984	48970.218750
1705.563477	49251.816406
1704.541992	48738.765625
1703.519531	49082.140625
1702.498047	48859.417969
1701.476563	48912.574219
1700.454102	49151.132813
1699.431641	48574.371094
1698.409180	48936.472656
1697.385742	48742.472656
1696.363281	49042.648438
1695.339844	49461.472656
1694.316406	48975.390625
1693.292969	49037.933594
1692.269531	49162.175781
1691.246094	49051.398438
1690.221680	49448.480469
1689.197266	49332.945313
1688.172852	49521.085938
1687.148438	49780.308594
1686.124023	49171.535156
1685.098633	49015.816406
1684.074219	49417.210938
1683.048828	49297.054688
1682.023438	49544.226563
1680.997070	49322.207031
1679.971680	49801.425781
1678.945313	49712.062500
1677.918945	49940.035156
1676.892578	49812.796875
1675.866211	49839.464844
1674.839844	50001.019531
1673.812500	50174.347656
1672.785156	50383.097656
1671.758789	49988.589844
1670.730469	50346.292969
1669.703125	50585.636719
1668.675781	50590.839844
1667.647461	50756.773438
1666.619141	51054.992188
1665.590820	50589.886719
1664.562500	51289.648438
1663.533203	50940.402344
1662.504883	51571.363281
1661.475586	51696.792969
1660.446289	51128.097656
1659.416992	51465.996094
1658.386719	51553.609375
1657.357422	51650.632813
1656.327148	52158.105469
1655.296875	51790.316406
1654.266602	51823.562500
1653.235352	52231.699219
1652.205078	51673.128906
1651.173828	52234.351563
1650.142578	52854.285156
1649.111328	52406.636719
1648.080078	52595.210938
1647.048828	52814.332031
1646.016602	52680.132813
1644.984375	52885.027344
1643.952148	52880.335938
1642.919922	52918.007813
1641.886719	53165.105469
1640.854492	53906.214844
1639.821289	53654.328125
1638.788086	53454.273438
1637.754883	54089.105469
1636.721680	54267.582031
1635.687500	53729.007813
1634.653320	54015.593750
1633.620117	54633.417969
1632.584961	54431.039063
1631.550781	54670.273438
1630.516602	54909.503906
1629.481445	55148.960938
1628.446289	55388.421875
1627.411133	55627.878906
1626.375977	55867.339844
1625.340820	56106.796875
1624.304688	56326.738281
1623.268555	56577.093750
1622.232422	56803.902344
1621.196289	56711.718750
1620.160156	58150.523438
1619.123047	59438.792969
1618.086914	60150.058594
1617.049805	61271.136719
1616.012695	62769.007813
1614.974609	64315.535156
1613.937500	65695.226563
1612.899414	66561.625000
1611.861328	67301.281250
1610.823242	68567.343750
1609.785156	68440.453125
1608.747070	68180.234375
1607.708008	67220.601563
1606.668945	66860.101563
1605.629883	64663.886719
1604.590820	64257.203125
1603.551758	62613.957031
1602.511719	61642.125000
1601.471680	60951.078125
1600.431641	60545.339844
1599.391602	59796.324219
1598.351563	59155.019531
1597.310547	57913.757813
1596.270508	57964.144531
1595.229492	57708.695313
1594.188477	57623.718750
1593.146484	57517.765625
1592.105469	57054.863281
1591.063477	57089.015625
1590.021484	56861.925781
1588.979492	56963.722656
1587.937500	56240.105469
1586.895508	56728.945313
1585.852539	56627.929688
1584.809570	56251.972656
1583.766602	56370.085938
1582.723633	56518.437500
1581.680664	57072.000000
1580.636719	56940.726563
1579.593750	56429.996094
1578.549805	56790.058594
1577.504883	57350.148438
1576.460938	57456.265625
1575.416992	57413.441406
1574.372070	57856.804688
1573.327148	57734.843750
1572.282227	57668.734375
1571.237305	58242.003906
1570.191406	58405.949219
1569.146484	58311.859375
1568.100586	58433.902344
1567.054688	57951.847656
1566.007813	58208.632813
1564.961914	57659.433594
1563.915039	57266.003906
1562.869141	57056.121094
1561.822266	56604.906250
1560.774414	56942.917969
1559.727539	56399.066406
1558.679688	56832.105469
1557.632813	56889.226563
1556.584961	56454.664063
1555.537109	57031.218750
1554.488281	56907.437500
1553.440430	56674.753906
1552.391602	56748.058594
1551.342773	56591.949219
1550.293945	56699.988281
1549.245117	56655.113281
1548.195313	56823.312500
1547.146484	56352.394531
1546.096680	56608.546875
1545.046875	56762.769531
1543.996094	56773.453125
1542.946289	56772.562500
1541.895508	56829.500000
1540.844727	56983.562500
1539.793945	56987.253906
1538.743164	56722.734375
1537.692383	57029.296875
1536.640625	57254.851563
1535.588867	56685.386719
1534.537109	56481.175781
1533.485352	56494.179688
1532.433594	56567.222656
1531.380859	55993.660156
1530.329102	56583.933594
1529.276367	56776.953125
1528.222656	56466.761719
1527.169922	56618.191406
1526.117188	57120.250000
1525.063477	56853.988281
1524.009766	56267.238281
1522.956055	56619.199219
1521.902344	56544.515625
1520.847656	56308.500000
1519.792969	56208.542969
1518.738281	55786.023438
1517.683594	55667.761719
1516.628906	56512.371094
1515.574219	56265.046875
1514.518555	56314.847656
1513.462891	56477.429688
1512.407227	55843.539063
1511.351563	56084.390625
1510.294922	56175.593750
1509.239258	55907.875000
1508.182617	56341.792969
1507.125977	55802.769531
1506.069336	56261.835938
1505.011719	56037.964844
1503.955078	55903.812500
1502.897461	56360.312500
1501.839844	56256.011719
1500.782227	56004.726563
1499.724609	56118.722656
1498.666016	56372.761719
1497.607422	56211.125000
1496.548828	56391.593750
1495.490234	55665.390625
1494.431641	56034.054688
1493.372070	56134.144531
1492.313477	55846.519531
1491.253906	56627.785156
1490.194336	56060.406250
1489.133789	56066.406250
1488.074219	56033.437500
1487.013672	56470.316406
1485.953125	55871.281250
1484.892578	56447.781250
1483.832031	55658.835938
1482.770508	56155.003906
1481.709961	56476.964844
1480.648438	56334.054688
1479.586914	56211.789063
1478.524414	55998.023438
1477.462891	56438.757813
1476.400391	55849.824219
1475.337891	55981.625000
1474.275391	56115.667969
1473.212891	56046.152344
1472.150391	55844.058594
1471.086914	56670.628906
1470.023438	56377.078125
1468.959961	56293.847656
1467.896484	56279.179688
1466.833008	56072.648438
1465.768555	56754.550781
1464.704102	56863.097656
1463.639648	57441.875000
1462.575195	56890.621094
1461.510742	57446.363281
1460.445313	57301.433594
1459.379883	57348.179688
1458.314453	57429.121094
1457.249023	57357.242188
1456.183594	57700.347656
1455.117188	57637.554688
1454.051758	57593.019531
1452.985352	57760.425781
1451.917969	57832.074219
1450.851563	57810.300781
1449.785156	57624.546875
1448.717773	57848.746094
1447.650391	57845.187500
1446.583008	57962.269531
1445.514648	58156.695313
1444.447266	58191.757813
1443.378906	58659.078125
1442.310547	58782.746094
1441.242188	59361.226563
1440.173828	58597.906250
1439.104492	59503.585938
1438.036133	59854.312500
1436.966797	59793.558594
1435.897461	60246.351563
1434.827148	60324.125000
1433.757813	60608.570313
1432.687500	60445.515625
1431.617188	60684.417969
1430.546875	60986.800781
1429.476563	61257.289063
1428.406250	61741.003906
1427.334961	61655.027344
1426.263672	61677.972656
1425.192383	61787.093750
1424.121094	61070.710938
1423.048828	61764.875000
1421.977539	61184.765625
1420.905273	61484.273438
1419.833008	61081.175781
1418.759766	61219.726563
1417.687500	61491.878906
1416.614258	61161.464844
1415.541992	60808.523438
1414.468750	61005.878906
1413.394531	60594.234375
1412.321289	60904.714844
1411.247070	60837.183594
1410.172852	60695.015625
1409.098633	61055.066406
1408.024414	60817.914063
1406.950195	61033.093750
1405.875000	61327.320313
1404.799805	60986.257813
1403.724609	61922.230469
1402.649414	61325.843750
1401.574219	61522.648438
1400.498047	61746.488281
1399.421875	61879.906250
1398.345703	61482.648438
1397.269531	61911.804688
1396.193359	61821.656250
1395.116211	62413.078125
1394.039063	62480.808594
1392.961914	62539.492188
1391.884766	63067.300781
1390.807617	63606.195313
1389.729492	62855.183594
1388.651367	63499.871094
1387.573242	64396.757813
1386.495117	64506.847656
1385.416992	64707.015625
1384.337891	64742.664063
1383.258789	65129.652344
1382.179688	65126.921875
1381.100586	65378.609375
1380.021484	65414.097656
1378.941406	65253.761719
1377.861328	66216.367188
1376.781250	65680.210938
1375.701172	65717.859375
1374.621094	65388.894531
1373.540039	65507.527344
1372.458984	64989.863281
1371.377930	64578.031250
1370.296875	64409.066406
1369.215820	64208.699219
1368.133789	64273.503906
1367.051758	64059.753906
1365.969727	63217.250000
1364.887695	63681.875000
1363.805664	63219.140625
1362.722656	63845.199219
1361.639648	63187.355469
1360.556641	62933.628906
1359.473633	62854.972656
1358.390625	62823.445313
1357.306641	62722.406250
1356.223633	62486.871094
1355.139648	62406.097656
1354.054688	61751.566406
1352.970703	61874.878906
1351.885742	61626.210938
1350.801758	61606.125000
1349.716797	61254.566406
1348.630859	61198.722656
1347.545898	61451.867188
1346.459961	61333.320313
1345.375000	61317.769531
1344.289063	61105.304688
1343.202148	60619.960938
1342.116211	61145.871094
1341.029297	61184.031250
1339.943359	61186.394531
1338.856445	61298.308594
1337.768555	61551.000000
1336.681641	61155.480469
1335.593750	61522.058594
1334.506836	61309.878906
1333.418945	61421.652344
1332.330078	61231.894531
1331.242188	61919.718750
1330.153320	62006.757813
1329.065430	61843.769531
1327.976563	61442.054688
1326.886719	62249.820313
1325.797852	61897.246094
1324.708008	62613.187500
1323.619141	61915.011719
1322.529297	62108.949219
1321.438477	62195.804688
1320.348633	62690.507813
1319.257813	62964.410156
1318.167969	63066.656250
1317.076172	63540.875000
1315.985352	63977.058594
1314.894531	64268.335938
1313.802734	64212.183594
1312.710938	63984.644531
1311.619141	64195.632813
1310.527344	64433.246094
1309.435547	64741.960938
1308.342773	64465.542969
1307.250000	64553.960938
1306.157227	64564.515625
1305.064453	64550.609375
1303.970703	64267.750000
1302.877930	64342.792969
1301.784180	64775.546875
1300.690430	64366.160156
1299.596680	64496.664063
1298.501953	64762.589844
1297.407227	65232.691406
1296.313477	65291.921875
1295.217773	65866.070313
1294.123047	65718.773438
1293.028320	65422.871094
1291.932617	66296.156250
1290.836914	65809.507813
1289.741211	65813.109375
1288.645508	65346.675781
1287.548828	66015.390625
1286.453125	65668.757813
1285.356445	65428.621094
1284.259766	65671.562500
1283.162109	65342.894531
1282.065430	65118.437500
1280.967773	65077.855469
1279.870117	64554.640625
1278.772461	64790.859375
1277.674805	64351.980469
1276.576172	64229.683594
1275.477539	64226.890625
1274.378906	63547.242188
1273.280273	63626.398438
1272.181641	63256.656250
1271.082031	63822.199219
1269.983398	63437.078125
1268.883789	63085.246094
1267.783203	62777.730469
1266.683594	63320.843750
1265.583984	62768.218750
1264.483398	62670.710938
1263.382813	62317.117188
1262.282227	62400.738281
1261.180664	62402.664063
1260.080078	62130.949219
1258.978516	62192.492188
1257.876953	61856.937500
1256.775391	61839.097656
1255.672852	61651.468750
1254.571289	61840.914063
1253.468750	61670.984375
1252.366211	61655.382813
1251.262695	61309.257813
1250.160156	61339.992188
1249.056641	61342.078125
1247.953125	61104.101563
1246.849609	61438.718750
1245.746094	60764.902344
1244.642578	60802.296875
1243.538086	61077.355469
1242.433594	61033.261719
1241.329102	61341.175781
1240.224609	61057.292969
1239.119141	60879.074219
1238.014648	61010.937500
1236.909180	61509.875000
1235.803711	61096.480469
1234.697266	61280.964844
1233.591797	61131.414063
1232.485352	61348.773438
1231.378906	61225.617188
1230.272461	61030.035156
1229.166016	60911.367188
1228.058594	60950.789063
1226.951172	61499.378906
1225.843750	61027.386719
1224.736328	61117.222656
1223.628906	61248.695313
1222.520508	61077.464844
1221.412109	60915.062500
1220.303711	60987.304688
1219.195313	61276.519531
1218.086914	61298.253906
1216.977539	60377.773438
1215.868164	60517.960938
1214.758789	61096.167969
1213.649414	60883.582031
1212.540039	60697.347656
1211.429688	60741.039063
1210.319336	61305.644531
1209.208984	61397.351563
1208.098633	61401.500000
1206.987305	61499.710938
1205.876953	61344.171875
1204.765625	61466.406250
1203.654297	61842.218750
1202.542969	61612.367188
1201.430664	61258.019531
1200.318359	61823.769531
1199.206055	61677.062500
1198.093750	62524.312500
1196.981445	62425.574219
1195.868164	62315.949219
1194.755859	63204.093750
1193.642578	62784.402344
1192.528320	63303.304688
1191.415039	62896.835938
1190.301758	63027.191406
1189.187500	62692.894531
1188.073242	62373.984375
1186.958984	62484.730469
1185.843750	62617.238281
1184.729492	62540.445313
1183.614258	62483.292969
1182.499023	62044.859375
1181.382813	62203.480469
1180.267578	62142.054688
1179.151367	61891.195313
1178.035156	61651.308594
1176.918945	61879.531250
1175.802734	61678.906250
1174.686523	61706.839844
1173.569336	61382.300781
1172.452148	61244.949219
1171.334961	61960.199219
1170.217773	61261.773438
1169.099609	61202.777344
1167.981445	61002.511719
1166.863281	61373.894531
1165.745117	60839.039063
1164.626953	60612.871094
1163.507813	61012.347656
1162.388672	60970.824219
1161.269531	61328.832031
1160.150391	60822.679688
1159.031250	60805.078125
1157.911133	60496.683594
1156.791016	60672.246094
1155.670898	60871.609375
1154.550781	60459.253906
1153.430664	60821.214844
1152.309570	60491.402344
1151.188477	60816.371094
1150.067383	60569.035156
1148.946289	60688.003906
1147.824219	60735.429688
1146.702148	60399.421875
1145.580078	60678.613281
1144.458008	61206.722656
1143.335938	61557.105469
1142.212891	61671.417969
1141.090820	61740.238281
1139.967773	61834.996094
1138.844727	62316.964844
1137.720703	62190.949219
1136.597656	61827.089844
1135.473633	62481.769531
1134.349609	62491.980469
1133.224609	62631.871094
1132.100586	62393.523438
1130.975586	61686.402344
1129.850586	62092.066406
1128.725586	62164.960938
1127.600586	61989.488281
1126.475586	62053.734375
1125.349609	61556.699219
1124.223633	61636.101563
1123.097656	62880.730469
1121.971680	61134.621094
1120.844727	61459.957031
1119.717773	61767.921875
1118.590820	61249.902344
1117.463867	61072.703125
1116.336914	60619.664063
1115.208984	60468.500000
1114.081055	60998.285156
1112.953125	60530.417969
1111.825195	61118.148438
1110.697266	60607.355469
1109.568359	60889.101563
1108.439453	60296.726563
1107.310547	60511.699219
1106.181641	60306.957031
1105.051758	60274.414063
1103.921875	59968.679688
1102.791992	60661.023438
1101.662109	60299.414063
1100.532227	60625.937500
1099.401367	60322.500000
1098.271484	60534.984375
1097.140625	60384.238281
1096.008789	60085.300781
1094.877930	60181.710938
1093.746094	60198.617188
1092.615234	59880.546875
1091.483398	59657.046875
1090.350586	59826.433594
1089.218750	59714.621094
1088.085938	59272.410156
1086.953125	59671.312500
1085.820313	59083.410156
1084.687500	59297.769531
1083.553711	59516.335938
1082.419922	59370.382813
1081.287109	59147.324219
1080.152344	59391.503906
1079.018555	59029.253906
1077.883789	59631.097656
1076.750000	59178.976563
1075.615234	59403.687500
1074.479492	59075.945313
1073.344727	59086.531250
1072.208984	59529.429688
1071.073242	59606.253906
1069.937500	59896.992188
1068.801758	59488.164063
1067.665039	59250.570313
1066.529297	59370.144531
1065.392578	59263.062500
1064.255859	58756.316406
1063.118164	59681.578125
1061.981445	59501.843750
1060.843750	59960.917969
1059.706055	59524.886719
1058.568359	59415.746094
1057.429688	59586.335938
1056.291992	59314.980469
1055.153320	59598.640625
1054.014648	58738.410156
1052.875000	59416.773438
1051.736328	59649.054688
1050.596680	59313.937500
1049.457031	60181.593750
1048.317383	59266.601563
1047.177734	59731.074219
1046.037109	59677.492188
1044.896484	58890.937500
1043.755859	59772.773438
1042.615234	59819.316406
1041.474609	59684.824219
1040.333008	59552.507813
1039.191406	59051.945313
1038.049805	59971.242188
1036.908203	59236.699219
1035.765625	59636.464844
1034.624023	59251.121094
1033.481445	58763.820313
1032.337891	59412.250000
1031.195313	59127.074219
1030.051758	59522.234375
1028.909180	59011.855469
1027.765625	59621.500000
1026.621094	59085.789063
1025.477539	59234.253906
1024.333008	59015.246094
1023.188477	59174.277344
1022.043945	58878.929688
1020.899414	59203.488281
1019.754883	59411.199219
1018.609375	59408.773438
1017.463867	59336.339844
1016.318359	59473.910156
1015.171875	59401.484375
1014.026367	59106.457031
1012.879883	59216.429688
1011.733398	59902.855469
1010.586914	59419.292969
1009.439453	59105.398438
1008.292969	59319.074219
1007.145508	59022.253906
1005.998047	58952.113281
1004.849609	59766.964844
1003.702148	59271.238281
1002.553711	59383.089844
1001.405273	59420.839844
1000.256836	59680.710938
999.107422	59864.335938
997.958984	59975.984375
996.809570	60115.082031
995.660156	60106.136719
994.510742	59964.039063
993.360352	60276.335938
992.209961	59855.351563
991.060547	60178.113281
989.909180	59687.597656
988.758789	60206.652344
987.608398	60083.675781
986.457031	59924.855469
985.305664	60114.332031
984.154297	60286.851563
983.001953	60317.953125
981.849609	60422.867188
980.698242	59907.699219
979.544922	59666.835938
978.392578	59830.832031
977.240234	59750.261719
976.086914	60036.406250
974.933594	60044.316406
973.780273	60370.328125
972.625977	60001.144531
971.472656	59910.074219
970.318359	59911.671875
969.164063	59652.238281
968.009766	60424.203125
966.854492	59945.914063
965.699219	60218.902344
964.544922	59799.722656
963.388672	59828.664063
962.233398	59409.703125
961.078125	59823.441406
959.921875	59894.394531
958.765625	59717.332031
957.609375	59756.757813
956.452148	60556.667969
955.294922	60186.328125
954.138672	59956.828125
952.980469	60376.210938
951.823242	60119.464844
950.666016	60263.703125
949.507813	59616.742188
948.349609	60067.339844
947.191406	59674.472656
946.032227	59950.808594
944.874023	59665.050781
943.714844	60228.511719
942.555664	59301.363281
941.395508	60128.750000
940.236328	59966.789063
939.076172	59823.742188
937.916016	59950.953125
936.755859	60233.089844
935.595703	59951.867188
934.434570	59852.878906
933.273438	59573.917969
932.112305	59742.898438
930.951172	60158.707031
929.790039	60499.054688
928.627930	60234.808594
927.465820	59985.296875
926.303711	60197.937500
925.140625	60510.839844
923.978516	60944.839844
922.815430	60626.414063
921.652344	60686.253906
920.489258	60846.335938
919.325195	60952.054688
918.162109	61331.273438
916.998047	61244.789063
915.833984	61412.988281
914.668945	61675.031250
913.504883	61709.542969
912.339844	61990.207031
911.174805	62594.058594
910.009766	62651.312500
908.843750	62329.070313
907.678711	63234.785156
906.512695	63079.289063
905.346680	63430.222656
904.179688	63058.062500
903.013672	62946.421875
901.846680	62518.250000
900.679688	62637.878906
899.512695	61916.363281
898.344727	61873.695313
897.177734	61602.113281
896.009766	61771.750000
894.841797	61157.019531
893.673828	61651.152344
892.504883	61259.179688
891.335938	61721.917969
890.166992	61550.433594
888.998047	61497.480469
887.829102	61166.082031
886.659180	61900.656250
885.489258	61733.410156
884.319336	61736.527344
883.149414	61718.875000
881.978516	61971.128906
880.808594	62026.085938
879.637695	62494.023438
878.465820	61951.257813
877.294922	61840.210938
876.123047	62339.027344
874.952148	62493.398438
873.779297	62537.816406
872.607422	62779.156250
871.435547	62999.675781
870.262695	62708.250000
869.089844	62524.671875
867.916992	62993.691406
866.743164	62663.070313
865.570313	63175.371094
864.396484	63511.500000
863.222656	63534.929688
862.047852	63610.085938
860.874023	64488.078125
859.699219	64819.566406
858.524414	64600.710938
857.349609	64230.960938
856.174805	64423.765625
854.999023	63746.148438
853.823242	64525.976563
852.647461	63666.730469
851.471680	63371.863281
850.294922	63855.910156
849.118164	63682.972656
847.941406	63516.292969
846.764648	63929.835938
845.587891	64438.179688
844.410156	64436.554688
843.232422	64845.562500
842.054688	65076.988281
840.876953	66304.625000
839.698242	66473.820313
838.520508	67232.671875
837.341797	68079.882813
836.162109	68510.421875
834.983398	69039.710938
833.803711	69136.109375
832.624023	68542.343750
831.444336	68193.898438
830.264648	67131.007813
829.083984	66379.406250
827.904297	65560.140625
826.723633	65202.207031
825.541992	63883.425781
824.361328	63390.140625
823.179688	63199.417969
821.998047	63078.687500
820.816406	62760.597656
819.634766	62479.628906
818.452148	62036.382813
817.269531	61683.718750
816.086914	61526.382813
814.904297	61823.105469
813.721680	61579.531250
812.538086	61765.238281
811.354492	61435.523438
810.170898	60980.707031
808.986328	60996.062500
807.802734	61417.714844
806.618164	61422.718750
805.433594	60941.566406
804.249023	61246.082031
803.063477	60931.226563
801.877930	60921.957031
800.693359	61224.250000
799.506836	60471.000000
798.321289	60465.906250
797.134766	60163.765625
795.948242	60093.187500
794.761719	60008.292969
793.575195	59626.546875
792.388672	59625.699219
791.201172	59491.808594
790.013672	59229.050781
788.826172	59686.562500
787.637695	59747.058594
786.449219	59457.800781
785.261719	59671.675781
784.072266	59605.378906
782.883789	59062.839844
781.694336	59160.167969
780.505859	59247.242188
779.316406	59205.621094
778.125977	59163.968750
776.936523	59122.351563
775.746094	59080.695313
774.555664	59039.042969
773.365234	58468.820313
772.174805	58847.699219
770.983398	58300.164063
769.791992	58668.730469
768.600586	58557.875000
767.409180	58597.953125
766.216797	58283.273438
765.025391	59293.636719
763.833008	59111.410156
762.639648	58957.769531
761.447266	59225.890625
760.253906	59540.757813
759.060547	59936.960938
757.867188	60050.000000
756.673828	60140.601563
755.479492	60418.414063
754.286133	60553.675781
753.091797	60595.292969
751.896484	60921.679688
750.702148	60715.085938
749.506836	59833.468750
748.311523	60442.398438
747.116211	59731.898438
745.920898	59210.664063
744.724609	59108.191406
743.528320	58950.906250
742.332031	59090.222656
741.135742	58372.500000
739.938477	58487.503906
738.742188	58293.898438
737.544922	58179.519531
736.346680	58201.140625
735.149414	57695.242188
733.951172	58165.238281
732.752930	57349.226563
731.554688	57796.804688
730.356445	58270.562500
729.157227	57590.789063
727.958008	57377.386719
726.758789	57449.757813
725.559570	57564.644531
724.359375	57454.656250
723.160156	57032.843750
721.959961	57220.625000
720.759766	57592.546875
719.558594	57363.210938
718.358398	57127.886719
717.157227	57202.199219
715.955078	57448.425781
714.753906	57182.871094
713.552734	57226.792969
712.350586	57440.519531
711.148438	57276.175781
709.945313	57479.703125
708.743164	57537.667969
707.540039	57381.472656
706.336914	57568.695313
705.133789	57329.750000
703.930664	57210.015625
702.726563	57415.328125
701.522461	57501.480469
700.318359	57274.820313
699.114258	57143.070313
697.909180	57660.894531
696.704102	57077.351563
695.499023	57383.261719
694.293945	57511.648438
693.088867	57631.917969
691.882813	57270.488281
690.676758	57420.976563
689.470703	57347.792969
688.263672	57417.640625
687.057617	57686.824219
685.850586	57359.933594
684.643555	57494.148438
683.435547	57573.968750
682.228516	57553.144531
681.020508	57657.058594
679.812500	57465.242188
678.604492	57486.671875
677.395508	57516.136719
676.186523	57672.242188
674.977539	58013.207031
673.768555	57196.488281
672.559570	57531.382813
671.349609	57944.496094
670.139648	57537.976563
668.929688	57444.878906
667.719727	57538.531250
666.508789	57118.257813
665.297852	57376.507813
664.086914	56972.468750
662.875977	57268.761719
661.665039	57416.507813
660.453125	57451.886719
659.241211	57294.757813
658.029297	57342.167969
656.816406	57010.730469
655.604492	57571.199219
654.391602	57187.742188
653.178711	57122.945313
651.964844	56689.640625
650.751953	57177.644531
649.538086	57074.839844
648.324219	56755.878906
647.109375	56693.210938
645.895508	57074.785156
644.680664	57088.101563
643.465820	57001.394531
642.250977	57500.683594
641.035156	57667.867188
639.820313	57173.269531
638.604492	57690.226563
637.388672	57057.917969
636.171875	56805.464844
634.956055	57629.828125
633.739258	57371.363281
632.522461	57304.695313
631.304688	57359.835938
630.087891	57440.906250
628.870117	56943.167969
627.652344	56507.472656
626.434570	57081.414063
625.215820	56572.050781
623.997070	56874.539063
622.778320	56760.187500
621.559570	56843.238281
620.340820	56838.554688
619.121094	56668.468750
617.901367	56639.906250
616.681641	56444.019531
615.461914	56672.425781
614.241211	56683.695313
613.020508	56294.789063
611.799805	56395.691406
610.579102	55841.796875
609.357422	56432.226563
608.136719	56395.773438
606.915039	56152.468750
605.692383	56306.988281
604.470703	56483.312500
603.248047	56208.316406
602.025391	56207.699219
600.802734	56415.734375
599.579102	56524.347656
598.356445	56402.492188
597.132813	56115.835938
595.909180	56262.164063
594.684570	56146.375000
593.460938	56290.652344
592.236328	56168.941406
591.011719	56319.109375
589.787109	55981.195313
588.561523	56073.816406
587.335938	56041.464844
586.110352	56141.964844
584.884766	56097.714844
583.658203	56194.195313
582.432617	56350.085938
581.206055	55953.160156
579.979492	56679.507813
578.751953	56161.855469
577.524414	56076.054688
576.297852	56421.859375
575.069336	56482.503906
573.841797	56547.085938
572.613281	56259.445313
571.385742	56219.191406
570.156250	56325.312500
568.927734	55713.562500
567.699219	55801.937500
566.469727	56441.785156
565.240234	56075.421875
564.009766	55659.792969
562.780273	56386.226563
561.549805	55966.738281
560.319336	56088.523438
559.088867	55931.855469
557.858398	56035.828125
556.626953	55902.906250
555.395508	55843.050781
554.164063	55708.238281
552.931641	56153.433594
551.700195	55444.671875
550.467773	56167.785156
549.235352	55587.433594
548.001953	55115.714844
546.769531	55639.417969
545.536133	55047.667969
544.302734	55163.382813
543.068359	55409.050781
541.834961	55304.085938
540.600586	55116.464844
539.366211	55584.441406
538.131836	55678.285156
536.896484	55232.902344
535.662109	55265.781250
534.426758	55430.437500
533.190430	55628.460938
531.955078	55177.515625
530.718750	55060.953125
529.482422	55921.335938
528.246094	55226.894531
527.009766	55255.781250
525.772461	55337.695313
524.535156	55771.152344
523.297852	55202.933594
522.060547	55009.929688
520.822266	55140.890625
519.583984	55554.421875
518.345703	55235.871094
517.107422	55570.746094
515.868164	55368.031250
514.628906	55487.023438
513.389648	54623.613281
512.150391	55293.574219
510.911133	55400.746094
509.670898	55106.136719
508.430664	55017.367188
507.190430	55240.097656
505.949219	55403.984375
504.708008	55140.921875
503.466797	55110.933594
502.225586	55149.468750
500.984375	55489.375000
499.742188	55383.023438
498.500000	55517.335938
497.257813	55262.355469
496.015625	55365.347656
494.772461	55601.250000
493.529297	55668.945313
492.286133	55269.488281
491.042969	55853.105469
489.798828	55707.746094
488.554688	55646.433594
487.310547	55674.980469
486.066406	55724.996094
484.821289	55343.531250
483.576172	55399.441406
482.331055	55601.691406
481.085938	55470.210938
479.840820	55508.500000
478.594727	55778.871094
477.348633	55978.937500
476.102539	55436.085938
474.855469	56076.687500
473.608398	56262.929688
472.361328	56184.093750
471.114258	56202.695313
469.867188	56384.906250
468.619141	56617.679688
467.371094	56716.011719
466.123047	56794.835938
464.874023	56945.644531
463.625977	57318.242188
462.376953	56982.476563
461.127930	57479.417969
459.877930	57546.339844
458.628906	57881.582031
457.378906	57796.750000
456.128906	57869.398438
454.877930	57943.960938
453.627930	58714.113281
452.376953	58866.187500
451.125977	59216.324219
449.874023	59711.972656
448.623047	60044.332031
447.371094	60194.089844
446.119141	60984.277344
444.867188	61776.101563
443.614258	61956.476563
442.361328	62001.000000
441.108398	62293.746094
439.855469	61058.414063
438.602539	60944.097656
437.348633	59529.222656
436.094727	58930.750000
434.840820	58382.882813
433.585938	57761.601563
432.331055	57156.050781
431.076172	56876.050781
429.821289	56489.667969
428.566406	56233.125000
427.310547	56177.957031
426.054688	55820.945313
424.798828	55814.234375
423.541992	56028.027344
422.286133	56000.003906
421.029297	55389.992188
419.772461	55717.792969
418.514648	55455.964844
417.256836	55256.074219
416.000000	55798.167969
414.741211	55407.039063
413.483398	55834.945313
412.224609	55190.996094
410.966797	55020.289063
409.707031	55171.992188
408.448242	55518.550781
407.188477	55436.628906
405.929688	55343.156250
404.668945	55168.710938
403.409180	55520.785156
402.148438	55361.789063
400.888672	55499.714844
