#Wave		#Intensity
2001.221680	43753.714844
2000.251953	43686.039063
1999.282227	43756.101563
1998.312500	43500.406250
1997.342773	43625.585938
1996.372070	43582.902344
1995.402344	43700.511719
1994.431641	43737.949219
1993.460938	43625.167969
1992.490234	43735.191406
1991.518555	43537.359375
1990.547852	43504.734375
1989.576172	44040.007813
1988.604492	43882.238281
1987.632813	43546.964844
1986.661133	43804.402344
1985.689453	44014.246094
1984.716797	43519.148438
1983.745117	43746.460938
1982.772461	43651.367188
1981.799805	44020.968750
1980.827148	43653.597656
1979.853516	43923.175781
1978.880859	43878.046875
1977.907227	43678.148438
1976.933594	43980.023438
1975.959961	43530.617188
1974.986328	43760.050781
1974.011719	43951.980469
1973.038086	44111.414063
1972.063477	43904.195313
1971.088867	43968.828125
1970.114258	43302.996094
1969.138672	44257.546875
1968.164063	43866.023438
1967.188477	43955.531250
1966.212891	44040.019531
1965.237305	43937.667969
1964.261719	44574.988281
1963.286133	44136.437500
1962.309570	44280.578125
1961.333984	44006.503906
1960.357422	44344.726563
1959.380859	44020.968750
1958.404297	44520.769531
1957.426758	43985.671875
1956.450195	44380.851563
1955.472656	44420.328125
1954.495117	44342.949219
1953.517578	44377.445313
1952.540039	44123.652344
1951.561523	44476.210938
1950.583008	44498.242188
1949.605469	44408.488281
1948.626953	44370.914063
1947.647461	44499.710938
1946.668945	44417.445313
1945.690430	44015.019531
1944.710938	44449.050781
1943.731445	44227.882813
1942.751953	44386.355469
1941.772461	44110.703125
1940.791992	44194.738281
1939.812500	44573.800781
1938.832031	44238.761719
1937.851563	44208.707031
1936.871094	44765.992188
1935.890625	44616.921875
1934.909180	44641.312500
1933.928711	44457.632813
1932.947266	44358.218750
1931.965820	44427.207031
1930.984375	44627.371094
1930.002930	44678.957031
1929.020508	44777.542969
1928.038086	44692.996094
1927.056641	44368.511719
1926.074219	44751.539063
1925.090820	44528.546875
1924.108398	44528.164063
1923.125000	44364.617188
1922.142578	44561.992188
1921.159180	44452.859375
1920.175781	44210.343750
1919.191406	44459.515625
1918.208008	44701.187500
1917.223633	44313.042969
1916.240234	44757.117188
1915.255859	44174.078125
1914.271484	44469.921875
1913.286133	44953.214844
1912.301758	44328.496094
1911.316406	44515.609375
1910.331055	44808.714844
1909.345703	44527.125000
1908.360352	44137.144531
1907.375000	44696.398438
1906.388672	44407.578125
1905.402344	44705.363281
1904.416016	44714.769531
1903.429688	44674.902344
1902.443359	44935.535156
1901.457031	44341.554688
1900.469727	44614.460938
1899.482422	44498.316406
1898.495117	44872.011719
1897.507813	44600.824219
1896.520508	45097.386719
1895.532227	44324.414063
1894.543945	44690.488281
1893.556641	45203.984375
1892.568359	44642.839844
1891.579102	44524.382813
1890.590820	44777.097656
1889.601563	44378.507813
1888.613281	44518.136719
1887.624023	44687.195313
1886.634766	44797.242188
1885.644531	44654.312500
1884.655273	45130.160156
1883.665039	44967.582031
1882.674805	44525.257813
1881.684570	45069.582031
1880.694336	44953.710938
1879.704102	44810.894531
1878.712891	44780.949219
1877.722656	44839.292969
1876.731445	44684.308594
1875.740234	44661.750000
1874.748047	44690.671875
1873.756836	45057.750000
1872.764648	45120.886719
1871.773438	44831.246094
1870.781250	44737.648438
1869.788086	44842.429688
1868.795898	45135.699219
1867.803711	45117.976563
1866.810547	45413.539063
1865.817383	45344.378906
1864.824219	44979.199219
1863.831055	45166.992188
1862.837891	44951.160156
1861.843750	45021.507813
1860.849609	45380.332031
1859.855469	45345.464844
1858.861328	45146.855469
1857.867188	45459.035156
1856.872070	45446.156250
1855.877930	45118.160156
1854.882813	45193.265625
1853.887695	45424.625000
1852.892578	45575.335938
1851.896484	45811.425781
1850.901367	45473.882813
1849.905273	45807.511719
1848.909180	45577.433594
1847.913086	45581.613281
1846.916992	45780.902344
1845.919922	45397.320313
1844.923828	45616.074219
1843.926758	46197.953125
1842.929688	46041.156250
1841.932617	45942.894531
1840.935547	46383.097656
1839.937500	45941.339844
1838.939453	46364.335938
1837.942383	46124.847656
1836.943359	46172.722656
1835.945313	46434.792969
1834.947266	46614.019531
1833.948242	46547.414063
1832.949219	46128.054688
1831.951172	46314.535156
1830.951172	46607.953125
1829.952148	46784.550781
1828.953125	46985.398438
1827.953125	46381.582031
1826.953125	46686.929688
1825.953125	46591.230469
1824.953125	46597.601563
1823.952148	46640.406250
1822.952148	46469.472656
1821.951172	46388.441406
1820.950195	46535.644531
1819.949219	46874.558594
1818.948242	46701.269531
1817.946289	46950.250000
1816.945313	46774.582031
1815.943359	46637.781250
1814.941406	46869.656250
1813.939453	47082.054688
1812.936523	47049.511719
1811.934570	46852.152344
1810.931641	46965.070313
1809.928711	46745.984375
1808.925781	46662.644531
1807.921875	47148.550781
1806.918945	47178.988281
1805.915039	46688.820313
1804.912109	46968.679688
1803.908203	47410.617188
1802.903320	46990.839844
1801.899414	47355.183594
1800.894531	47346.832031
1799.890625	46878.910156
1798.885742	47245.492188
1797.880859	47348.382813
1796.875000	47296.519531
1795.870117	47776.429688
1794.864258	47710.003906
1793.858398	47128.933594
1792.852539	47533.726563
1791.846680	47631.617188
1790.840820	47661.855469
1789.833984	48148.425781
1788.828125	47835.753906
1787.821289	48013.164063
1786.814453	48388.402344
1785.806641	48080.671875
1784.799805	47806.820313
1783.791992	48288.015625
1782.784180	48465.183594
1781.776367	48569.953125
1780.768555	48501.109375
1779.760742	48752.859375
1778.751953	48693.644531
1777.743164	48641.679688
1776.735352	48929.398438
1775.725586	48677.492188
1774.716797	48437.714844
1773.708008	48624.187500
1772.698242	48598.750000
1771.688477	48999.335938
1770.678711	49161.542969
1769.668945	48849.699219
1768.659180	48922.859375
1767.648438	48885.355469
1766.637695	49432.218750
1765.626953	49433.105469
1764.616211	49342.640625
1763.605469	49706.460938
1762.593750	49445.359375
1761.583008	49799.417969
1760.571289	49898.718750
1759.559570	49709.765625
1758.547852	50471.820313
1757.535156	49687.398438
1756.523438	50377.164063
1755.510742	50272.257813
1754.498047	50404.949219
1753.485352	50021.757813
1752.472656	50639.007813
1751.458984	51112.132813
1750.445313	50649.878906
1749.432617	50885.472656
1748.417969	51087.421875
1747.404297	50663.761719
1746.390625	50796.183594
1745.375977	51187.304688
1744.361328	51511.218750
1743.346680	51892.492188
1742.332031	51579.203125
1741.317383	51919.625000
1740.302734	52149.816406
1739.287109	51994.597656
1738.271484	52696.085938
1737.255859	52875.765625
1736.240234	53612.726563
1735.223633	53313.855469
1734.208008	54217.859375
1733.191406	54253.687500
1732.174805	54368.386719
1731.158203	54996.871094
1730.140625	55065.992188
1729.124023	55768.191406
1728.106445	56009.128906
1727.088867	55953.839844
1726.071289	56380.902344
1725.053711	56865.109375
1724.035156	56952.906250
1723.017578	56892.707031
1721.999023	57610.398438
1720.980469	57919.882813
1719.961914	57704.492188
1718.942383	57801.589844
1717.923828	58735.589844
1716.904297	57819.265625
1715.884766	58619.441406
1714.865234	58222.988281
1713.844727	58825.039063
1712.825195	58085.628906
1711.804688	58794.671875
1710.784180	58231.753906
1709.763672	58157.148438
1708.743164	57996.863281
1707.722656	57789.031250
1706.701172	57935.855469
1705.679688	57789.968750
1704.658203	57993.832031
1703.636719	57781.378906
1702.615234	58187.304688
1701.592773	57218.789063
1700.571289	57574.742188
1699.548828	57008.359375
1698.526367	57119.449219
1697.502930	57159.218750
1696.480469	56847.386719
1695.457031	56690.050781
1694.433594	56881.847656
1693.410156	57037.964844
1692.386719	56607.671875
1691.363281	57043.843750
1690.338867	56865.242188
1689.314453	56736.527344
1688.290039	57079.921875
1687.265625	57570.242188
1686.241211	57434.347656
1685.215820	56966.570313
1684.191406	56871.125000
1683.166016	57100.414063
1682.140625	56637.675781
1681.115234	57345.511719
1680.088867	57581.695313
1679.062500	57715.949219
1678.037109	57333.933594
1677.010742	57614.968750
1675.983398	57488.753906
1674.957031	57717.589844
1673.930664	57960.542969
1672.903320	58444.726563
1671.875977	58599.933594
1670.848633	58783.464844
1669.820313	58366.312500
1668.792969	58526.171875
1667.764648	59206.007813
1666.736328	58746.457031
1665.708008	58941.601563
1664.679688	58716.144531
1663.651367	59090.742188
1662.622070	59649.414063
1661.592773	59508.949219
1660.563477	59503.101563
1659.534180	59787.589844
1658.504883	59597.605469
1657.474609	59733.312500
1656.444336	59642.488281
1655.415039	60061.187500
1654.383789	60269.843750
1653.353516	60537.367188
1652.323242	60613.839844
1651.291992	60612.496094
1650.260742	61197.960938
1649.229492	60795.949219
1648.198242	61590.835938
1647.166016	61108.808594
1646.134766	61427.644531
1645.102539	61970.050781
1644.070313	62128.531250
1643.038086	61959.785156
1642.004883	62600.640625
1640.972656	62551.863281
1639.939453	62865.382813
1638.906250	63310.503906
1637.873047	63191.070313
1636.839844	63335.015625
1635.805664	64071.308594
1634.772461	64062.261719
1633.738281	64097.867188
1632.704102	64871.218750
1631.668945	64880.820313
1630.634766	65428.273438
1629.599609	65886.296875
1628.565430	66445.109375
1627.530273	66531.875000
1626.494141	67296.914063
1625.458984	67275.554688
1624.422852	68176.257813
1623.387695	69130.593750
1622.351563	69835.976563
1621.315430	71134.375000
1620.278320	72594.085938
1619.242188	74243.148438
1618.205078	76198.648438
1617.167969	78570.554688
1616.130859	80775.273438
1615.093750	83365.703125
1614.055664	85489.140625
1613.018555	87904.523438
1611.980469	89403.632813
1610.942383	89883.960938
1609.904297	89795.398438
1608.865234	89760.687500
1607.827148	88130.421875
1606.788086	85990.796875
1605.749023	83756.046875
1604.709961	81765.273438
1603.669922	79786.898438
1602.630859	77855.968750
1601.590820	76442.210938
1600.550781	75080.359375
1599.510742	73938.593750
1598.470703	72836.945313
1597.429688	71490.460938
1596.389648	71480.062500
1595.348633	71261.882813
1594.307617	71104.460938
1593.265625	70006.617188
1592.224609	70344.132813
1591.182617	69806.695313
1590.140625	68940.570313
1589.098633	68841.992188
1588.056641	68445.000000
1587.014648	68952.656250
1585.971680	68910.062500
1584.928711	68790.578125
1583.886719	68577.929688
1582.842773	68290.812500
1581.799805	68781.726563
1580.755859	68224.539063
1579.712891	68829.367188
1578.668945	68793.812500
1577.625000	68944.468750
1576.580078	69451.101563
1575.536133	69129.265625
1574.491211	69649.640625
1573.446289	69558.132813
1572.401367	70289.851563
1571.356445	70874.828125
1570.311523	70736.656250
1569.265625	70600.851563
1568.219727	70741.617188
1567.173828	70589.593750
1566.127930	69963.742188
1565.082031	70025.578125
1564.035156	69660.117188
1562.988281	69083.515625
1561.941406	69071.187500
1560.894531	68894.070313
1559.847656	68888.734375
1558.799805	68700.109375
1557.751953	68576.500000
1556.704102	68139.843750
1555.656250	68844.179688
1554.608398	67983.367188
1553.560547	67899.367188
1552.511719	68348.421875
1551.462891	67379.250000
1550.414063	67992.718750
1549.365234	68163.562500
1548.315430	68144.437500
1547.265625	68148.468750
1546.216797	68518.273438
1545.166992	68128.742188
1544.116211	68266.992188
1543.066406	68585.671875
1542.015625	68522.515625
1540.965820	68498.703125
1539.915039	68516.523438
1538.863281	68367.859375
1537.812500	68538.265625
1536.760742	67754.031250
1535.709961	68368.179688
1534.658203	67394.789063
1533.605469	67160.968750
1532.553711	67063.507813
1531.501953	66275.601563
1530.449219	66344.562500
1529.396484	66351.164063
1528.343750	65880.000000
1527.290039	65441.312500
1526.237305	65667.250000
1525.183594	65773.148438
1524.129883	64965.687500
1523.076172	64746.527344
1522.022461	65325.164063
1520.968750	65198.218750
1519.914063	65237.257813
1518.859375	65449.101563
1517.804688	64808.429688
1516.750000	65225.277344
1515.694336	65109.968750
1514.639648	64752.917969
1513.583984	65215.589844
1512.528320	64971.429688
1511.472656	65249.781250
1510.416016	65380.761719
1509.360352	65348.351563
1508.303711	65348.152344
1507.247070	65635.421875
1506.190430	65331.652344
1505.132813	65377.429688
1504.076172	65269.183594
1503.018555	64416.382813
1501.960938	64848.304688
1500.903320	64742.500000
1499.844727	64462.167969
1498.787109	64992.589844
1497.728516	64799.558594
1496.669922	64248.472656
1495.611328	64638.628906
1494.552734	64705.074219
1493.493164	64452.566406
1492.434570	64397.429688
1491.375000	64044.144531
1490.315430	64367.476563
1489.254883	64096.855469
1488.195313	64179.355469
1487.134766	64837.105469
1486.074219	64138.019531
1485.013672	64126.523438
1483.953125	64135.644531
1482.892578	64460.824219
1481.831055	63908.847656
1480.769531	64881.871094
1479.708008	64412.421875
1478.646484	64966.175781
1477.583984	64453.398438
1476.522461	64361.765625
1475.459961	64279.312500
1474.397461	64162.578125
1473.334961	64388.878906
1472.271484	63851.503906
1471.208984	64288.066406
1470.145508	64372.519531
1469.082031	64347.261719
1468.018555	65073.632813
1466.954102	65045.968750
1465.890625	64193.878906
1464.826172	64661.859375
1463.761719	64835.171875
1462.697266	65311.996094
1461.631836	65218.121094
1460.567383	64446.609375
1459.501953	65295.089844
1458.436523	64964.046875
1457.371094	65173.589844
1456.305664	65152.769531
1455.239258	65065.843750
1454.172852	65407.445313
1453.107422	64853.339844
1452.040039	65525.222656
1450.973633	65235.539063
1449.907227	64627.089844
1448.839844	65009.437500
1447.772461	65459.953125
1446.705078	65327.546875
1445.637695	65238.429688
1444.569336	65593.078125
1443.500977	65776.953125
1442.432617	66160.945313
1441.364258	65978.484375
1440.295898	66234.953125
1439.227539	66698.218750
1438.158203	66554.390625
1437.088867	66949.250000
1436.019531	67557.554688
1434.950195	67697.625000
1433.879883	67733.164063
1432.810547	67884.500000
1431.740234	68340.054688
1430.669922	68207.453125
1429.598633	68417.632813
1428.528320	68566.460938
1427.457031	69128.203125
1426.386719	68945.625000
1425.314453	68944.570313
1424.243164	69553.546875
1423.171875	70135.101563
1422.099609	69698.562500
1421.027344	69926.281250
1419.955078	70249.101563
1418.882813	69955.507813
1417.810547	70087.906250
1416.737305	70127.390625
1415.664063	69704.898438
1414.590820	69207.828125
1413.517578	69587.000000
1412.444336	69354.937500
1411.370117	68876.304688
1410.295898	68653.492188
1409.221680	68774.601563
1408.147461	68622.000000
1407.073242	68431.007813
1405.998047	68366.695313
1404.922852	68390.554688
1403.847656	68540.968750
1402.772461	68325.257813
1401.697266	68057.664063
1400.621094	68370.687500
1399.544922	68670.039063
1398.468750	68793.156250
1397.392578	69322.593750
1396.316406	69404.914063
1395.239258	70067.203125
1394.162109	70395.304688
1393.084961	71350.445313
1392.007813	71772.921875
1390.930664	73266.460938
1389.852539	73167.578125
1388.774414	73927.648438
1387.696289	74178.039063
1386.618164	74685.250000
1385.540039	74412.679688
1384.460938	74964.710938
1383.382813	74942.195313
1382.303711	74874.640625
1381.223633	75261.921875
1380.144531	75293.375000
1379.064453	74935.445313
1377.985352	74791.421875
1376.905273	75538.406250
1375.825195	74762.210938
1374.744141	74625.031250
1373.664063	74429.429688
1372.583008	74269.875000
1371.501953	73779.929688
1370.420898	74067.789063
1369.338867	74231.953125
1368.257813	73686.101563
1367.175781	73812.085938
1366.093750	73735.882813
1365.011719	73864.046875
1363.929688	74349.125000
1362.846680	74571.398438
1361.763672	74497.351563
1360.680664	75320.859375
1359.597656	74806.984375
1358.514648	75352.000000
1357.430664	74466.023438
1356.346680	74445.859375
1355.262695	74183.585938
1354.178711	73668.125000
1353.094727	73296.265625
1352.009766	72243.406250
1350.925781	71941.375000
1349.840820	71746.968750
1348.755859	72025.132813
1347.669922	70971.007813
1346.584961	71199.960938
1345.499023	70978.953125
1344.413086	70847.539063
1343.327148	70228.421875
1342.240234	70786.164063
1341.154297	70288.046875
1340.067383	70214.976563
1338.980469	70309.609375
1337.893555	70198.554688
1336.805664	70469.710938
1335.718750	70287.156250
1334.630859	70111.367188
1333.542969	70071.890625
1332.455078	70327.234375
1331.367188	70647.226563
1330.278320	70947.015625
1329.189453	70398.484375
1328.100586	71296.296875
1327.011719	71497.617188
1325.922852	71205.835938
1324.833008	72218.992188
1323.743164	72399.953125
1322.653320	73004.492188
1321.563477	73336.828125
1320.473633	74718.851563
1319.382813	75806.210938
1318.291992	77258.578125
1317.201172	77645.593750
1316.110352	78522.460938
1315.019531	80013.625000
1313.927734	80417.726563
1312.835938	80634.695313
1311.744141	81087.492188
1310.652344	80492.031250
1309.560547	79885.664063
1308.467773	78696.695313
1307.375000	78549.015625
1306.282227	77491.914063
1305.189453	76250.664063
1304.095703	75630.031250
1303.002930	74465.117188
1301.909180	74709.398438
1300.815430	74136.023438
1299.721680	73680.578125
1298.626953	73527.328125
1297.533203	72834.570313
1296.438477	74062.382813
1295.343750	73298.742188
1294.248047	73620.570313
1293.153320	73394.234375
1292.057617	73964.390625
1290.961914	74323.625000
1289.866211	74194.851563
1288.770508	74165.890625
1287.674805	74611.343750
1286.578125	74402.781250
1285.481445	74480.164063
1284.384766	74488.828125
1283.288086	74619.320313
1282.190430	74238.148438
1281.092773	73651.164063
1279.996094	73553.687500
1278.897461	73186.187500
1277.799805	73203.906250
1276.702148	73279.156250
1275.603516	72659.679688
1274.504883	72673.054688
1273.406250	71892.460938
1272.307617	71910.382813
1271.208008	71446.343750
1270.108398	71466.554688
1269.008789	71225.968750
1267.909180	71016.398438
1266.809570	71162.585938
1265.708984	70537.843750
1264.609375	70966.734375
1263.508789	69774.796875
1262.407227	70186.000000
1261.306641	69813.500000
1260.206055	69313.140625
1259.104492	69229.960938
1258.002930	69493.148438
1256.901367	69123.242188
1255.798828	68799.765625
1254.697266	69124.617188
1253.594727	68413.289063
1252.492188	68700.617188
1251.389648	68276.078125
1250.286133	68113.875000
1249.183594	68134.554688
1248.080078	68194.867188
1246.976563	67938.070313
1245.872070	68564.203125
1244.768555	68298.617188
1243.664063	68301.625000
1242.560547	68203.406250
1241.455078	68195.429688
1240.350586	68365.609375
1239.246094	68359.796875
1238.140625	68180.273438
1237.035156	68165.695313
1235.929688	68274.210938
1234.824219	68481.570313
1233.717773	67834.140625
1232.612305	68608.273438
1231.505859	67910.531250
1230.399414	68001.406250
1229.291992	67453.328125
1228.185547	67173.257813
1227.078125	67378.343750
1225.970703	66455.421875
1224.863281	66555.242188
1223.755859	66720.828125
1222.647461	66721.859375
1221.539063	66565.007813
1220.430664	66324.898438
1219.322266	66624.109375
1218.213867	65890.960938
1217.104492	66229.578125
1215.995117	65704.882813
1214.885742	66063.125000
1213.776367	65843.054688
1212.666992	66126.687500
1211.556641	65622.085938
1210.446289	65813.710938
1209.335938	65738.281250
1208.225586	66343.351563
1207.115234	66081.898438
1206.003906	66610.125000
1204.892578	66751.085938
1203.781250	66933.539063
1202.669922	66637.171875
1201.557617	66664.390625
1200.446289	67102.421875
1199.333984	67417.945313
1198.221680	67503.976563
1197.108398	67410.882813
1195.996094	67378.960938
1194.882813	67609.039063
1193.769531	67657.859375
1192.656250	68154.054688
1191.542969	67888.531250
1190.428711	67487.835938
1189.314453	67663.140625
1188.200195	67391.296875
1187.085938	67708.281250
1185.971680	67238.132813
1184.856445	66676.609375
1183.741211	66921.625000
1182.625977	67288.562500
1181.510742	66668.507813
1180.395508	67078.914063
1179.279297	66450.414063
1178.163086	66971.742188
1177.046875	66844.171875
1175.930664	67027.882813
1174.813477	66027.710938
1173.697266	66222.375000
1172.580078	66312.546875
1171.462891	66209.117188
1170.344727	66081.804688
1169.227539	65821.906250
1168.109375	65975.117188
1166.991211	65654.476563
1165.873047	65134.042969
1164.754883	65246.003906
1163.635742	65327.515625
1162.516602	65359.039063
1161.397461	65143.015625
1160.278320	65128.968750
1159.159180	64659.101563
1158.039063	64699.394531
1156.918945	65208.343750
1155.798828	64098.746094
1154.678711	64533.867188
1153.558594	64925.453125
1152.437500	65134.769531
1151.316406	64591.777344
1150.195313	64723.042969
1149.074219	65393.843750
1147.952148	65065.585938
1146.831055	64713.617188
1145.708984	65037.511719
1144.586914	65071.121094
1143.463867	65886.289063
1142.341797	66047.437500
1141.218750	66825.328125
1140.095703	66689.789063
1138.972656	67326.656250
1137.849609	67018.031250
1136.725586	67258.828125
1135.601563	67278.976563
1134.477539	67290.476563
1133.353516	66809.148438
1132.229492	66403.632813
1131.104492	66462.812500
1129.979492	66271.367188
1128.854492	66209.585938
1127.729492	66296.835938
1126.603516	66159.500000
1125.478516	66343.859375
1124.352539	66072.742188
1123.226563	65631.242188
1122.099609	65373.292969
1120.973633	65495.089844
1119.846680	64971.976563
1118.719727	64725.062500
1117.592773	64887.867188
1116.465820	64634.585938
1115.337891	64469.753906
1114.209961	64315.757813
1113.082031	64114.417969
1111.954102	64378.406250
1110.826172	64487.242188
1109.697266	64083.570313
1108.568359	63959.906250
1107.439453	63580.152344
1106.310547	63960.191406
1105.180664	63137.335938
1104.051758	63332.308594
1102.921875	63185.222656
1101.791992	63388.710938
1100.661133	63955.484375
1099.531250	63984.628906
1098.400391	63381.875000
1097.269531	63464.832031
1096.138672	64151.476563
1095.006836	63196.730469
1093.875977	63026.238281
1092.744141	63154.281250
1091.612305	63297.300781
1090.480469	62493.656250
1089.347656	62514.410156
1088.215820	62453.617188
1087.083008	62111.804688
1085.950195	62338.523438
1084.816406	62067.625000
1083.683594	62515.109375
1082.549805	62017.031250
1081.416016	61866.359375
1080.282227	62202.195313
1079.148438	62141.523438
1078.013672	62020.894531
1076.878906	62159.460938
1075.744141	61694.097656
1074.609375	62076.746094
1073.474609	62144.582031
1072.338867	61983.382813
1071.203125	61372.871094
1070.067383	61663.292969
1068.931641	62084.085938
1067.794922	61465.328125
1066.659180	61486.140625
1065.522461	61733.558594
1064.385742	61369.558594
1063.248047	61339.078125
1062.111328	62062.867188
1060.973633	61043.148438
1059.835938	61251.960938
1058.698242	61371.000000
1057.559570	61455.832031
1056.421875	61438.160156
1055.283203	61531.480469
1054.144531	61428.437500
1053.005859	61220.886719
1051.866211	61457.109375
1050.726563	61565.277344
1049.587891	61581.707031
1048.447266	61387.062500
1047.307617	60800.265625
1046.167969	61647.996094
1045.027344	61909.437500
1043.886719	61286.640625
1042.746094	61993.226563
1041.604492	61562.308594
1040.463867	61587.210938
1039.322266	61326.832031
1038.180664	61805.132813
1037.038086	61204.304688
1035.896484	60984.558594
1034.753906	61313.738281
1033.611328	61266.324219
1032.468750	61048.804688
1031.326172	60999.328125
1030.182617	61362.261719
1029.040039	60838.785156
1027.896484	60940.238281
1026.751953	60926.921875
1025.608398	61134.527344
1024.463867	61218.875000
1023.319336	61180.027344
1022.174805	61204.882813
1021.030273	60781.847656
1019.885742	61031.722656
1018.740234	60789.226563
1017.594727	60928.687500
1016.449219	60826.285156
1015.303711	60961.437500
1014.157227	60604.628906
1013.010742	60949.640625
1011.864258	60671.378906
1010.717773	60959.027344
1009.571289	61062.238281
1008.423828	61199.300781
1007.276367	60607.730469
1006.128906	61204.332031
1004.981445	61555.121094
1003.833008	61198.769531
1002.684570	61655.242188
1001.536133	61474.625000
1000.387695	61973.191406
999.239258	61843.339844
998.089844	62367.027344
996.941406	62245.605469
995.791992	61984.695313
994.641602	62129.710938
993.492188	61951.332031
992.341797	62121.644531
991.191406	61506.039063
990.041016	61526.406250
988.890625	61770.605469
987.739258	61674.789063
986.588867	61334.128906
985.437500	61445.257813
984.285156	61229.261719
983.133789	61192.675781
981.981445	61360.710938
980.829102	60826.378906
979.676758	61390.843750
978.524414	61417.492188
977.372070	60917.160156
976.218750	61150.414063
975.065430	61124.406250
973.912109	61443.902344
972.757813	61512.628906
971.604492	61640.289063
970.450195	61532.085938
969.295898	61672.324219
968.141602	61437.859375
966.986328	61186.644531
965.832031	61190.101563
964.676758	61111.515625
963.521484	61724.910156
962.365234	61646.250000
961.209961	61798.878906
960.053711	62006.105469
958.897461	62261.589844
957.741211	61976.953125
956.584961	61835.277344
955.427734	61912.101563
954.270508	62230.406250
953.113281	61796.890625
951.956055	61657.441406
950.797852	61612.492188
949.639648	61462.628906
948.481445	61186.925781
947.323242	61452.550781
946.165039	61380.398438
945.005859	61100.660156
943.847656	61016.011719
942.687500	61570.742188
941.528320	61316.265625
940.369141	61049.312500
939.208984	61360.691406
938.048828	61487.621094
936.888672	60776.781250
935.728516	61791.589844
934.567383	61589.675781
933.406250	61404.582031
932.245117	61374.414063
931.083984	61735.531250
929.922852	61931.246094
928.760742	62294.214844
927.598633	61561.246094
926.436523	61878.144531
925.274414	61904.347656
924.111328	61629.574219
922.948242	62272.261719
921.785156	62191.820313
920.622070	62389.226563
919.458984	61863.929688
918.294922	62265.957031
917.130859	62434.003906
915.966797	63140.523438
914.802734	62483.988281
913.637695	63033.738281
912.472656	63157.699219
911.307617	63325.410156
910.142578	63480.546875
908.977539	64288.242188
907.811523	63407.062500
906.645508	64798.062500
905.479492	64223.437500
904.313477	64019.886719
903.146484	64353.855469
901.980469	63783.785156
900.813477	63305.550781
899.646484	63212.652344
898.478516	63336.269531
897.311523	63010.300781
896.143555	62882.125000
894.975586	63242.894531
893.806641	63193.761719
892.638672	63167.519531
891.469727	62823.152344
890.300781	62805.296875
889.131836	62980.750000
887.962891	63052.222656
886.792969	63229.636719
885.623047	63062.136719
884.453125	63582.175781
883.283203	63400.132813
882.112305	63627.164063
880.942383	63791.835938
879.771484	63750.976563
878.600586	63959.136719
877.428711	64098.750000
876.257813	64082.738281
875.085938	64458.695313
873.914063	65083.332031
872.741211	64652.511719
871.569336	64827.089844
870.396484	64703.183594
869.223633	64726.425781
868.050781	64954.746094
866.877930	65311.394531
865.704102	65427.691406
864.530273	65980.804688
863.356445	66227.343750
862.182617	66575.203125
861.007813	67057.429688
859.833984	66829.843750
858.659180	67766.914063
857.484375	67440.000000
856.308594	67135.953125
855.133789	66765.859375
853.958008	66147.859375
852.782227	66298.867188
851.605469	66606.843750
850.429688	66011.929688
849.252930	66245.484375
848.076172	65721.070313
846.899414	66293.195313
845.722656	66970.390625
844.544922	66427.546875
843.367188	66867.148438
842.189453	67067.250000
841.011719	67529.257813
839.833008	67877.656250
838.655273	68390.882813
837.476563	68734.859375
836.296875	69183.835938
835.118164	69764.531250
833.938477	69345.679688
832.758789	69143.281250
831.579102	68537.257813
830.399414	67987.054688
829.219727	67455.585938
828.039063	66561.992188
826.858398	66255.320313
825.677734	65397.269531
824.496094	64942.785156
823.315430	65097.351563
822.133789	64879.601563
820.952148	64355.546875
819.769531	64078.386719
818.587891	63587.554688
817.405273	64081.316406
816.222656	63658.468750
815.040039	63529.546875
813.856445	63435.589844
812.673828	63705.156250
811.490234	63676.902344
810.305664	63404.363281
809.122070	63601.937500
807.938477	63226.906250
806.753906	63465.468750
805.569336	63572.656250
804.383789	64126.906250
803.199219	63918.140625
802.013672	64062.078125
800.828125	63935.386719
799.642578	62663.109375
798.457031	63178.070313
797.270508	62506.660156
796.083984	62607.695313
794.897461	61856.769531
793.710938	61974.265625
792.523438	61762.125000
791.336914	61683.101563
790.149414	61632.750000
788.961914	61496.484375
787.773438	61476.867188
786.585938	61070.707031
785.397461	61014.363281
784.208984	61612.269531
783.019531	61365.738281
781.831055	61421.769531
780.641602	60991.460938
779.452148	60614.425781
778.262695	60592.937500
777.072266	60730.742188
775.882813	60864.414063
774.692383	60189.621094
773.501953	60380.488281
772.310547	60061.109375
771.120117	60598.769531
769.928711	60826.164063
768.737305	60447.726563
767.544922	60350.828125
766.353516	60731.039063
765.161133	60687.121094
763.968750	60842.937500
762.776367	61514.218750
761.583984	61645.375000
760.390625	62405.871094
759.197266	62135.613281
758.003906	62099.609375
756.810547	62684.515625
755.616211	62507.976563
754.421875	62587.906250
753.227539	62409.410156
752.033203	62733.433594
750.838867	62563.105469
749.643555	62386.738281
748.448242	61927.835938
747.252930	61814.660156
746.057617	61746.234375
744.861328	61383.199219
743.665039	61113.750000
742.468750	61244.542969
741.272461	60843.210938
740.075195	60665.375000
738.878906	60132.339844
737.681641	60129.250000
736.484375	60385.906250
735.286133	60112.914063
734.087891	59823.796875
732.890625	59822.781250
731.691406	60456.460938
730.493164	59561.234375
729.294922	59917.019531
728.095703	59443.765625
726.896484	59637.332031
725.696289	59741.683594
724.497070	59633.312500
723.296875	59435.871094
722.096680	59402.511719
720.896484	59144.449219
719.696289	59406.656250
718.495117	59274.152344
717.293945	59716.296875
716.092773	59640.417969
714.891602	59617.152344
713.689453	59256.195313
712.487305	59421.027344
711.285156	59812.183594
710.083008	59857.605469
708.880859	59583.750000
707.677734	60168.593750
706.474609	59729.148438
705.271484	60129.968750
704.068359	59486.757813
702.864258	60050.984375
701.660156	59692.613281
700.456055	59384.820313
699.251953	59214.335938
698.046875	59415.082031
696.841797	59613.730469
695.636719	60118.808594
694.431641	59718.468750
693.226563	59725.453125
692.020508	59339.437500
690.814453	59880.445313
689.608398	59148.035156
688.402344	59469.324219
687.195313	59768.335938
685.988281	59577.964844
684.781250	59613.128906
683.574219	59420.839844
682.366211	59260.816406
681.158203	59233.640625
679.950195	59564.531250
678.742188	59778.644531
677.534180	59471.875000
676.325195	59249.656250
675.116211	59919.984375
673.907227	60077.589844
672.697266	60299.429688
671.488281	59890.378906
670.278320	59704.429688
669.068359	59823.792969
667.858398	59555.597656
666.647461	59432.035156
665.436523	59346.652344
664.225586	59024.511719
663.014648	59115.785156
661.802734	59024.484375
660.591797	58935.218750
659.379883	58699.605469
658.167969	58798.878906
656.955078	59278.953125
655.743164	58975.265625
654.530273	58763.851563
653.317383	59131.472656
652.103516	58495.484375
650.890625	59029.222656
649.676758	59314.492188
648.462891	59627.671875
647.249023	60369.039063
646.034180	59911.496094
644.819336	60728.550781
643.604492	60769.179688
642.389648	61145.781250
641.174805	61706.195313
639.958984	61068.890625
638.743164	61165.378906
637.527344	60666.300781
636.311523	60287.285156
635.094727	59860.468750
633.877930	59981.070313
632.661133	59879.964844
631.444336	59116.035156
630.226563	59336.507813
629.008789	58666.765625
627.791016	58717.625000
626.573242	58750.503906
625.355469	58458.234375
624.136719	58215.933594
622.917969	57834.140625
621.699219	57998.726563
620.480469	57834.371094
619.260742	58216.105469
618.041016	58087.628906
616.821289	57955.214844
615.601563	58274.960938
614.380859	58144.546875
613.160156	58024.132813
611.939453	57893.808594
610.718750	57658.050781
609.497070	57573.605469
608.276367	57924.878906
607.054688	57709.128906
605.832031	57668.464844
604.610352	58126.882813
603.387695	57774.042969
602.165039	57331.886719
600.942383	57887.476563
599.719727	57457.382813
598.496094	57259.863281
597.272461	57461.621094
596.048828	57341.613281
594.825195	57912.550781
593.600586	57595.984375
592.375977	57446.242188
591.151367	57181.468750
589.926758	57694.460938
588.701172	56959.652344
587.476563	57260.296875
586.250977	57297.121094
585.024414	57343.839844
583.798828	57344.953125
582.572266	57187.535156
581.345703	57366.984375
580.119141	57504.765625
578.892578	57610.804688
577.665039	57449.484375
576.437500	57424.824219
575.209961	57419.964844
573.982422	57656.542969
572.753906	57574.468750
571.525391	57759.488281
570.296875	57612.152344
569.068359	57431.246094
567.838867	57792.148438
566.610352	57334.523438
565.380859	57762.500000
564.150391	57702.230469
562.920898	58149.726563
561.690430	58002.492188
560.459961	57563.019531
559.229492	57714.097656
557.999023	57563.070313
556.767578	57479.203125
555.536133	57770.320313
554.304688	57682.496094
553.073242	57523.683594
551.840820	57641.054688
550.608398	57791.902344
549.375977	57575.976563
548.143555	57054.593750
546.910156	57672.542969
545.676758	57102.070313
544.443359	57201.640625
543.209961	57693.144531
541.975586	57203.726563
540.742188	57104.347656
539.507813	56951.847656
538.272461	57521.750000
537.038086	57449.906250
535.802734	57425.308594
534.567383	57544.320313
533.332031	57503.972656
532.096680	57550.160156
530.860352	57781.132813
529.624023	58147.644531
528.387695	58323.386719
527.151367	58255.410156
525.914063	58248.355469
524.676758	58942.507813
523.439453	58173.371094
522.202148	58454.949219
520.963867	57580.183594
519.725586	57471.191406
518.487305	57825.343750
517.249023	57320.027344
516.009766	57566.179688
514.771484	57170.925781
513.532227	57340.539063
512.291992	57347.363281
511.052734	57432.589844
509.812500	56912.222656
508.572266	57103.296875
507.332031	56822.183594
506.090820	56856.507813
504.850586	57399.957031
503.609375	57109.148438
502.368164	56888.917969
501.125977	57439.875000
499.884766	57041.589844
498.642578	56831.269531
497.400391	56935.945313
496.157227	57928.445313
494.915039	57413.042969
493.671875	57017.082031
492.428711	57217.406250
491.184570	57749.859375
489.941406	57738.949219
488.697266	57175.222656
487.453125	57681.984375
486.208984	57251.253906
484.963867	57461.050781
483.718750	57498.996094
482.473633	57306.632813
481.228516	57998.242188
479.982422	58123.843750
478.737305	58030.937500
477.491211	58062.871094
476.244141	58625.121094
474.998047	58469.785156
473.750977	58100.113281
472.503906	58716.593750
471.256836	58670.421875
470.009766	58575.570313
468.761719	58813.777344
467.513672	58615.726563
466.265625	58900.558594
465.017578	59002.308594
463.768555	58926.929688
462.519531	59182.343750
461.270508	59241.179688
460.021484	59259.148438
458.771484	59568.792969
457.521484	59666.398438
456.271484	59814.507813
455.021484	59931.457031
453.770508	61115.136719
452.519531	60528.515625
451.268555	60620.003906
450.017578	60859.050781
448.765625	60779.574219
447.514648	61630.000000
446.262695	61859.003906
445.009766	62784.578125
443.757813	62935.667969
442.504883	62991.640625
441.251953	63094.140625
439.999023	63062.800781
438.745117	62393.632813
437.492188	61255.636719
436.238281	60486.281250
434.983398	60253.937500
433.729492	59440.503906
432.474609	59590.003906
431.219727	58749.882813
429.964844	58523.839844
428.709961	58435.320313
427.454102	58681.656250
426.198242	58550.562500
424.942383	58111.898438
423.685547	57957.746094
422.429688	57946.761719
421.172852	58115.597656
419.916016	58075.582031
418.658203	57693.464844
417.401367	57777.218750
416.143555	57534.406250
414.885742	57529.292969
413.626953	57860.238281
412.369141	58281.808594
411.110352	57938.683594
409.851563	57989.460938
408.591797	57679.324219
407.333008	57809.242188
406.073242	58006.625000
404.813477	57868.316406
403.553711	58098.394531
402.292969	57641.980469
401.032227	57629.113281
