#Wave		#Intensity
2001.182617	36955.789063
2000.212891	36807.906250
1999.243164	37152.332031
1998.273438	36850.179688
1997.303711	37186.957031
1996.333008	36962.554688
1995.363281	37043.750000
1994.392578	37162.476563
1993.421875	37453.894531
1992.451172	37157.007813
1991.479492	37218.089844
1990.508789	37063.964844
1989.537109	36967.429688
1988.566406	37338.660156
1987.594727	37589.722656
1986.622070	37663.167969
1985.650391	37299.097656
1984.677734	37335.074219
1983.706055	37233.589844
1982.733398	36909.757813
1981.760742	37220.578125
1980.788086	37229.062500
1979.814453	37567.187500
1978.841797	37320.921875
1977.868164	37628.953125
1976.894531	37552.488281
1975.920898	37560.898438
1974.947266	37743.964844
1973.972656	37333.226563
1972.999023	37848.000000
1972.024414	37599.484375
1971.049805	37592.910156
1970.075195	37738.410156
1969.099609	37946.167969
1968.125000	37386.292969
1967.149414	38084.890625
1966.173828	37971.109375
1965.198242	37750.265625
1964.222656	37865.687500
1963.247070	38297.292969
1962.270508	37971.941406
1961.294922	38512.886719
1960.318359	38302.085938
1959.341797	38054.035156
1958.364258	38012.550781
1957.387695	38095.441406
1956.410156	38098.726563
1955.433594	38368.054688
1954.456055	38177.378906
1953.478516	38108.558594
1952.500000	38402.589844
1951.522461	38415.750000
1950.543945	38744.398438
1949.565430	38360.078125
1948.586914	38487.468750
1947.608398	38448.453125
1946.629883	38816.585938
1945.650391	39013.320313
1944.671875	39033.789063
1943.692383	38687.031250
1942.712891	39012.683594
1941.733398	39062.898438
1940.752930	38751.031250
1939.773438	39200.468750
1938.792969	38913.476563
1937.812500	39137.171875
1936.832031	39668.082031
1935.851563	38940.113281
1934.870117	39233.046875
1933.888672	39548.167969
1932.908203	39348.078125
1931.926758	39338.710938
1930.945313	39376.378906
1929.962891	39802.632813
1928.981445	39694.195313
1927.999023	39521.464844
1927.016602	39677.812500
1926.034180	39826.687500
1925.051758	39792.503906
1924.069336	39627.289063
1923.085938	39944.191406
1922.102539	39620.816406
1921.119141	40014.214844
1920.135742	39584.695313
1919.152344	39933.488281
1918.168945	40010.468750
1917.184570	40339.304688
1916.200195	40038.414063
1915.215820	40219.011719
1914.231445	40357.585938
1913.247070	40155.554688
1912.261719	40057.222656
1911.276367	39968.792969
1910.291992	40568.535156
1909.306641	40398.664063
1908.320313	40564.171875
1907.334961	40283.421875
1906.348633	40286.214844
1905.363281	40468.902344
1904.376953	40506.152344
1903.390625	40560.632813
1902.403320	40531.351563
1901.416992	40731.097656
1900.429688	40879.066406
1899.443359	40694.652344
1898.456055	40222.328125
1897.467773	40741.894531
1896.480469	40774.109375
1895.493164	40791.554688
1894.504883	41136.113281
1893.516602	41237.093750
1892.528320	40893.015625
1891.540039	41072.667969
1890.550781	40878.664063
1889.562500	40957.496094
1888.573242	40699.695313
1887.583984	41073.312500
1886.594727	40795.929688
1885.605469	40911.550781
1884.615234	40992.757813
1883.625000	41135.300781
1882.635742	41253.253906
1881.645508	40985.890625
1880.654297	41042.484375
1879.664063	41378.707031
1878.673828	41342.007813
1877.682617	40775.636719
1876.691406	41496.660156
1875.700195	41138.824219
1874.708984	41141.402344
1873.716797	41322.863281
1872.725586	41352.355469
1871.733398	41232.406250
1870.741211	41470.082031
1869.749023	41453.000000
1868.755859	41475.093750
1867.763672	41582.859375
1866.770508	41671.003906
1865.777344	41683.253906
1864.784180	41524.238281
1863.791016	41394.628906
1862.797852	41803.132813
1861.803711	41685.746094
1860.809570	42040.265625
1859.815430	41433.976563
1858.821289	41702.867188
1857.827148	41876.363281
1856.832031	41815.250000
1855.837891	42020.417969
1854.842773	41685.757813
1853.847656	41876.218750
1852.852539	41732.132813
1851.856445	41932.281250
1850.861328	41324.515625
1849.865234	42112.746094
1848.869141	42232.207031
1847.873047	42244.292969
1846.876953	41532.019531
1845.879883	42470.835938
1844.883789	42222.000000
1843.886719	42246.257813
1842.889648	42582.468750
1841.892578	42587.160156
1840.895508	42735.589844
1839.897461	42735.375000
1838.899414	43000.628906
1837.901367	42272.289063
1836.903320	42593.519531
1835.905273	42766.152344
1834.907227	42987.398438
1833.908203	42987.128906
1832.909180	43013.621094
1831.910156	43242.000000
1830.911133	43489.750000
1829.912109	42954.433594
1828.912109	43428.242188
1827.913086	43021.953125
1826.913086	43067.843750
1825.913086	43551.097656
1824.913086	42773.285156
1823.912109	43817.527344
1822.912109	43328.941406
1821.911133	43413.582031
1820.910156	43495.761719
1819.909180	43063.316406
1818.908203	43332.398438
1817.906250	43948.367188
1816.904297	43710.148438
1815.903320	43678.191406
1814.900391	43561.359375
1813.898438	43279.683594
1812.896484	44130.273438
1811.893555	44263.085938
1810.891602	43385.250000
1809.888672	43784.679688
1808.885742	43837.527344
1807.881836	43725.644531
1806.878906	43785.746094
1805.875000	43860.351563
1804.871094	44574.054688
1803.867188	43760.171875
1802.863281	43491.085938
1801.859375	44381.105469
1800.854492	44029.750000
1799.849609	44481.558594
1798.844727	44930.785156
1797.839844	44473.121094
1796.834961	44590.988281
1795.830078	44631.464844
1794.824219	44307.011719
1793.818359	44567.398438
1792.812500	44767.292969
1791.806641	44906.734375
1790.799805	44679.050781
1789.793945	45035.761719
1788.787109	44938.492188
1787.780273	45022.281250
1786.773438	45074.667969
1785.766602	45377.968750
1784.758789	45420.621094
1783.751953	45270.296875
1782.744141	45402.175781
1781.736328	45743.777344
1780.728516	45969.539063
1779.719727	45455.265625
1778.711914	45717.144531
1777.703125	46070.484375
1776.694336	45660.050781
1775.685547	45847.082031
1774.676758	45891.964844
1773.666992	46054.808594
1772.657227	45916.683594
1771.648438	45990.406250
1770.638672	45821.054688
1769.627930	45735.968750
1768.618164	46851.300781
1767.607422	46434.148438
1766.597656	46389.871094
1765.586914	46446.593750
1764.576172	46618.679688
1763.564453	46901.261719
1762.553711	46515.699219
1761.541992	46163.906250
1760.530273	46665.011719
1759.518555	46899.343750
1758.506836	46955.894531
1757.495117	47022.023438
1756.482422	47203.351563
1755.469727	47019.804688
1754.457031	47179.468750
1753.444336	47461.433594
1752.431641	47465.039063
1751.417969	47228.800781
1750.405273	47539.378906
1749.391602	48065.621094
1748.377930	47680.777344
1747.364258	47993.500000
1746.349609	48016.164063
1745.335938	48261.632813
1744.321289	47809.945313
1743.306641	48302.042969
1742.291992	47838.535156
1741.276367	48502.824219
1740.261719	48403.285156
1739.246094	47987.863281
1738.230469	48493.839844
1737.214844	49002.027344
1736.199219	48904.851563
1735.182617	49152.101563
1734.166992	49537.945313
1733.150391	49715.660156
1732.133789	49771.398438
1731.117188	50204.722656
1730.099609	50418.062500
1729.083008	50578.761719
1728.065430	50557.863281
1727.047852	51124.476563
1726.030273	51602.535156
1725.012695	51593.398438
1723.994141	51550.847656
1722.976563	52004.707031
1721.958008	51904.828125
1720.939453	52406.171875
1719.920898	52964.582031
1718.901367	52874.117188
1717.882813	52845.679688
1716.863281	53100.941406
1715.843750	53484.828125
1714.824219	53377.644531
1713.803711	53959.105469
1712.784180	54132.984375
1711.763672	54032.882813
1710.743164	53494.625000
1709.722656	54239.937500
1708.702148	54163.667969
1707.681641	53894.632813
1706.660156	54106.398438
1705.638672	53958.808594
1704.617188	53894.531250
1703.595703	54465.335938
1702.574219	53892.078125
1701.551758	54771.769531
1700.529297	53856.332031
1699.507813	54455.253906
1698.484375	54267.367188
1697.461914	53979.757813
1696.439453	54233.875000
1695.416016	54117.378906
1694.392578	54423.621094
1693.369141	54601.539063
1692.345703	54344.972656
1691.322266	54681.859375
1690.297852	54812.171875
1689.273438	54356.398438
1688.249023	54619.558594
1687.224609	54854.164063
1686.200195	54759.066406
1685.174805	54844.187500
1684.150391	55085.730469
1683.125000	54694.375000
1682.099609	54860.027344
1681.073242	54956.910156
1680.047852	55503.828125
1679.021484	55475.035156
1677.995117	56031.136719
1676.968750	55990.414063
1675.942383	56257.433594
1674.916016	56017.875000
1673.888672	56381.808594
1672.862305	56061.871094
1671.834961	56077.937500
1670.806641	56410.914063
1669.779297	56779.238281
1668.751953	56371.972656
1667.723633	57012.000000
1666.695313	56900.253906
1665.666992	56961.039063
1664.638672	57222.613281
1663.609375	57073.085938
1662.581055	57778.539063
1661.551758	57525.066406
1660.522461	57420.417969
1659.493164	57691.105469
1658.462891	57713.898438
1657.433594	57772.074219
1656.403320	57702.832031
1655.373047	57671.351563
1654.342773	57833.261719
1653.312500	57877.218750
1652.281250	58244.132813
1651.250977	58231.425781
1650.219727	58282.347656
1649.188477	58780.937500
1648.156250	58195.671875
1647.125000	58496.238281
1646.092773	58200.886719
1645.060547	59130.011719
1644.028320	58829.941406
1642.996094	58925.398438
1641.963867	59051.414063
1640.930664	59175.027344
1639.898438	59917.296875
1638.865234	59370.375000
1637.832031	59832.496094
1636.797852	59422.148438
1635.764648	60032.191406
1634.730469	60167.234375
1633.696289	60612.425781
1632.662109	60989.316406
1631.627930	60971.421875
1630.592773	61209.539063
1629.558594	61689.437500
1628.523438	61406.109375
1627.488281	62857.644531
1626.453125	62588.289063
1625.416992	62987.808594
1624.381836	63753.191406
1623.345703	64269.644531
1622.309570	64839.855469
1621.273438	65534.144531
1620.237305	66804.937500
1619.200195	67538.468750
1618.163086	67953.000000
1617.125977	69850.671875
1616.088867	70965.148438
1615.051758	72774.937500
1614.014648	73701.132813
1612.976563	75776.718750
1611.938477	76224.437500
1610.900391	77027.796875
1609.862305	77779.375000
1608.823242	77194.578125
1607.785156	76310.523438
1606.746094	75775.312500
1605.707031	74374.976563
1604.667969	73466.164063
1603.628906	72298.179688
1602.588867	71069.828125
1601.548828	70498.617188
1600.508789	69976.679688
1599.468750	69148.882813
1598.428711	68725.460938
1597.387695	68379.257813
1596.347656	67547.507813
1595.306641	67372.054688
1594.265625	66335.375000
1593.224609	67032.992188
1592.182617	66624.382813
1591.140625	66358.226563
1590.099609	66131.812500
1589.057617	65653.617188
1588.014648	65844.757813
1586.972656	65907.617188
1585.929688	65818.953125
1584.887695	66210.367188
1583.844727	65939.937500
1582.800781	65895.562500
1581.757813	65424.972656
1580.714844	66258.625000
1579.670898	66156.000000
1578.626953	66314.140625
1577.583008	67254.242188
1576.538086	67195.703125
1575.494141	67616.468750
1574.449219	67932.398438
1573.404297	68792.453125
1572.359375	68905.750000
1571.314453	69516.539063
1570.269531	69234.484375
1569.223633	69944.937500
1568.177734	69444.476563
1567.131836	69808.453125
1566.085938	69291.929688
1565.040039	69284.203125
1563.993164	69255.578125
1562.946289	69375.554688
1561.899414	68467.171875
1560.852539	68350.507813
1559.805664	67475.109375
1558.757813	67423.625000
1557.709961	66908.234375
1556.662109	66478.835938
1555.614258	65840.906250
1554.566406	65511.531250
1553.517578	65606.453125
1552.469727	64929.613281
1551.420898	64510.203125
1550.372070	64419.914063
1549.322266	64165.199219
1548.273438	63956.886719
1547.223633	63350.390625
1546.173828	63825.226563
1545.124023	63681.890625
1544.074219	63242.382813
1543.024414	62927.976563
1541.973633	62965.312500
1540.922852	63011.882813
1539.872070	63335.937500
1538.821289	62714.214844
1537.770508	62608.222656
1536.718750	62828.160156
1535.666992	62488.781250
1534.615234	62228.078125
1533.563477	62168.441406
1532.511719	62284.355469
1531.458984	61882.957031
1530.407227	62114.320313
1529.354492	62285.574219
1528.300781	61780.523438
1527.248047	61919.468750
1526.195313	61903.777344
1525.141602	61454.421875
1524.087891	61955.437500
1523.034180	61291.773438
1521.980469	61243.917969
1520.925781	61186.859375
1519.871094	61035.324219
1518.817383	60784.757813
1517.762695	60773.882813
1516.707031	60774.523438
1515.652344	60841.949219
1514.596680	60375.140625
1513.541016	60845.500000
1512.485352	60477.828125
1511.429688	60377.246094
1510.374023	59975.269531
1509.317383	60560.382813
1508.260742	60078.007813
1507.204102	60453.609375
1506.147461	60189.859375
1505.090820	59668.718750
1504.033203	60372.871094
1502.975586	60493.050781
1501.917969	59969.832031
1500.860352	59667.335938
1499.802734	60040.226563
1498.744141	60213.191406
1497.686523	59612.320313
1496.627930	60290.332031
1495.569336	60089.027344
1494.509766	59876.316406
1493.451172	59753.164063
1492.391602	59841.101563
1491.332031	59789.093750
1490.272461	60156.750000
1489.212891	59774.542969
1488.152344	59727.152344
1487.092773	60044.195313
1486.032227	59531.589844
1484.971680	59992.886719
1483.910156	59572.097656
1482.849609	60117.960938
1481.788086	59889.644531
1480.726563	59718.644531
1479.665039	59710.222656
1478.603516	60370.093750
1477.541992	59723.136719
1476.479492	60183.718750
1475.416992	59646.820313
1474.354492	59752.757813
1473.291992	60812.171875
1472.229492	59838.777344
1471.166016	60516.062500
1470.102539	60512.066406
1469.039063	60245.292969
1467.975586	60828.468750
1466.912109	60193.984375
1465.847656	60808.925781
1464.783203	60702.113281
1463.718750	60956.039063
1462.654297	61155.089844
1461.589844	61312.992188
1460.524414	61368.156250
1459.458984	60843.855469
1458.393555	60821.527344
1457.328125	61519.832031
1456.262695	61843.953125
1455.196289	61244.707031
1454.130859	61324.878906
1453.064453	61585.046875
1451.998047	61624.117188
1450.930664	61624.441406
1449.864258	62264.765625
1448.796875	61226.574219
1447.729492	61422.765625
1446.662109	61566.523438
1445.594727	62049.347656
1444.526367	62195.214844
1443.458008	62259.121094
1442.390625	62777.949219
1441.321289	62741.652344
1440.252930	63221.546875
1439.184570	63630.785156
1438.115234	63594.347656
1437.045898	63721.550781
1435.976563	64225.906250
1434.907227	64334.773438
1433.836914	64332.296875
1432.767578	64352.531250
1431.697266	65106.167969
1430.626953	65005.925781
1429.555664	65532.191406
1428.485352	66453.140625
1427.414063	65681.070313
1426.342773	65955.109375
1425.271484	65637.046875
1424.200195	66496.070313
1423.128906	66753.929688
1422.056641	66660.312500
1420.984375	66829.648438
1419.912109	66933.203125
1418.839844	66690.062500
1417.767578	67069.968750
1416.694336	66788.375000
1415.621094	67485.156250
1414.547852	67321.320313
1413.474609	66084.539063
1412.400391	66278.609375
1411.327148	66042.656250
1410.252930	66329.421875
1409.178711	66316.585938
1408.104492	66303.757813
1407.029297	66290.914063
1405.955078	66278.078125
1404.879883	66265.234375
1403.804688	66617.171875
1402.729492	66110.320313
1401.653320	66889.148438
1400.578125	67084.921875
1399.501953	67059.289063
1398.425781	67277.531250
1397.349609	67123.187500
1396.272461	66837.976563
1395.196289	67245.703125
1394.119141	66737.187500
1393.041992	67683.960938
1391.964844	67504.859375
1390.886719	68182.781250
1389.809570	68348.625000
1388.731445	68764.640625
1387.653320	68946.085938
1386.575195	69077.890625
1385.497070	69137.546875
1384.417969	69330.085938
1383.338867	69470.750000
1382.259766	69537.054688
1381.180664	69051.703125
1380.101563	69266.617188
1379.021484	69650.257813
1377.941406	69761.468750
1376.861328	69607.148438
1375.781250	69360.656250
1374.701172	69258.187500
1373.620117	69074.796875
1372.539063	68509.273438
1371.458008	68944.242188
1370.376953	68077.773438
1369.295898	67825.062500
1368.213867	67997.054688
1367.132813	67843.281250
1366.050781	67750.195313
1364.967773	67257.453125
1363.885742	67954.750000
1362.802734	68225.312500
1361.720703	68053.664063
1360.637695	67866.367188
1359.554688	67685.867188
1358.470703	68447.492188
1357.387695	67737.695313
1356.303711	67949.687500
1355.219727	67547.351563
1354.135742	67174.296875
1353.050781	66675.882813
1351.966797	66354.648438
1350.881836	66400.914063
1349.796875	66265.742188
1348.711914	65653.632813
1347.626953	64999.195313
1346.541016	65240.417969
1345.455078	65112.253906
1344.369141	64825.253906
1343.283203	64876.191406
1342.197266	65112.777344
1341.110352	64615.687500
1340.023438	65250.261719
1338.936523	64802.507813
1337.849609	64714.800781
1336.762695	65340.062500
1335.674805	65312.617188
1334.586914	64746.757813
1333.499023	65210.839844
1332.411133	65138.757813
1331.323242	64943.890625
1330.234375	65298.285156
1329.145508	65636.921875
1328.056641	65729.953125
1326.967773	65945.335938
1325.878906	66160.710938
1324.789063	66376.289063
1323.699219	66591.859375
1322.609375	66807.437500
1321.519531	67023.007813
1320.429688	67456.664063
1319.338867	68313.570313
1318.248047	68501.742188
1317.157227	69019.539063
1316.066406	69303.281250
1314.975586	70234.929688
1313.883789	70705.367188
1312.791992	70661.414063
1311.700195	70677.570313
1310.608398	70711.515625
1309.516602	70140.289063
1308.423828	69478.062500
1307.331055	69663.429688
1306.238281	69217.218750
1305.145508	69433.687500
1304.051758	69338.875000
1302.958984	68648.492188
1301.865234	69098.250000
1300.771484	69554.507813
1299.677734	69797.359375
1298.583008	70382.125000
1297.489258	70995.539063
1296.394531	71422.250000
1295.299805	71848.804688
1294.204102	72499.335938
1293.109375	71634.187500
1292.013672	72288.960938
1290.917969	71523.968750
1289.822266	71122.937500
1288.726563	70436.023438
1287.630859	70629.429688
1286.534180	69962.804688
1285.437500	69571.195313
1284.340820	69068.945313
1283.244141	68721.937500
1282.146484	69050.570313
1281.048828	68181.085938
1279.951172	67464.687500
1278.853516	67589.703125
1277.755859	67794.351563
1276.658203	66748.695313
1275.559570	66513.148438
1274.460938	66658.140625
1273.362305	66362.976563
1272.262695	65891.023438
1271.164063	65790.648438
1270.064453	65723.460938
1268.964844	65391.101563
1267.865234	65169.335938
1266.765625	65212.750000
1265.665039	65066.191406
1264.564453	64270.417969
1263.463867	64863.750000
1262.363281	64423.714844
1261.262695	64239.871094
1260.161133	63934.718750
1259.059570	63803.980469
1257.958008	64138.746094
1256.856445	63785.246094
1255.754883	63489.207031
1254.652344	63382.882813
1253.549805	63578.593750
1252.447266	62714.121094
1251.344727	63454.160156
1250.242188	62693.566406
1249.138672	63074.281250
1248.035156	62886.644531
1246.931641	62580.167969
1245.828125	62826.390625
1244.724609	62885.425781
1243.620117	62856.406250
1242.515625	62299.300781
1241.411133	62188.992188
1240.306641	62817.777344
1239.201172	62977.906250
1238.096680	62777.378906
1236.991211	62739.597656
1235.885742	62833.707031
1234.779297	62719.007813
1233.673828	62098.996094
1232.567383	62764.328125
1231.460938	62559.644531
1230.354492	62651.492188
1229.248047	62398.597656
1228.140625	62404.820313
1227.033203	62125.718750
1225.926758	62305.343750
1224.818359	62590.210938
1223.710938	63070.203125
1222.602539	62479.738281
1221.495117	62770.988281
1220.386719	62853.851563
1219.278320	62546.507813
1218.168945	61989.429688
1217.060547	62144.695313
1215.951172	62203.503906
1214.841797	62069.531250
1213.731445	61740.695313
1212.622070	62060.101563
1211.511719	61672.269531
1210.402344	61702.644531
1209.291992	61533.855469
1208.180664	62008.406250
1207.070313	61671.171875
1205.958984	62488.914063
1204.847656	62184.511719
1203.736328	62240.980469
1202.625000	61927.984375
1201.512695	62141.839844
1200.401367	62185.164063
1199.289063	62324.601563
1198.176758	62380.980469
1197.063477	62188.351563
1195.951172	62709.843750
1194.837891	63084.867188
1193.724609	63263.292969
1192.611328	63635.886719
1191.498047	62965.324219
1190.383789	63167.664063
1189.269531	63219.421875
1188.155273	62715.039063
1187.041016	62784.296875
1185.926758	62428.414063
1184.811523	62637.195313
1183.696289	62519.003906
1182.581055	62540.300781
1181.465820	62267.492188
1180.350586	62576.332031
1179.234375	62292.722656
1178.118164	62577.488281
1177.001953	62047.988281
1175.885742	61847.328125
1174.768555	61531.406250
1173.652344	61507.140625
1172.535156	61189.214844
1171.417969	61556.500000
1170.299805	61353.925781
1169.182617	61047.066406
1168.064453	61242.445313
1166.946289	60948.750000
1165.828125	61211.429688
1164.709961	61300.207031
1163.590820	60687.351563
1162.471680	60602.449219
1161.352539	60954.015625
1160.233398	60849.550781
1159.114258	60712.562500
1157.994141	61200.628906
1156.874023	60792.402344
1155.753906	60655.492188
1154.633789	60720.343750
1153.513672	60678.910156
1152.392578	61003.910156
1151.271484	60580.902344
1150.150391	60866.785156
1149.029297	60712.660156
1147.907227	61093.734375
1146.786133	61522.328125
1145.664063	61463.457031
1144.541992	61473.894531
1143.418945	61583.917969
1142.296875	61975.296875
1141.173828	62143.617188
1140.050781	62344.332031
1138.927734	62493.046875
1137.803711	62797.441406
1136.680664	62723.261719
1135.556641	63172.371094
1134.432617	63251.636719
1133.308594	63294.125000
1132.183594	63639.144531
1131.059570	62854.000000
1129.934570	63553.253906
1128.809570	62988.718750
1127.684570	62955.617188
1126.558594	63237.757813
1125.432617	62962.843750
1124.307617	63264.296875
1123.180664	62454.312500
1122.054688	63051.324219
1120.928711	62916.847656
1119.801758	62711.246094
1118.674805	62632.941406
1117.547852	62485.671875
1116.419922	62506.585938
1115.292969	62531.800781
1114.165039	62600.097656
1113.037109	62383.992188
1111.909180	62198.117188
1110.780273	61956.312500
1109.652344	61916.996094
1108.523438	62183.386719
1107.394531	62585.277344
1106.264648	62147.738281
1105.135742	61886.785156
1104.005859	62292.804688
1102.875977	62416.917969
1101.746094	62186.156250
1100.616211	62086.632813
1099.485352	62098.921875
1098.355469	62607.679688
1097.224609	62074.054688
1096.092773	62114.261719
1094.961914	62373.558594
1093.830078	62402.949219
1092.699219	62176.804688
1091.567383	61613.675781
1090.434570	62068.191406
1089.302734	61818.613281
1088.169922	61747.218750
1087.037109	61671.558594
1085.904297	62076.386719
1084.771484	61702.597656
1083.637695	62075.105469
1082.504883	61690.726563
1081.371094	61724.441406
1080.236328	62203.882813
1079.102539	61804.683594
1077.968750	62041.859375
1076.833984	62349.625000
1075.699219	61680.796875
1074.564453	61815.089844
1073.428711	61912.941406
1072.292969	61871.636719
1071.158203	61719.074219
1070.022461	62045.796875
1068.885742	62124.269531
1067.750000	62363.113281
1066.613281	62535.574219
1065.476563	62359.500000
1064.339844	62625.945313
1063.203125	62828.175781
1062.065430	62233.347656
1060.927734	61976.265625
1059.790039	61808.984375
1058.652344	62534.410156
1057.514648	61876.000000
1056.375977	62031.167969
1055.237305	62124.378906
1054.098633	62002.023438
1052.959961	62474.972656
1051.820313	62017.683594
1050.681641	61628.808594
1049.541992	62329.726563
1048.402344	62467.535156
1047.261719	61925.304688
1046.122070	63395.140625
1044.981445	62665.425781
1043.840820	62553.800781
1042.700195	62144.003906
1041.558594	62256.125000
1040.417969	61825.238281
1039.276367	62482.359375
1038.134766	62332.542969
1036.992188	62021.042969
1035.850586	62086.257813
1034.708008	62223.773438
1033.565430	62603.707031
1032.422852	62215.820313
1031.280273	61732.394531
1030.136719	62037.800781
1028.994141	62187.937500
1027.850586	62093.648438
1026.706055	62460.421875
1025.562500	61724.605469
1024.417969	62023.343750
1023.273438	62334.710938
1022.128906	61688.480469
1020.984375	62008.281250
1019.839844	62190.015625
1018.694336	62059.769531
1017.548828	62222.328125
1016.403320	62378.460938
1015.256836	61732.917969
1014.111328	62667.222656
1012.964844	62142.695313
1011.818359	61921.441406
1010.671875	61787.156250
1009.524414	62263.109375
1008.377930	62501.628906
1007.230469	62252.929688
1006.083008	62518.890625
1004.934570	63013.402344
1003.787109	62760.503906
1002.638672	62859.019531
1001.490234	63444.175781
1000.341797	63819.667969
999.193359	64326.164063
998.043945	64352.402344
996.894531	64535.097656
995.745117	64601.449219
994.595703	64460.632813
993.446289	64292.394531
992.295898	64485.515625
991.145508	64148.328125
989.995117	64039.371094
988.844727	63926.226563
987.693359	64340.953125
986.541992	64398.777344
985.390625	64095.667969
984.239258	63959.375000
983.087891	64249.304688
981.935547	64165.757813
980.783203	63915.632813
979.630859	63935.496094
978.478516	63940.593750
977.325195	63796.027344
976.172852	64045.605469
975.019531	64092.812500
973.865234	63636.503906
972.711914	63662.699219
971.557617	63556.210938
970.404297	63752.953125
969.250000	63419.125000
968.094727	63375.875000
966.940430	63334.742188
965.785156	64208.843750
964.629883	63309.304688
963.474609	62925.378906
962.319336	63288.082031
961.163086	63635.937500
960.007813	63596.886719
958.851563	63362.390625
957.694336	64115.570313
956.538086	63509.210938
955.380859	63180.332031
954.223633	63752.515625
953.066406	63883.542969
951.909180	63103.417969
950.751953	63683.683594
949.593750	63510.355469
948.435547	63301.417969
947.277344	63176.464844
946.118164	63112.382813
944.959961	62958.148438
943.800781	63592.292969
942.641602	62809.156250
941.482422	62370.019531
940.322266	62622.542969
939.162109	62856.113281
938.001953	62922.023438
936.841797	63048.636719
935.681641	62733.390625
934.520508	63119.582031
933.360352	63084.914063
932.198242	63064.902344
931.037109	63842.082031
929.875977	63217.351563
928.713867	63816.429688
927.551758	63313.218750
926.389648	63734.328125
925.227539	63141.425781
924.064453	63391.023438
922.901367	63836.957031
921.738281	63361.351563
920.575195	63719.386719
919.412109	63983.300781
918.248047	63756.410156
917.083984	64270.746094
915.919922	64089.800781
914.755859	63921.441406
913.590820	65019.691406
912.426758	65193.351563
911.261719	65189.652344
910.095703	65657.250000
908.930664	65791.078125
907.764648	65543.351563
906.598633	65918.914063
905.432617	66008.843750
904.266602	65861.218750
903.099609	65551.164063
901.933594	65551.546875
900.766602	65197.925781
899.599609	65121.332031
898.431641	64536.863281
897.264648	64504.121094
896.096680	64513.003906
894.928711	64650.867188
893.759766	64665.953125
892.591797	64577.046875
891.422852	64465.300781
890.253906	64143.628906
889.084961	64549.542969
887.916016	63880.921875
886.746094	64120.507813
885.576172	64200.050781
884.406250	64190.250000
883.236328	64707.902344
882.065430	64220.484375
880.895508	64459.773438
879.724609	64775.757813
878.552734	64489.867188
877.381836	64990.371094
876.209961	64785.437500
875.039063	65051.347656
873.866211	65215.554688
872.694336	65371.402344
871.522461	64718.828125
870.349609	65477.757813
869.176758	65314.382813
868.003906	65132.421875
866.830078	65215.636719
865.657227	65605.296875
864.483398	66019.656250
863.309570	66460.765625
862.135742	66694.750000
860.960938	66496.156250
859.786133	66967.960938
858.611328	66767.320313
857.436523	66769.429688
856.261719	66808.757813
855.085938	66523.484375
853.910156	65920.000000
852.734375	65709.398438
851.558594	65893.507813
850.382813	65769.742188
849.206055	65724.507813
848.029297	65623.523438
846.852539	65516.386719
845.674805	66084.304688
844.498047	66241.296875
843.320313	66299.179688
842.142578	66837.750000
840.963867	67732.968750
839.786133	67982.335938
838.607422	68394.500000
837.428711	69746.609375
836.250000	69717.179688
835.070313	70681.093750
833.891602	70183.773438
832.711914	69766.976563
831.532227	69171.140625
830.352539	68571.398438
829.171875	67409.781250
827.991211	66999.976563
826.810547	66454.476563
825.629883	66275.460938
824.449219	65345.554688
823.267578	65018.703125
822.085938	64831.816406
820.904297	63966.433594
819.722656	64186.875000
818.540039	64111.238281
817.357422	64189.761719
816.174805	63035.406250
814.992188	63407.867188
813.809570	63919.859375
812.625977	63402.804688
811.442383	63555.289063
810.258789	63114.441406
809.074219	63024.726563
807.890625	63175.132813
806.706055	63635.289063
805.521484	63207.050781
804.336914	62936.890625
803.151367	63480.898438
801.966797	62796.648438
800.781250	63205.183594
799.594727	62666.742188
798.409180	62538.304688
797.222656	61930.523438
796.037109	61988.656250
794.849609	61454.921875
793.663086	61050.378906
792.476563	61098.398438
791.289063	61297.855469
790.101563	61073.636719
788.914063	60532.371094
787.725586	60500.660156
786.538086	60685.750000
785.349609	61003.683594
784.161133	60284.957031
782.971680	60637.589844
781.783203	60495.515625
780.593750	60024.515625
779.404297	60095.070313
778.214844	59934.781250
777.024414	60638.394531
775.834961	59796.101563
774.644531	59629.824219
773.454102	59557.500000
772.262695	60009.644531
771.072266	60010.718750
769.880859	59960.792969
768.689453	59488.699219
767.497070	59881.378906
766.305664	60337.105469
765.113281	60287.144531
763.920898	60416.542969
762.728516	60539.777344
761.536133	60687.410156
760.342773	61156.808594
759.149414	61292.046875
757.956055	61527.000000
756.762695	61261.078125
755.568359	61980.355469
754.374023	62263.882813
753.179688	61700.910156
751.985352	61829.777344
750.791016	61346.406250
749.595703	61493.585938
748.400391	61661.039063
747.205078	60771.425781
746.009766	61235.664063
744.813477	60403.351563
743.617188	60461.164063
742.420898	60417.398438
741.224609	60066.992188
740.027344	60338.023438
738.830078	59705.582031
737.632813	59682.273438
736.435547	59691.437500
735.238281	59315.105469
734.040039	59249.277344
732.841797	59473.492188
731.643555	59200.820313
730.445313	59412.789063
729.246094	58769.281250
728.046875	58938.687500
726.847656	59239.738281
725.648438	58748.554688
724.449219	58885.457031
723.249023	58921.046875
722.048828	58460.558594
720.848633	58348.433594
719.647461	58535.894531
718.447266	58504.734375
717.246094	58560.582031
716.044922	59093.800781
714.842773	58492.207031
713.641602	58614.746094
712.439453	59026.347656
711.237305	58653.503906
710.035156	58594.050781
708.832031	58938.734375
707.629883	58461.058594
706.426758	59357.050781
705.223633	59297.500000
704.019531	59466.121094
702.815430	58746.449219
701.612305	59421.710938
700.408203	59329.890625
699.203125	58776.078125
697.999023	59452.964844
696.793945	59357.148438
695.588867	59507.375000
694.383789	60082.933594
693.177734	60055.578125
691.971680	60336.578125
690.766602	60345.449219
689.559570	60861.984375
688.353516	60270.523438
687.146484	60678.128906
685.939453	60860.078125
684.732422	61015.781250
683.525391	60169.113281
682.318359	60055.234375
681.110352	59959.503906
679.902344	59656.617188
678.693359	60075.851563
677.485352	59793.156250
676.276367	59848.316406
675.067383	60265.265625
673.858398	59938.472656
672.649414	60282.906250
671.439453	60303.769531
670.229492	60457.187500
669.019531	59865.515625
667.809570	59948.679688
666.598633	59668.468750
665.387695	59787.757813
664.176758	59413.363281
662.965820	59201.613281
661.754883	59435.253906
660.542969	59017.003906
659.331055	58917.726563
658.119141	58644.070313
656.906250	58723.289063
655.694336	58449.765625
654.481445	58877.621094
653.268555	58552.078125
652.054688	58372.871094
650.841797	58584.218750
649.627930	58459.121094
648.414063	58874.554688
647.200195	58813.488281
645.985352	59436.800781
644.770508	59707.757813
643.555664	59664.566406
642.340820	59877.378906
641.125977	60074.109375
639.910156	60012.875000
638.694336	59631.851563
637.478516	59546.734375
636.262695	59541.566406
635.045898	59552.378906
633.829102	59253.605469
632.612305	58920.996094
631.395508	59087.640625
630.177734	58393.871094
628.959961	58746.160156
627.742188	58058.695313
626.524414	58564.523438
625.306641	58312.187500
624.087891	57838.574219
622.869141	57983.250000
621.650391	58428.898438
620.430664	57957.511719
619.211914	58032.332031
617.992188	58521.542969
616.772461	58470.789063
615.551758	58419.996094
614.332031	58369.242188
613.111328	58318.449219
611.890625	58267.652344
610.669922	58216.859375
609.448242	58301.441406
608.226563	58179.089844
607.004883	58482.441406
605.783203	57976.277344
604.561523	58231.828125
603.338867	58008.183594
602.116211	58237.789063
600.893555	58244.738281
599.669922	58539.769531
598.447266	58500.964844
597.223633	58259.593750
596.000000	58143.406250
594.775391	58753.894531
593.551758	57932.996094
592.327148	58584.960938
591.102539	58288.230469
589.877930	58505.417969
588.652344	58492.441406
587.426758	58423.941406
586.201172	58680.628906
584.975586	58483.257813
583.750000	59366.140625
582.523438	59343.089844
581.296875	59254.667969
580.070313	59354.457031
578.842773	59618.585938
577.616211	60203.390625
576.388672	60233.644531
575.161133	60186.691406
573.932617	60098.191406
572.705078	60156.140625
571.476563	59966.785156
570.248047	59943.640625
569.018555	60066.835938
567.790039	59946.792969
566.560547	59470.976563
565.331055	59111.941406
564.101563	59337.941406
562.871094	58886.207031
561.641602	58746.734375
560.411133	58226.152344
559.179688	58732.523438
557.949219	58348.351563
556.717773	57360.343750
555.486328	58198.117188
554.254883	57930.664063
553.023438	57736.300781
551.791016	58098.195313
550.558594	57276.792969
549.326172	57674.121094
548.093750	57613.980469
546.860352	57516.414063
545.627930	57862.234375
544.393555	57672.058594
543.160156	57241.648438
541.926758	57707.445313
540.692383	57391.386719
539.458008	57246.707031
538.223633	57487.855469
536.988281	56760.726563
535.752930	57893.136719
534.517578	57301.929688
533.282227	57592.042969
532.046875	57539.894531
530.810547	57831.812500
529.574219	57640.074219
528.337891	58087.113281
527.101563	58072.234375
525.864258	58222.378906
524.626953	57961.953125
523.389648	57986.371094
522.152344	58103.058594
520.914063	57897.761719
519.675781	58004.601563
518.437500	58158.496094
517.199219	58045.507813
515.959961	58332.714844
514.721680	58082.445313
513.482422	58196.980469
512.242188	58440.859375
511.002930	58282.828125
509.762695	57987.671875
508.522461	58254.957031
507.282227	58120.546875
506.041016	57788.371094
504.800781	57849.917969
503.559570	57735.230469
502.318359	57898.550781
501.076172	57789.765625
499.833984	57868.863281
498.592773	57877.503906
497.349609	57784.421875
496.107422	57918.230469
494.864258	58394.156250
493.622070	57743.875000
492.377930	57938.195313
491.134766	58210.605469
489.891602	58394.988281
488.647461	58034.296875
487.403320	57882.710938
486.158203	58004.558594
484.914063	58540.250000
483.668945	58238.347656
482.423828	58438.113281
481.178711	58358.777344
479.932617	58519.425781
478.686523	58600.035156
477.440430	58752.769531
476.194336	59094.566406
474.948242	58985.925781
473.701172	59405.503906
472.454102	58983.113281
471.207031	59718.144531
469.958984	59475.054688
468.711914	59516.390625
467.463867	59401.937500
466.215820	59731.390625
464.966797	59620.824219
463.718750	59426.621094
462.469727	59746.144531
461.220703	60610.234375
459.970703	60801.042969
458.721680	60723.425781
457.471680	61079.390625
456.221680	60807.359375
454.970703	61252.570313
453.720703	61425.574219
452.469727	61924.886719
451.218750	62025.824219
449.966797	62132.546875
448.715820	62384.847656
447.463867	63487.328125
446.211914	63483.074219
444.959961	64260.851563
443.707031	64694.921875
442.454102	64929.027344
441.201172	65184.371094
439.948242	64799.726563
438.695313	63370.265625
437.441406	63098.527344
436.187500	62090.460938
434.933594	61470.292969
433.678711	60759.304688
432.424805	60486.320313
431.169922	60790.507813
429.914063	60041.324219
428.659180	60128.667969
427.403320	60233.398438
426.147461	59552.460938
424.891602	59641.777344
423.635742	59529.890625
422.378906	59276.863281
421.122070	59275.292969
419.865234	59627.496094
418.608398	59515.683594
417.350586	59032.878906
416.092773	58816.882813
414.834961	59520.468750
413.577148	59032.136719
412.318359	59302.863281
411.059570	59002.023438
409.800781	59201.230469
408.541992	59298.074219
407.282227	59423.820313
406.022461	59354.671875
404.762695	59544.003906
403.502930	59310.937500
402.242188	59317.035156
400.981445	59197.828125
