#Wave		#Intensity
2001.221680	39933.789063
2000.251953	39846.058594
1999.282227	39969.421875
1998.312500	40017.566406
1997.342773	40143.355469
1996.372070	39883.367188
1995.402344	39996.609375
1994.431641	39624.058594
1993.460938	39839.949219
1992.490234	39735.375000
1991.518555	39933.644531
1990.547852	39934.179688
1989.576172	40242.417969
1988.604492	39982.761719
1987.632813	40103.320313
1986.661133	40101.316406
1985.689453	39954.316406
1984.716797	40534.722656
1983.745117	40035.320313
1982.772461	39733.488281
1981.799805	39916.410156
1980.827148	40289.097656
1979.853516	40242.097656
1978.880859	40552.171875
1977.907227	40335.382813
1976.933594	40176.078125
1975.959961	40448.562500
1974.986328	40149.558594
1974.011719	40177.468750
1973.038086	40716.695313
1972.063477	40579.894531
1971.088867	40415.718750
1970.114258	40391.199219
1969.138672	40448.945313
1968.164063	40252.472656
1967.188477	40404.902344
1966.212891	40696.785156
1965.237305	40415.679688
1964.261719	40503.246094
1963.286133	40685.398438
1962.309570	40255.070313
1961.333984	40038.949219
1960.357422	40621.750000
1959.380859	40627.085938
1958.404297	40530.417969
1957.426758	40533.277344
1956.450195	40421.738281
1955.472656	40245.589844
1954.495117	40161.480469
1953.517578	40654.054688
1952.540039	40632.031250
1951.561523	40450.992188
1950.583008	40640.167969
1949.605469	40439.316406
1948.626953	40690.515625
1947.647461	41070.734375
1946.668945	40723.441406
1945.690430	40768.437500
1944.710938	40773.707031
1943.731445	40808.750000
1942.751953	40933.089844
1941.772461	40762.218750
1940.791992	40596.367188
1939.812500	40589.257813
1938.832031	40745.769531
1937.851563	41172.394531
1936.871094	40929.757813
1935.890625	40451.816406
1934.909180	41225.085938
1933.928711	40643.230469
1932.947266	41153.687500
1931.965820	41020.203125
1930.984375	41040.250000
1930.002930	40978.605469
1929.020508	41055.570313
1928.038086	40909.816406
1927.056641	41023.867188
1926.074219	41511.363281
1925.090820	41219.695313
1924.108398	40863.843750
1923.125000	41096.476563
1922.142578	40926.144531
1921.159180	41405.808594
1920.175781	41126.761719
1919.191406	41183.785156
1918.208008	41524.828125
1917.223633	41638.554688
1916.240234	41522.617188
1915.255859	41557.304688
1914.271484	41567.296875
1913.286133	41283.617188
1912.301758	41360.269531
1911.316406	41570.105469
1910.331055	41466.621094
1909.345703	41348.378906
1908.360352	41545.773438
1907.375000	41109.542969
1906.388672	40959.378906
1905.402344	41270.093750
1904.416016	40910.515625
1903.429688	41400.960938
1902.443359	41218.820313
1901.457031	41718.886719
1900.469727	41408.718750
1899.482422	41423.609375
1898.495117	41512.332031
1897.507813	41145.761719
1896.520508	41564.199219
1895.532227	41345.343750
1894.543945	41478.285156
1893.556641	41707.082031
1892.568359	41289.156250
1891.579102	41876.812500
1890.590820	41461.460938
1889.601563	41562.308594
1888.613281	41493.585938
1887.624023	41432.257813
1886.634766	41530.597656
1885.644531	41609.253906
1884.655273	41491.464844
1883.665039	41535.730469
1882.674805	41457.257813
1881.684570	41621.753906
1880.694336	41832.808594
1879.704102	41810.746094
1878.712891	41700.390625
1877.722656	41938.289063
1876.731445	41847.562500
1875.740234	41903.945313
1874.748047	41729.917969
1873.756836	42220.042969
1872.764648	41509.449219
1871.773438	41205.750000
1870.781250	41930.828125
1869.788086	41727.554688
1868.795898	42111.964844
1867.803711	41534.191406
1866.810547	41930.730469
1865.817383	41688.441406
1864.824219	41764.300781
1863.831055	42067.632813
1862.837891	41671.355469
1861.843750	42162.882813
1860.849609	41864.523438
1859.855469	42316.730469
1858.861328	41886.468750
1857.867188	42047.714844
1856.872070	42313.960938
1855.877930	42548.355469
1854.882813	42281.984375
1853.887695	42096.289063
1852.892578	42376.980469
1851.896484	41859.343750
1850.901367	41930.082031
1849.905273	42230.171875
1848.909180	42327.656250
1847.913086	42439.738281
1846.916992	42010.339844
1845.919922	42627.199219
1844.923828	42302.753906
1843.926758	42197.804688
1842.929688	42665.632813
1841.932617	42458.308594
1840.935547	42385.058594
1839.937500	42433.625000
1838.939453	42284.898438
1837.942383	42550.183594
1836.943359	42727.726563
1835.945313	43036.648438
1834.947266	42819.769531
1833.948242	43026.367188
1832.949219	42872.816406
1831.951172	43449.066406
1830.951172	43032.828125
1829.952148	43176.011719
1828.953125	42631.117188
1827.953125	43131.640625
1826.953125	43221.257813
1825.953125	43322.992188
1824.953125	42822.175781
1823.952148	43052.683594
1822.952148	43763.972656
1821.951172	42942.816406
1820.950195	43279.996094
1819.949219	43199.550781
1818.948242	43238.050781
1817.946289	43286.242188
1816.945313	43346.546875
1815.943359	43266.140625
1814.941406	43413.730469
1813.939453	43437.601563
1812.936523	43250.542969
1811.934570	43504.707031
1810.931641	43005.066406
1809.928711	43721.988281
1808.925781	43365.417969
1807.921875	43292.375000
1806.918945	43405.832031
1805.915039	43841.292969
1804.912109	43995.765625
1803.908203	43876.664063
1802.903320	43910.070313
1801.899414	43885.390625
1800.894531	44027.644531
1799.890625	43964.246094
1798.885742	43925.054688
1797.880859	44069.636719
1796.875000	44613.062500
1795.870117	44356.230469
1794.864258	44358.074219
1793.858398	44222.187500
1792.852539	44349.671875
1791.846680	44163.109375
1790.840820	44556.203125
1789.833984	44369.664063
1788.828125	44728.781250
1787.821289	44264.703125
1786.814453	44633.359375
1785.806641	44659.261719
1784.799805	44921.570313
1783.791992	44812.339844
1782.784180	44331.765625
1781.776367	44755.531250
1780.768555	44899.507813
1779.760742	44416.753906
1778.751953	45078.855469
1777.743164	45109.445313
1776.735352	45135.207031
1775.725586	44871.929688
1774.716797	45116.863281
1773.708008	45161.867188
1772.698242	45575.167969
1771.688477	44914.855469
1770.678711	45034.464844
1769.668945	45642.457031
1768.659180	45670.476563
1767.648438	45409.867188
1766.637695	45733.703125
1765.626953	45788.136719
1764.616211	45806.488281
1763.605469	45625.343750
1762.593750	45612.476563
1761.583008	45414.609375
1760.571289	46314.621094
1759.559570	45787.648438
1758.547852	45779.558594
1757.535156	46107.597656
1756.523438	46394.714844
1755.510742	46355.312500
1754.498047	46171.941406
1753.485352	46526.066406
1752.472656	46359.519531
1751.458984	46574.375000
1750.445313	46796.343750
1749.432617	46337.332031
1748.417969	46751.031250
1747.404297	46589.378906
1746.390625	46801.597656
1745.375977	46920.300781
1744.361328	47165.917969
1743.346680	47488.085938
1742.332031	47374.324219
1741.317383	48096.160156
1740.302734	47893.761719
1739.287109	48050.425781
1738.271484	48379.324219
1737.255859	48509.527344
1736.240234	49177.890625
1735.223633	48977.859375
1734.208008	49471.343750
1733.191406	49412.382813
1732.174805	49864.976563
1731.158203	49913.511719
1730.140625	50239.207031
1729.124023	51252.839844
1728.106445	50806.644531
1727.088867	51048.414063
1726.071289	51001.171875
1725.053711	51328.765625
1724.035156	51436.640625
1723.017578	51933.480469
1721.999023	51633.175781
1720.980469	51831.589844
1719.961914	52060.937500
1718.942383	52292.589844
1717.923828	52340.554688
1716.904297	52443.335938
1715.884766	52693.855469
1714.865234	52296.066406
1713.844727	52396.410156
1712.825195	52225.132813
1711.804688	52315.917969
1710.784180	52590.046875
1709.763672	52064.042969
1708.743164	52069.101563
1707.722656	52340.738281
1706.701172	52305.285156
1705.679688	51684.523438
1704.658203	52284.371094
1703.636719	52001.574219
1702.615234	51730.769531
1701.592773	51590.828125
1700.571289	51553.156250
1699.548828	51662.859375
1698.526367	51437.445313
1697.502930	51276.265625
1696.480469	51492.851563
1695.457031	51127.449219
1694.433594	51163.503906
1693.410156	51073.707031
1692.386719	51207.082031
1691.363281	51062.714844
1690.338867	51122.476563
1689.314453	50785.988281
1688.290039	51706.882813
1687.265625	50827.269531
1686.241211	51259.324219
1685.215820	51309.507813
1684.191406	50778.890625
1683.166016	51407.437500
1682.140625	51161.347656
1681.115234	51249.410156
1680.088867	51624.070313
1679.062500	51352.015625
1678.037109	51515.765625
1677.010742	51613.164063
1675.983398	51682.121094
1674.957031	51230.367188
1673.930664	52044.750000
1672.903320	51458.234375
1671.875977	52071.218750
1670.848633	51707.218750
1669.820313	51790.257813
1668.792969	52199.531250
1667.764648	52445.550781
1666.736328	52188.085938
1665.708008	52034.675781
1664.679688	52327.839844
1663.651367	52072.886719
1662.622070	52755.617188
1661.592773	52342.468750
1660.563477	52529.125000
1659.534180	52567.000000
1658.504883	52257.941406
1657.474609	52444.503906
1656.444336	52947.128906
1655.415039	53256.156250
1654.383789	52930.675781
1653.353516	52911.839844
1652.323242	52812.851563
1651.291992	53256.027344
1650.260742	53807.449219
1649.229492	53496.285156
1648.198242	53670.535156
1647.166016	54551.339844
1646.134766	53618.484375
1645.102539	54091.640625
1644.070313	54451.628906
1643.038086	54319.554688
1642.004883	54606.414063
1640.972656	54330.828125
1639.939453	54605.816406
1638.906250	55572.214844
1637.873047	55364.792969
1636.839844	55740.550781
1635.805664	55615.445313
1634.772461	55513.890625
1633.738281	55529.863281
1632.704102	55559.929688
1631.668945	55672.203125
1630.634766	56752.105469
1629.599609	56211.292969
1628.565430	56846.957031
1627.530273	56407.257813
1626.494141	57033.269531
1625.458984	57185.039063
1624.422852	57604.218750
1623.387695	58412.652344
1622.351563	58540.632813
1621.315430	58837.402344
1620.278320	60503.281250
1619.242188	61010.562500
1618.205078	62375.457031
1617.167969	63955.449219
1616.130859	65141.273438
1615.093750	67418.257813
1614.055664	69258.804688
1613.018555	70859.851563
1611.980469	72074.023438
1610.942383	72824.289063
1609.904297	72371.328125
1608.865234	72445.015625
1607.827148	71440.148438
1606.788086	70115.179688
1605.749023	68049.304688
1604.709961	66510.281250
1603.669922	65294.429688
1602.630859	63221.160156
1601.590820	62408.292969
1600.550781	61203.160156
1599.510742	60960.968750
1598.470703	60025.132813
1597.429688	59967.730469
1596.389648	59917.347656
1595.348633	59351.050781
1594.307617	58941.335938
1593.265625	58926.164063
1592.224609	58540.000000
1591.182617	58235.621094
1590.140625	58477.144531
1589.098633	58494.703125
1588.056641	57901.367188
1587.014648	58194.101563
1585.971680	58004.253906
1584.928711	58618.453125
1583.886719	58083.757813
1582.842773	58080.386719
1581.799805	57879.039063
1580.755859	58211.039063
1579.712891	58535.933594
1578.668945	58150.699219
1577.625000	58394.023438
1576.580078	58427.820313
1575.536133	58771.042969
1574.491211	58811.734375
1573.446289	58696.582031
1572.401367	58932.601563
1571.356445	59140.632813
1570.311523	58965.035156
1569.265625	59256.652344
1568.219727	58730.207031
1567.173828	58928.820313
1566.127930	58309.703125
1565.082031	58039.171875
1564.035156	58024.167969
1562.988281	57972.019531
1561.941406	58089.339844
1560.894531	57698.351563
1559.847656	57581.308594
1558.799805	57751.988281
1557.751953	57781.109375
1556.704102	57736.000000
1555.656250	58078.144531
1554.608398	58065.453125
1553.560547	58592.843750
1552.511719	58452.597656
1551.462891	58513.984375
1550.414063	58554.500000
1549.365234	58720.078125
1548.315430	58572.949219
1547.265625	58585.640625
1546.216797	58297.367188
1545.166992	58312.410156
1544.116211	58234.878906
1543.066406	58407.261719
1542.015625	58177.050781
1540.965820	58374.820313
1539.915039	57918.062500
1538.863281	57829.097656
1537.812500	57675.433594
1536.760742	58034.933594
1535.709961	57897.457031
1534.658203	57392.660156
1533.605469	57239.175781
1532.553711	56914.824219
1531.501953	57047.824219
1530.449219	56970.664063
1529.396484	56387.984375
1528.343750	56897.203125
1527.290039	56210.902344
1526.237305	55690.957031
1525.183594	55990.105469
1524.129883	55844.011719
1523.076172	55428.175781
1522.022461	55169.261719
1520.968750	55359.937500
1519.914063	55456.046875
1518.859375	54757.140625
1517.804688	54915.523438
1516.750000	54993.230469
1515.694336	54490.531250
1514.639648	54561.371094
1513.583984	54692.042969
1512.528320	54762.820313
1511.472656	54750.714844
1510.416016	54664.980469
1509.360352	54797.832031
1508.303711	54525.800781
1507.247070	54934.597656
1506.190430	54922.460938
1505.132813	54732.789063
1504.076172	54543.289063
1503.018555	54353.617188
1501.960938	54163.945313
1500.903320	54172.625000
1499.844727	54514.343750
1498.787109	54499.988281
1497.728516	54249.136719
1496.669922	53835.386719
1495.611328	54454.636719
1494.552734	54174.089844
1493.493164	54396.121094
1492.434570	54452.902344
1491.375000	54032.589844
1490.315430	54252.226563
1489.254883	54425.925781
1488.195313	54478.066406
1487.134766	54204.726563
1486.074219	54250.007813
1485.013672	53933.273438
1483.953125	53941.929688
1482.892578	54337.644531
1481.831055	54568.343750
1480.769531	54723.402344
1479.708008	54120.718750
1478.646484	54641.988281
1477.583984	54565.828125
1476.522461	54519.437500
1475.459961	54445.613281
1474.397461	54808.632813
1473.334961	54698.191406
1472.271484	54816.410156
1471.208984	54765.429688
1470.145508	54792.171875
1469.082031	55433.562500
1468.018555	55592.675781
1466.954102	55817.968750
1465.890625	55885.601563
1464.826172	56238.625000
1463.761719	56118.953125
1462.697266	56713.750000
1461.631836	56368.101563
1460.567383	57131.480469
1459.501953	57100.695313
1458.436523	57186.242188
1457.371094	57235.269531
1456.305664	57142.910156
1455.239258	56943.441406
1454.172852	57703.601563
1453.107422	57267.101563
1452.040039	57124.667969
1450.973633	56847.882813
1449.907227	57151.984375
1448.839844	57228.253906
1447.772461	57215.699219
1446.705078	57280.542969
1445.637695	57274.808594
1444.569336	57046.066406
1443.500977	57820.746094
1442.432617	57450.949219
1441.364258	57763.582031
1440.295898	57637.234375
1439.227539	57660.980469
1438.158203	57730.179688
1437.088867	57974.347656
1436.019531	58054.820313
1434.950195	58396.531250
1433.879883	58633.625000
1432.810547	58393.710938
1431.740234	58617.089844
1430.669922	59146.875000
1429.598633	58623.257813
1428.528320	59334.398438
1427.457031	58779.164063
1426.386719	59161.066406
1425.314453	58519.867188
1424.243164	58643.144531
1423.171875	58532.832031
1422.099609	58418.023438
1421.027344	58198.992188
1419.955078	58091.082031
1418.882813	57772.488281
1417.810547	57780.218750
1416.737305	57826.449219
1415.664063	58411.621094
1414.590820	57660.738281
1413.517578	58304.582031
1412.444336	58126.605469
1411.370117	58489.527344
1410.295898	58503.890625
1409.221680	58420.976563
1408.147461	58706.742188
1407.073242	58933.613281
1405.998047	58911.699219
1404.922852	59104.539063
1403.847656	58899.531250
1402.772461	58897.968750
1401.697266	58632.070313
1400.621094	58838.363281
1399.544922	58710.332031
1398.468750	58586.859375
1397.392578	59219.730469
1396.316406	59186.496094
1395.239258	59918.324219
1394.162109	59192.253906
1393.084961	59603.464844
1392.007813	60203.996094
1390.930664	60195.406250
1389.852539	61061.671875
1388.774414	61082.230469
1387.696289	61618.941406
1386.618164	61688.968750
1385.540039	61961.750000
1384.460938	62290.750000
1383.382813	62779.542969
1382.303711	62928.117188
1381.223633	63137.425781
1380.144531	62984.226563
1379.064453	63272.218750
1377.985352	63222.558594
1376.905273	63557.648438
1375.825195	63103.039063
1374.744141	62916.234375
1373.664063	63114.019531
1372.583008	62774.390625
1371.501953	62014.527344
1370.420898	62039.300781
1369.338867	62037.101563
1368.257813	61511.429688
1367.175781	60976.957031
1366.093750	60923.285156
1365.011719	60263.363281
1363.929688	60917.027344
1362.846680	60638.925781
1361.763672	60426.003906
1360.680664	60020.187500
1359.597656	59560.675781
1358.514648	59168.613281
1357.430664	59615.429688
1356.346680	59499.289063
1355.262695	58932.582031
1354.178711	58928.671875
1353.094727	59148.859375
1352.009766	58690.062500
1350.925781	58444.250000
1349.840820	58066.375000
1348.755859	58295.503906
1347.669922	58623.066406
1346.584961	58359.523438
1345.499023	57670.820313
1344.413086	58199.707031
1343.327148	57902.816406
1342.240234	57970.652344
1341.154297	58369.472656
1340.067383	58065.996094
1338.980469	58205.300781
1337.893555	58074.082031
1336.805664	58117.230469
1335.718750	57822.945313
1334.630859	58223.578125
1333.542969	58364.949219
1332.455078	58492.871094
1331.367188	58734.621094
1330.278320	58924.933594
1329.189453	58900.894531
1328.100586	58765.273438
1327.011719	58805.972656
1325.922852	59116.593750
1324.833008	59137.132813
1323.743164	58972.566406
1322.653320	59222.781250
1321.563477	59508.566406
1320.473633	59397.507813
1319.382813	59290.945313
1318.291992	59500.804688
1317.201172	59574.695313
1316.110352	59379.058594
1315.019531	59239.164063
1313.927734	59862.992188
1312.835938	59981.277344
1311.744141	59894.753906
1310.652344	59812.710938
1309.560547	59370.269531
1308.467773	59846.683594
1307.375000	59573.417969
1306.282227	59827.253906
1305.189453	60047.644531
1304.095703	59834.500000
1303.002930	59574.761719
1301.909180	59859.511719
1300.815430	60326.328125
1299.721680	59757.878906
1298.626953	60426.640625
1297.533203	60679.933594
1296.438477	60418.085938
1295.343750	60504.808594
1294.248047	60935.480469
1293.153320	60953.292969
1292.057617	60913.417969
1290.961914	61430.277344
1289.866211	61452.417969
1288.770508	61199.609375
1287.674805	61928.945313
1286.578125	61403.519531
1285.481445	61731.445313
1284.384766	61724.695313
1283.288086	61534.082031
1282.190430	61321.386719
1281.092773	60457.730469
1279.996094	60654.894531
1278.897461	60604.058594
1277.799805	60267.738281
1276.702148	60593.160156
1275.603516	60157.398438
1274.504883	59805.847656
1273.406250	59746.355469
1272.307617	59660.343750
1271.208008	59554.464844
1270.108398	59497.253906
1269.008789	59267.675781
1267.909180	58901.187500
1266.809570	58404.484375
1265.708984	58890.875000
1264.609375	58495.933594
1263.508789	58266.734375
1262.407227	58763.914063
1261.306641	58717.945313
1260.206055	58049.667969
1259.104492	57988.394531
1258.002930	58079.351563
1256.901367	57374.054688
1255.798828	57745.144531
1254.697266	57904.437500
1253.594727	57192.933594
1252.492188	57480.097656
1251.389648	57262.527344
1250.286133	57496.691406
1249.183594	57116.187500
1248.080078	56936.238281
1246.976563	57223.175781
1245.872070	57177.562500
1244.768555	57180.390625
1243.664063	56795.875000
1242.560547	56873.582031
1241.455078	56506.855469
1240.350586	56663.765625
1239.246094	56391.773438
1238.140625	56568.433594
1237.035156	56896.714844
1235.929688	56754.500000
1234.824219	56709.031250
1233.717773	56323.011719
1232.612305	56490.722656
1231.505859	56309.140625
1230.399414	56088.097656
1229.291992	55992.281250
1228.185547	56216.992188
1227.078125	56118.988281
1225.970703	56227.289063
1224.863281	56028.386719
1223.755859	55809.812500
1222.647461	55700.976563
1221.539063	55186.507813
1220.430664	55873.664063
1219.322266	55870.085938
1218.213867	56054.984375
1217.104492	55908.937500
1215.995117	55581.105469
1214.885742	55634.523438
1213.776367	56009.851563
1212.666992	55933.980469
1211.556641	55542.882813
1210.446289	55390.511719
1209.335938	55804.992188
1208.225586	55278.468750
1207.115234	55758.445313
1206.003906	55870.789063
1204.892578	55790.644531
1203.781250	55730.210938
1202.669922	56026.117188
1201.557617	55978.769531
1200.446289	56289.816406
1199.333984	56421.589844
1198.221680	56424.429688
1197.108398	56750.507813
1195.996094	56585.140625
1194.882813	57057.339844
1193.769531	57239.050781
1192.656250	57459.972656
1191.542969	57034.917969
1190.428711	57423.785156
1189.314453	57408.968750
1188.200195	57527.187500
1187.085938	57357.539063
1185.971680	57133.445313
1184.856445	57513.207031
1183.741211	56957.910156
1182.625977	57276.550781
1181.510742	57507.933594
1180.395508	57564.980469
1179.279297	57273.574219
1178.163086	57554.898438
1177.046875	57154.746094
1175.930664	57359.808594
1174.813477	57140.453125
1173.697266	57132.218750
1172.580078	57515.542969
1171.462891	57439.812500
1170.344727	57507.628906
1169.227539	56755.769531
1168.109375	57023.664063
1166.991211	56722.042969
1165.873047	56305.363281
1164.754883	56518.875000
1163.635742	56517.257813
1162.516602	56706.757813
1161.397461	56212.207031
1160.278320	56034.792969
1159.159180	56285.042969
1158.039063	56413.671875
1156.918945	56485.835938
1155.798828	56616.546875
1154.678711	56161.578125
1153.558594	56444.093750
1152.437500	56520.527344
1151.316406	56185.046875
1150.195313	56359.027344
1149.074219	56184.050781
1147.952148	56745.789063
1146.831055	56601.128906
1145.708984	56701.257813
1144.586914	57063.367188
1143.463867	57418.843750
1142.341797	56590.132813
1141.218750	57127.355469
1140.095703	57467.472656
1138.972656	57521.078125
1137.849609	57574.687500
1136.725586	57628.339844
1135.601563	57681.992188
1134.477539	57735.648438
1133.353516	57789.300781
1132.229492	57100.167969
1131.104492	57009.792969
1129.979492	57189.488281
1128.854492	57509.511719
1127.729492	57274.417969
1126.603516	56871.000000
1125.478516	57102.386719
1124.352539	57057.421875
1123.226563	57040.527344
1122.099609	56732.367188
1120.973633	56174.085938
1119.846680	56659.875000
1118.719727	56888.878906
1117.592773	56637.015625
1116.465820	56202.019531
1115.337891	56144.332031
1114.209961	56168.546875
1113.082031	55912.683594
1111.954102	56120.015625
1110.826172	55694.113281
1109.697266	55369.562500
1108.568359	56136.605469
1107.439453	55928.320313
1106.310547	55334.894531
1105.180664	55458.179688
1104.051758	55583.566406
1102.921875	55934.742188
1101.791992	55593.343750
1100.661133	54811.304688
1099.531250	55566.558594
1098.400391	55812.160156
1097.269531	55842.777344
1096.138672	55456.578125
1095.006836	55787.976563
1093.875977	55380.445313
1092.744141	55428.289063
1091.612305	54986.621094
1090.480469	54772.640625
1089.347656	54854.898438
1088.215820	55029.390625
1087.083008	54774.750000
1085.950195	54979.218750
1084.816406	54778.292969
1083.683594	54167.898438
1082.549805	54580.304688
1081.416016	54306.675781
1080.282227	54793.906250
1079.148438	54595.324219
1078.013672	54398.957031
1076.878906	54234.785156
1075.744141	54111.355469
1074.609375	54435.445313
1073.474609	54063.710938
1072.338867	54304.214844
1071.203125	54394.839844
1070.067383	54579.566406
1068.931641	54201.648438
1067.794922	54600.203125
1066.659180	54635.101563
1065.522461	54257.375000
1064.385742	54760.429688
1063.248047	53656.199219
1062.111328	54107.894531
1060.973633	54437.652344
1059.835938	54252.531250
1058.698242	54039.710938
1057.559570	53995.640625
1056.421875	54062.593750
1055.283203	54603.347656
1054.144531	54300.980469
1053.005859	54022.195313
1051.866211	53882.164063
1050.726563	54354.296875
1049.587891	54924.339844
1048.447266	54428.167969
1047.307617	54104.839844
1046.167969	54397.550781
1045.027344	54376.917969
1043.886719	54496.898438
1042.746094	54631.746094
1041.604492	54244.769531
1040.463867	54081.511719
1039.322266	54297.250000
1038.180664	54589.531250
1037.038086	54177.300781
1035.896484	54341.832031
1034.753906	54110.617188
1033.611328	54079.414063
1032.468750	54173.691406
1031.326172	54784.582031
1030.182617	54255.839844
1029.040039	54158.738281
1027.896484	54119.042969
1026.751953	54213.214844
1025.608398	54422.050781
1024.463867	54072.246094
1023.319336	54338.363281
1022.174805	53999.312500
1021.030273	54324.773438
1019.885742	54183.214844
1018.740234	54495.785156
1017.594727	54148.460938
1016.449219	54306.078125
1015.303711	54643.894531
1014.157227	54292.484375
1013.010742	54352.468750
1011.864258	54588.343750
1010.717773	54561.359375
1009.571289	54258.945313
1008.423828	54015.957031
1007.276367	54012.382813
1006.128906	54358.207031
1004.981445	54504.886719
1003.833008	54698.078125
1002.684570	55020.300781
1001.536133	54826.089844
1000.387695	55306.835938
999.239258	55349.546875
998.089844	55206.132813
996.941406	55250.957031
995.791992	55236.566406
994.641602	55329.980469
993.492188	55317.687500
992.341797	55554.722656
991.191406	55430.429688
990.041016	55568.082031
988.890625	55327.675781
987.739258	55116.917969
986.588867	55509.972656
985.437500	55527.195313
984.285156	55582.394531
983.133789	55270.460938
981.981445	55289.820313
980.829102	55216.375000
979.676758	54750.746094
978.524414	54928.300781
977.372070	55341.871094
976.218750	55647.800781
975.065430	55317.281250
973.912109	55203.867188
972.757813	55566.519531
971.604492	55438.355469
970.450195	55200.750000
969.295898	55396.886719
968.141602	55222.511719
966.986328	55610.066406
965.832031	55437.816406
964.676758	55391.843750
963.521484	55747.597656
962.365234	55609.054688
961.209961	55695.519531
960.053711	55832.402344
958.897461	55601.441406
957.741211	55845.445313
956.584961	55780.531250
955.427734	55736.644531
954.270508	55827.175781
953.113281	55655.207031
951.956055	55682.734375
950.797852	55995.710938
949.639648	55668.503906
948.481445	56054.792969
947.323242	55312.332031
946.165039	55237.113281
945.005859	55621.164063
943.847656	55028.046875
942.687500	55227.523438
941.528320	55439.496094
940.369141	55242.773438
939.208984	55230.488281
938.048828	55354.359375
936.888672	55836.312500
935.728516	55264.839844
934.567383	55202.304688
933.406250	55439.109375
932.245117	55485.382813
931.083984	55778.539063
929.922852	55663.648438
928.760742	55615.722656
927.598633	55858.496094
926.436523	55764.554688
925.274414	55952.851563
924.111328	55681.265625
922.948242	55840.250000
921.785156	55781.886719
920.622070	55997.187500
919.458984	55805.144531
918.294922	56210.378906
917.130859	55995.398438
915.966797	56404.617188
914.802734	56131.242188
913.637695	56598.703125
912.472656	56367.109375
911.307617	57391.261719
910.142578	57049.074219
908.977539	57146.957031
907.811523	57690.917969
906.645508	57990.816406
905.479492	57290.332031
904.313477	57225.574219
903.146484	56952.523438
901.980469	56966.992188
900.813477	56735.734375
899.646484	56785.625000
898.478516	56136.082031
897.311523	56094.484375
896.143555	56238.093750
894.975586	56000.929688
893.806641	56169.457031
892.638672	55716.105469
891.469727	55732.832031
890.300781	56134.144531
889.131836	55818.222656
887.962891	55666.585938
886.792969	55652.136719
885.623047	55847.500000
884.453125	55891.167969
883.283203	55920.285156
882.112305	56294.035156
880.942383	55781.269531
879.771484	55990.945313
878.600586	56273.164063
877.428711	56488.890625
876.257813	56822.765625
875.085938	56457.613281
873.914063	57185.332031
872.741211	56932.191406
871.569336	56907.140625
870.396484	57020.949219
869.223633	56709.957031
868.050781	57097.199219
866.877930	56517.046875
865.704102	57218.945313
864.530273	57489.929688
863.356445	58114.789063
862.182617	58702.160156
861.007813	58008.421875
859.833984	58835.585938
858.659180	58758.492188
857.484375	59283.257813
856.308594	58385.203125
855.133789	58461.218750
853.958008	58299.496094
852.782227	58121.296875
851.605469	58153.917969
850.429688	58091.492188
849.252930	58122.035156
848.076172	58154.628906
846.899414	58022.031250
845.722656	58069.078125
844.544922	58421.562500
843.367188	58629.468750
842.189453	58841.421875
841.011719	59106.921875
839.833008	59755.929688
838.655273	60316.027344
837.476563	60886.222656
836.296875	61120.218750
835.118164	61086.214844
833.938477	60949.191406
832.758789	60647.414063
831.579102	60767.984375
830.399414	59432.554688
829.219727	59147.687500
828.039063	58298.871094
826.858398	57612.964844
825.677734	57721.628906
824.496094	57134.835938
823.315430	56511.230469
822.133789	56560.386719
820.952148	56473.804688
819.769531	55838.328125
818.587891	55575.132813
817.405273	56105.316406
816.222656	55303.820313
815.040039	55252.464844
813.856445	55049.128906
812.673828	54601.488281
811.490234	54683.742188
810.305664	54854.238281
809.122070	54669.589844
807.938477	54694.320313
806.753906	54546.695313
805.569336	55082.214844
804.383789	54813.566406
803.199219	53983.156250
802.013672	54385.210938
800.828125	54055.335938
799.642578	54303.519531
798.457031	54510.628906
797.270508	54090.765625
796.083984	53839.015625
794.897461	53478.816406
793.710938	53182.222656
792.523438	53086.359375
791.336914	52787.894531
790.149414	53269.210938
788.961914	53001.511719
787.773438	52496.617188
786.585938	52838.636719
785.397461	52589.562500
784.208984	52594.093750
783.019531	52572.046875
781.831055	52388.554688
780.641602	52497.324219
779.452148	52244.445313
778.262695	52157.109375
777.072266	51683.828125
775.882813	51941.687500
774.692383	51842.203125
773.501953	51893.785156
772.310547	51718.835938
771.120117	51919.359375
769.928711	51923.976563
768.737305	51771.542969
767.544922	52041.273438
766.353516	51546.355469
765.161133	51940.363281
763.968750	51863.437500
762.776367	52255.195313
761.583984	52290.285156
760.390625	52268.328125
759.197266	52651.640625
758.003906	53016.480469
756.810547	53257.003906
755.616211	53664.332031
754.421875	53560.726563
753.227539	53872.218750
752.033203	53493.988281
750.838867	53189.113281
749.643555	53128.367188
748.448242	53209.957031
747.252930	52187.753906
746.057617	52354.839844
744.861328	52056.546875
743.665039	52105.761719
742.468750	51565.906250
741.272461	51771.562500
740.075195	51301.003906
738.878906	51344.218750
737.681641	51318.410156
736.484375	50858.339844
735.286133	51149.136719
734.087891	50971.230469
732.890625	50497.273438
731.691406	50560.855469
730.493164	50375.042969
729.294922	50659.566406
728.095703	50639.984375
726.896484	50523.144531
725.696289	50704.156250
724.497070	50362.511719
723.296875	50249.832031
722.096680	50238.429688
720.896484	50172.375000
719.696289	50298.621094
718.495117	50040.328125
717.293945	50095.730469
716.092773	50070.199219
714.891602	49617.925781
713.689453	50021.175781
712.487305	50165.492188
711.285156	49717.488281
710.083008	49900.199219
708.880859	49979.789063
707.677734	49802.777344
706.474609	50013.644531
705.271484	50117.394531
704.068359	50061.593750
702.864258	49850.371094
701.660156	49671.519531
700.456055	50122.335938
699.251953	49701.386719
698.046875	50083.441406
696.841797	49719.117188
695.636719	49824.765625
694.431641	49573.527344
693.226563	49417.117188
692.020508	49861.332031
690.814453	50347.691406
689.608398	49723.835938
688.402344	50185.863281
687.195313	50285.230469
685.988281	50050.324219
684.781250	50105.382813
683.574219	49953.113281
682.366211	49738.519531
681.158203	49908.281250
679.950195	49701.812500
678.742188	50000.230469
677.534180	50208.046875
676.325195	50498.214844
675.116211	50249.570313
673.907227	50177.871094
672.697266	50558.289063
671.488281	50345.929688
670.278320	50189.882813
669.068359	50634.343750
667.858398	50572.664063
666.647461	50274.132813
665.436523	50403.210938
664.225586	50056.652344
663.014648	50179.703125
661.802734	50172.316406
660.591797	49864.093750
659.379883	50281.863281
658.167969	49767.238281
656.955078	49683.757813
655.743164	49576.257813
654.530273	49398.664063
653.317383	50026.464844
652.103516	49330.089844
650.890625	49691.324219
649.676758	49892.246094
648.462891	49972.980469
647.249023	49595.359375
646.034180	49876.218750
644.819336	50160.976563
643.604492	49829.527344
642.389648	49966.187500
641.174805	49878.839844
639.958984	50201.359375
638.743164	49800.183594
637.527344	50084.621094
636.311523	50309.003906
635.094727	49880.062500
633.877930	50294.140625
632.661133	50308.675781
631.444336	49602.445313
630.226563	50074.226563
629.008789	49853.281250
627.791016	49448.835938
626.573242	49792.687500
625.355469	49607.816406
624.136719	49791.960938
622.917969	49662.988281
621.699219	49480.230469
620.480469	49235.753906
619.260742	49330.144531
618.041016	49801.066406
616.821289	49486.937500
615.601563	49439.808594
614.380859	49279.191406
613.160156	49305.781250
611.939453	48890.449219
610.718750	49149.949219
609.497070	49399.402344
608.276367	49211.078125
607.054688	49046.691406
605.832031	48914.187500
604.610352	49324.539063
603.387695	49341.121094
602.165039	49447.136719
600.942383	48807.906250
599.719727	49078.886719
598.496094	48984.250000
597.272461	49137.910156
596.048828	48846.707031
594.825195	49470.859375
593.600586	48832.328125
592.375977	48704.078125
591.151367	49010.417969
589.926758	49019.066406
588.701172	49043.574219
587.476563	49264.398438
586.250977	48902.214844
585.024414	48895.003906
583.798828	48877.886719
582.572266	49203.593750
581.345703	48920.933594
580.119141	49008.800781
578.892578	48864.910156
577.665039	49168.585938
576.437500	48983.140625
575.209961	49417.312500
573.982422	49388.230469
572.753906	49558.996094
571.525391	49411.199219
570.296875	49069.617188
569.068359	49614.093750
567.838867	49418.910156
566.610352	48951.000000
565.380859	49113.738281
564.150391	49333.718750
562.920898	49409.390625
561.690430	49421.820313
560.459961	48960.261719
559.229492	49440.738281
557.999023	49419.585938
556.767578	48954.335938
555.536133	49031.953125
554.304688	48939.851563
553.073242	48993.765625
551.840820	48595.996094
550.608398	48857.003906
549.375977	48776.828125
548.143555	49286.070313
546.910156	49130.945313
545.676758	48887.207031
544.443359	49069.097656
543.209961	49006.675781
541.975586	48893.066406
540.742188	49021.683594
539.507813	49138.441406
538.272461	48894.964844
537.038086	49115.992188
535.802734	49010.328125
534.567383	48885.031250
533.332031	48805.015625
532.096680	48923.632813
530.860352	48839.703125
529.624023	48647.695313
528.387695	49137.703125
527.151367	49236.507813
525.914063	48832.355469
524.676758	48909.574219
523.439453	49157.605469
522.202148	48871.496094
520.963867	49231.332031
519.725586	49155.316406
518.487305	48569.128906
517.249023	48893.496094
516.009766	49019.621094
514.771484	48937.812500
513.532227	48797.203125
512.291992	48989.925781
511.052734	48786.632813
509.812500	48757.832031
508.572266	49068.003906
507.332031	48864.804688
506.090820	49210.089844
504.850586	48891.402344
503.609375	48952.656250
502.368164	49094.144531
501.125977	48771.734375
499.884766	49159.750000
498.642578	48903.964844
497.400391	49019.914063
496.157227	48946.125000
494.915039	48995.539063
493.671875	48870.945313
492.428711	49100.171875
491.184570	49483.687500
489.941406	49142.191406
488.697266	49285.277344
487.453125	49285.734375
486.208984	49545.894531
484.963867	49345.207031
483.718750	48826.417969
482.473633	49508.058594
481.228516	49217.726563
479.982422	49286.457031
478.737305	49725.757813
477.491211	49716.359375
476.244141	49738.156250
474.998047	49869.109375
473.750977	49826.550781
472.503906	49692.414063
471.256836	49770.691406
470.009766	50446.945313
468.761719	50349.765625
467.513672	50203.945313
466.265625	50616.906250
465.017578	50640.421875
463.768555	51000.597656
462.519531	51605.789063
461.270508	50977.414063
460.021484	51389.824219
458.771484	51794.300781
457.521484	51885.601563
456.271484	52418.121094
455.021484	52186.644531
453.770508	52231.175781
452.519531	52349.511719
451.268555	52790.238281
450.017578	53151.171875
448.765625	53480.898438
447.514648	53775.554688
446.262695	54242.839844
445.009766	54969.980469
443.757813	55260.300781
442.504883	55612.582031
441.251953	55569.082031
439.999023	54753.839844
438.745117	54159.914063
437.492188	53616.613281
436.238281	53100.644531
434.983398	53059.582031
433.729492	52024.726563
432.474609	51689.476563
431.219727	51226.539063
429.964844	50910.921875
428.709961	51464.585938
427.454102	50864.531250
426.198242	51168.367188
424.942383	50529.898438
423.685547	50382.984375
422.429688	50986.496094
421.172852	50713.863281
419.916016	50646.253906
418.658203	50402.777344
417.401367	50700.484375
416.143555	50627.109375
414.885742	50642.621094
413.626953	50607.910156
412.369141	50524.933594
411.110352	50474.808594
409.851563	50847.429688
408.591797	50247.230469
407.333008	50745.167969
406.073242	50642.937500
404.813477	50583.179688
403.553711	50685.433594
402.292969	50429.019531
401.032227	50465.714844
