#Wave		#Intensity
2001.221680	38943.714844
2000.251953	38490.035156
1999.282227	38723.898438
1998.312500	38737.183594
1997.342773	38712.886719
1996.372070	38175.117188
1995.402344	38521.562500
1994.431641	38492.300781
1993.460938	38640.792969
1992.490234	38739.171875
1991.518555	38407.074219
1990.547852	38663.089844
1989.576172	38851.472656
1988.604492	38792.160156
1987.632813	39135.500000
1986.661133	39193.675781
1985.689453	38676.835938
1984.716797	38682.578125
1983.745117	38850.753906
1982.772461	39016.375000
1981.799805	38732.257813
1980.827148	38490.699219
1979.853516	39098.316406
1978.880859	38726.937500
1977.907227	38977.308594
1976.933594	38516.218750
1975.959961	38856.375000
1974.986328	38862.058594
1974.011719	38468.585938
1973.038086	39145.292969
1972.063477	39128.476563
1971.088867	39029.378906
1970.114258	38942.781250
1969.138672	39332.289063
1968.164063	39455.000000
1967.188477	38723.027344
1966.212891	39072.500000
1965.237305	39401.925781
1964.261719	39101.175781
1963.286133	39286.058594
1962.309570	38607.027344
1961.333984	39284.765625
1960.357422	39009.121094
1959.380859	39211.308594
1958.404297	39361.175781
1957.426758	39540.839844
1956.450195	39339.945313
1955.472656	39663.761719
1954.495117	39124.816406
1953.517578	38966.347656
1952.540039	39449.105469
1951.561523	39235.968750
1950.583008	38916.085938
1949.605469	39363.816406
1948.626953	39491.031250
1947.647461	39595.855469
1946.668945	39514.449219
1945.690430	39122.804688
1944.710938	39460.910156
1943.731445	39543.324219
1942.751953	39650.519531
1941.772461	39871.769531
1940.791992	39534.960938
1939.812500	39681.765625
1938.832031	39593.007813
1937.851563	39519.152344
1936.871094	39375.933594
1935.890625	39398.769531
1934.909180	39879.902344
1933.928711	39645.042969
1932.947266	39709.917969
1931.965820	39784.671875
1930.984375	39822.261719
1930.002930	39825.187500
1929.020508	39588.062500
1928.038086	39826.078125
1927.056641	39613.773438
1926.074219	39567.257813
1925.090820	39641.933594
1924.108398	39469.324219
1923.125000	40112.574219
1922.142578	39161.363281
1921.159180	40140.527344
1920.175781	39636.859375
1919.191406	39874.480469
1918.208008	40119.425781
1917.223633	39761.722656
1916.240234	39999.191406
1915.255859	39876.152344
1914.271484	39674.171875
1913.286133	39879.445313
1912.301758	40328.914063
1911.316406	39697.710938
1910.331055	39868.335938
1909.345703	40098.085938
1908.360352	40263.648438
1907.375000	40059.371094
1906.388672	40086.851563
1905.402344	40240.003906
1904.416016	40434.984375
1903.429688	40356.449219
1902.443359	40406.019531
1901.457031	40374.308594
1900.469727	40329.515625
1899.482422	40284.718750
1898.495117	40239.925781
1897.507813	40195.132813
1896.520508	40150.339844
1895.532227	40105.500000
1894.543945	40661.703125
1893.556641	40676.699219
1892.568359	40310.589844
1891.579102	40485.425781
1890.590820	40195.667969
1889.601563	40345.886719
1888.613281	40781.062500
1887.624023	40331.722656
1886.634766	40614.464844
1885.644531	40491.914063
1884.655273	40907.109375
1883.665039	40814.007813
1882.674805	41057.191406
1881.684570	40961.636719
1880.694336	40915.187500
1879.704102	41199.921875
1878.712891	41224.570313
1877.722656	40957.390625
1876.731445	40817.800781
1875.740234	40982.226563
1874.748047	40835.320313
1873.756836	41173.671875
1872.764648	41014.531250
1871.773438	41154.304688
1870.781250	40610.691406
1869.788086	41308.812500
1868.795898	41210.960938
1867.803711	41120.492188
1866.810547	41399.621094
1865.817383	41260.203125
1864.824219	41000.949219
1863.831055	41111.160156
1862.837891	41725.164063
1861.843750	41656.695313
1860.849609	40864.550781
1859.855469	41470.933594
1858.861328	41395.210938
1857.867188	41761.808594
1856.872070	41720.261719
1855.877930	41607.882813
1854.882813	41327.023438
1853.887695	41759.300781
1852.892578	41500.484375
1851.896484	41961.871094
1850.901367	41634.765625
1849.905273	41798.257813
1848.909180	41544.488281
1847.913086	41890.882813
1846.916992	41895.710938
1845.919922	41763.976563
1844.923828	42027.253906
1843.926758	41880.914063
1842.929688	42107.515625
1841.932617	41617.625000
1840.935547	42185.277344
1839.937500	42036.570313
1838.939453	42238.625000
1837.942383	41958.464844
1836.943359	41839.085938
1835.945313	42333.167969
1834.947266	42058.000000
1833.948242	42427.761719
1832.949219	42685.480469
1831.951172	42585.531250
1830.951172	42315.371094
1829.952148	42782.089844
1828.953125	42232.398438
1827.953125	42830.222656
1826.953125	42720.605469
1825.953125	42914.765625
1824.953125	42596.234375
1823.952148	42792.773438
1822.952148	42928.523438
1821.951172	42755.843750
1820.950195	43175.601563
1819.949219	42968.953125
1818.948242	42628.894531
1817.946289	42902.859375
1816.945313	42994.765625
1815.943359	43040.554688
1814.941406	42829.253906
1813.939453	43117.531250
1812.936523	43194.785156
1811.934570	43550.761719
1810.931641	43371.015625
1809.928711	43072.601563
1808.925781	43043.207031
1807.921875	43440.128906
1806.918945	43175.761719
1805.915039	43366.703125
1804.912109	43610.835938
1803.908203	43409.503906
1802.903320	44149.656250
1801.899414	43904.746094
1800.894531	43289.777344
1799.890625	43877.167969
1798.885742	43600.992188
1797.880859	43895.546875
1796.875000	44001.425781
1795.870117	43892.148438
1794.864258	43816.738281
1793.858398	43924.988281
1792.852539	44163.656250
1791.846680	44337.019531
1790.840820	44423.378906
1789.833984	44533.855469
1788.828125	44480.128906
1787.821289	44315.390625
1786.814453	44206.210938
1785.806641	44514.492188
1784.799805	43922.832031
1783.791992	44272.054688
1782.784180	44452.343750
1781.776367	44774.820313
1780.768555	44701.828125
1779.760742	44987.992188
1778.751953	44751.113281
1777.743164	44887.777344
1776.735352	44723.269531
1775.725586	45107.972656
1774.716797	45006.085938
1773.708008	44728.472656
1772.698242	45344.066406
1771.688477	45249.414063
1770.678711	45340.085938
1769.668945	45346.515625
1768.659180	45516.519531
1767.648438	45465.187500
1766.637695	45798.628906
1765.626953	45660.707031
1764.616211	45748.796875
1763.605469	46127.671875
1762.593750	46350.218750
1761.583008	46236.312500
1760.571289	46271.378906
1759.559570	46356.875000
1758.547852	46288.648438
1757.535156	46582.984375
1756.523438	46574.750000
1755.510742	46367.312500
1754.498047	46534.292969
1753.485352	47142.671875
1752.472656	46697.753906
1751.458984	46691.894531
1750.445313	46642.875000
1749.432617	46387.679688
1748.417969	47230.457031
1747.404297	47166.980469
1746.390625	47252.093750
1745.375977	47682.179688
1744.361328	47719.257813
1743.346680	47509.640625
1742.332031	47484.472656
1741.317383	47638.878906
1740.302734	48085.261719
1739.287109	48466.863281
1738.271484	48520.503906
1737.255859	48662.644531
1736.240234	48809.515625
1735.223633	49240.937500
1734.208008	48820.941406
1733.191406	49512.796875
1732.174805	49934.296875
1731.158203	50401.054688
1730.140625	50717.105469
1729.124023	50837.140625
1728.106445	50761.257813
1727.088867	51246.636719
1726.071289	51516.937500
1725.053711	51868.312500
1724.035156	52002.347656
1723.017578	52539.660156
1721.999023	52530.355469
1720.980469	52337.355469
1719.961914	52898.167969
1718.942383	53031.894531
1717.923828	53027.269531
1716.904297	52898.679688
1715.884766	52970.351563
1714.865234	53244.566406
1713.844727	53218.457031
1712.825195	53037.500000
1711.804688	53292.496094
1710.784180	53787.925781
1709.763672	52887.882813
1708.743164	53371.304688
1707.722656	53038.140625
1706.701172	52897.851563
1705.679688	53083.585938
1704.658203	52855.316406
1703.636719	53128.992188
1702.615234	52667.738281
1701.592773	52503.855469
1700.571289	52537.339844
1699.548828	52240.429688
1698.526367	52328.601563
1697.502930	52319.324219
1696.480469	52348.058594
1695.457031	51806.742188
1694.433594	52272.503906
1693.410156	52187.257813
1692.386719	51973.847656
1691.363281	52066.691406
1690.338867	52033.726563
1689.314453	52128.894531
1688.290039	51944.105469
1687.265625	51643.160156
1686.241211	52297.980469
1685.215820	52158.304688
1684.191406	52004.449219
1683.166016	52253.562500
1682.140625	51677.937500
1681.115234	52204.222656
1680.088867	52358.410156
1679.062500	51929.906250
1678.037109	52401.394531
1677.010742	52107.988281
1675.983398	52479.851563
1674.957031	52695.375000
1673.930664	52589.003906
1672.903320	52896.699219
1671.875977	53041.066406
1670.848633	52941.777344
1669.820313	53010.410156
1668.792969	52665.281250
1667.764648	53473.804688
1666.736328	52596.949219
1665.708008	53374.472656
1664.679688	53008.253906
1663.651367	53570.472656
1662.622070	53674.320313
1661.592773	53719.093750
1660.563477	54174.644531
1659.534180	53810.953125
1658.504883	53883.996094
1657.474609	54485.558594
1656.444336	54773.136719
1655.415039	54525.171875
1654.383789	54977.718750
1653.353516	54875.992188
1652.323242	54201.421875
1651.291992	54102.222656
1650.260742	54776.039063
1649.229492	54980.722656
1648.198242	54853.160156
1647.166016	54852.832031
1646.134766	55582.550781
1645.102539	55348.984375
1644.070313	55383.875000
1643.038086	55640.000000
1642.004883	55712.476563
1640.972656	55857.859375
1639.939453	55967.906250
1638.906250	56458.941406
1637.873047	56420.683594
1636.839844	56798.601563
1635.805664	56569.875000
1634.772461	57105.105469
1633.738281	56693.101563
1632.704102	57319.746094
1631.668945	57781.726563
1630.634766	57844.257813
1629.599609	58155.683594
1628.565430	58319.082031
1627.530273	58083.347656
1626.494141	58680.898438
1625.458984	59179.675781
1624.422852	59652.464844
1623.387695	60225.953125
1622.351563	60914.156250
1621.315430	61581.007813
1620.278320	62275.753906
1619.242188	63879.773438
1618.205078	65820.710938
1617.167969	67200.906250
1616.130859	68964.843750
1615.093750	70969.421875
1614.055664	72821.046875
1613.018555	74693.085938
1611.980469	76445.054688
1610.942383	77206.242188
1609.904297	76689.312500
1608.865234	76427.625000
1607.827148	75185.750000
1606.788086	73160.718750
1605.749023	71842.687500
1604.709961	69119.812500
1603.669922	67592.554688
1602.630859	66000.398438
1601.590820	64637.828125
1600.550781	63715.027344
1599.510742	62486.511719
1598.470703	62036.250000
1597.429688	61511.410156
1596.389648	60617.835938
1595.348633	60221.832031
1594.307617	59909.996094
1593.265625	59747.628906
1592.224609	59414.984375
1591.182617	59010.136719
1590.140625	58708.058594
1589.098633	58648.617188
1588.056641	58416.656250
1587.014648	58333.972656
1585.971680	58116.132813
1584.928711	58189.664063
1583.886719	57785.519531
1582.842773	57682.035156
1581.799805	57855.750000
1580.755859	58283.230469
1579.712891	58182.027344
1578.668945	57985.417969
1577.625000	58584.875000
1576.580078	58404.546875
1575.536133	57991.617188
1574.491211	58311.597656
1573.446289	58340.730469
1572.401367	58251.257813
1571.356445	58512.886719
1570.311523	59106.832031
1569.265625	58859.218750
1568.219727	58249.191406
1567.173828	58310.816406
1566.127930	58265.566406
1565.082031	58389.871094
1564.035156	57594.582031
1562.988281	57637.699219
1561.941406	57495.097656
1560.894531	57387.359375
1559.847656	57620.757813
1558.799805	57687.027344
1557.751953	57750.953125
1556.704102	57657.148438
1555.656250	57649.171875
1554.608398	57548.460938
1553.560547	57382.878906
1552.511719	57618.289063
1551.462891	57209.453125
1550.414063	57386.882813
1549.365234	57893.164063
1548.315430	58174.621094
1547.265625	57851.640625
1546.216797	57929.273438
1545.166992	57641.167969
1544.116211	57693.351563
1543.066406	58069.445313
1542.015625	58075.261719
1540.965820	58310.058594
1539.915039	58140.070313
1538.863281	57690.367188
1537.812500	58089.234375
1536.760742	57732.152344
1535.709961	57594.730469
1534.658203	57616.781250
1533.605469	57276.136719
1532.553711	56866.324219
1531.501953	56452.035156
1530.449219	56665.898438
1529.396484	56761.953125
1528.343750	55724.734375
1527.290039	55843.992188
1526.237305	55146.460938
1525.183594	55180.425781
1524.129883	55611.070313
1523.076172	55029.246094
1522.022461	54915.652344
1520.968750	55468.277344
1519.914063	55308.546875
1518.859375	55128.132813
1517.804688	54475.480469
1516.750000	55147.562500
1515.694336	54902.781250
1514.639648	54593.609375
1513.583984	54597.652344
1512.528320	54988.398438
1511.472656	54683.972656
1510.416016	54860.566406
1509.360352	54843.843750
1508.303711	54447.593750
1507.247070	54752.914063
1506.190430	54430.398438
1505.132813	54914.925781
1504.076172	54378.726563
1503.018555	54258.679688
1501.960938	54231.652344
1500.903320	54204.621094
1499.844727	54177.570313
1498.787109	54150.539063
1497.728516	54123.484375
1496.669922	54096.433594
1495.611328	54069.378906
1494.552734	54042.324219
1493.493164	54015.246094
1492.434570	53785.343750
1491.375000	53954.605469
1490.315430	53747.722656
1489.254883	54137.035156
1488.195313	54409.292969
1487.134766	53773.839844
1486.074219	53975.023438
1485.013672	54258.613281
1483.953125	53733.472656
1482.892578	53833.777344
1481.831055	53785.195313
1480.769531	53981.609375
1479.708008	54187.101563
1478.646484	53804.332031
1477.583984	53913.675781
1476.522461	53924.597656
1475.459961	53784.542969
1474.397461	54026.468750
1473.334961	53927.601563
1472.271484	53746.464844
1471.208984	53725.394531
1470.145508	54431.082031
1469.082031	54357.339844
1468.018555	54708.546875
1466.954102	54671.320313
1465.890625	54867.050781
1464.826172	54585.488281
1463.761719	54696.687500
1462.697266	54949.363281
1461.631836	55206.507813
1460.567383	55338.062500
1459.501953	55485.539063
1458.436523	55452.773438
1457.371094	55091.625000
1456.305664	55752.074219
1455.239258	55489.023438
1454.172852	55900.722656
1453.107422	55594.437500
1452.040039	55787.234375
1450.973633	55993.628906
1449.907227	55582.714844
1448.839844	55966.687500
1447.772461	56020.386719
1446.705078	56099.101563
1445.637695	56444.078125
1444.569336	56231.414063
1443.500977	56146.234375
1442.432617	56895.910156
1441.364258	56815.183594
1440.295898	56973.246094
1439.227539	57033.488281
1438.158203	57284.648438
1437.088867	57231.175781
1436.019531	57961.656250
1434.950195	57689.972656
1433.879883	58231.574219
1432.810547	57862.277344
1431.740234	58539.886719
1430.669922	58474.878906
1429.598633	58575.589844
1428.528320	59282.203125
1427.457031	58913.035156
1426.386719	59079.398438
1425.314453	59182.183594
1424.243164	58661.285156
1423.171875	59070.207031
1422.099609	59127.593750
1421.027344	58962.832031
1419.955078	58820.789063
1418.882813	59077.570313
1417.810547	59055.613281
1416.737305	58841.144531
1415.664063	58739.980469
1414.590820	58573.187500
1413.517578	58392.867188
1412.444336	58445.734375
1411.370117	58208.925781
1410.295898	58318.363281
1409.221680	58092.968750
1408.147461	58286.066406
1407.073242	58302.710938
1405.998047	58120.390625
1404.922852	58659.226563
1403.847656	58214.734375
1402.772461	57838.187500
1401.697266	58406.144531
1400.621094	58933.234375
1399.544922	58956.500000
1398.468750	59309.425781
1397.392578	59346.156250
1396.316406	59432.531250
1395.239258	59911.554688
1394.162109	60336.250000
1393.084961	60945.785156
1392.007813	61264.121094
1390.930664	61640.980469
1389.852539	62813.632813
1388.774414	62423.582031
1387.696289	63122.335938
1386.618164	63331.812500
1385.540039	63327.160156
1384.460938	63759.542969
1383.382813	63777.332031
1382.303711	63894.199219
1381.223633	63819.640625
1380.144531	63974.722656
1379.064453	64597.894531
1377.985352	64746.023438
1376.905273	64507.109375
1375.825195	64056.828125
1374.744141	64479.355469
1373.664063	63700.925781
1372.583008	63801.855469
1371.501953	63754.386719
1370.420898	62936.046875
1369.338867	62758.414063
1368.257813	62686.433594
1367.175781	61938.355469
1366.093750	61938.414063
1365.011719	62349.386719
1363.929688	62216.906250
1362.846680	61743.285156
1361.763672	62026.144531
1360.680664	62010.464844
1359.597656	61498.992188
1358.514648	61909.582031
1357.430664	61649.480469
1356.346680	61275.117188
1355.262695	61420.988281
1354.178711	60894.378906
1353.094727	60522.589844
1352.009766	60370.507813
1350.925781	60039.261719
1349.840820	59985.867188
1348.755859	59764.539063
1347.669922	59482.832031
1346.584961	59299.722656
1345.499023	58805.570313
1344.413086	59041.105469
1343.327148	59155.738281
1342.240234	58995.179688
1341.154297	58854.804688
1340.067383	58629.503906
1338.980469	59164.437500
1337.893555	58858.683594
1336.805664	59033.550781
1335.718750	59152.488281
1334.630859	58980.945313
1333.542969	59238.335938
1332.455078	59419.699219
1331.367188	59234.792969
1330.278320	60056.816406
1329.189453	59827.218750
1328.100586	59939.148438
1327.011719	59859.144531
1325.922852	60377.050781
1324.833008	60033.792969
1323.743164	60961.808594
1322.653320	60841.535156
1321.563477	61267.476563
1320.473633	61940.664063
1319.382813	61769.015625
1318.291992	62584.464844
1317.201172	62925.117188
1316.110352	64089.738281
1315.019531	64111.550781
1313.927734	64569.742188
1312.835938	64718.339844
1311.744141	64648.765625
1310.652344	64817.316406
1309.560547	64409.566406
1308.467773	63766.171875
1307.375000	63732.394531
1306.282227	63529.628906
1305.189453	63171.308594
1304.095703	63084.300781
1303.002930	62452.820313
1301.909180	62585.953125
1300.815430	61870.367188
1299.721680	61912.476563
1298.626953	62447.597656
1297.533203	62260.878906
1296.438477	62282.910156
1295.343750	62145.113281
1294.248047	62366.882813
1293.153320	62399.964844
1292.057617	62776.890625
1290.961914	63036.121094
1289.866211	62845.082031
1288.770508	63403.523438
1287.674805	63276.765625
1286.578125	63309.632813
1285.481445	62932.527344
1284.384766	63109.453125
1283.288086	62849.917969
1282.190430	62847.390625
1281.092773	62517.128906
1279.996094	62401.746094
1278.897461	62284.183594
1277.799805	62036.085938
1276.702148	62254.976563
1275.603516	62077.765625
1274.504883	61887.339844
1273.406250	61272.359375
1272.307617	61283.363281
1271.208008	61084.339844
1270.108398	61210.308594
1269.008789	61163.851563
1267.909180	60841.210938
1266.809570	60737.394531
1265.708984	60543.050781
1264.609375	60119.105469
1263.508789	60276.011719
1262.407227	59920.695313
1261.306641	59607.441406
1260.206055	60007.093750
1259.104492	59625.535156
1258.002930	59694.136719
1256.901367	59416.433594
1255.798828	59255.699219
1254.697266	59207.468750
1253.594727	58965.265625
1252.492188	58650.414063
1251.389648	59029.808594
1250.286133	58886.906250
1249.183594	58316.710938
1248.080078	59312.621094
1246.976563	58650.066406
1245.872070	58916.820313
1244.768555	59203.289063
1243.664063	59207.945313
1242.560547	58988.160156
1241.455078	59083.050781
1240.350586	58742.382813
1239.246094	59362.886719
1238.140625	58861.777344
1237.035156	59068.730469
1235.929688	59418.472656
1234.824219	58653.906250
1233.717773	59552.894531
1232.612305	59039.011719
1231.505859	59201.800781
1230.399414	58969.253906
1229.291992	59443.769531
1228.185547	58708.550781
1227.078125	58258.921875
1225.970703	58706.968750
1224.863281	58751.152344
1223.755859	58575.957031
1222.647461	57988.496094
1221.539063	58447.218750
1220.430664	58088.003906
1219.322266	57803.441406
1218.213867	57808.277344
1217.104492	57574.265625
1215.995117	57629.523438
1214.885742	57785.519531
1213.776367	57958.972656
1212.666992	57909.023438
1211.556641	58180.902344
1210.446289	57824.488281
1209.335938	58159.746094
1208.225586	58173.234375
1207.115234	57902.328125
1206.003906	58447.351563
1204.892578	58681.648438
1203.781250	58517.921875
1202.669922	58437.324219
1201.557617	58105.402344
1200.446289	58936.152344
1199.333984	58888.285156
1198.221680	59548.199219
1197.108398	59491.496094
1195.996094	60076.808594
1194.882813	59996.011719
1193.769531	60445.675781
1192.656250	60142.222656
1191.542969	60397.488281
1190.428711	60124.691406
1189.314453	59867.261719
1188.200195	59413.644531
1187.085938	59821.480469
1185.971680	59618.742188
1184.856445	59424.792969
1183.741211	59581.777344
1182.625977	59167.832031
1181.510742	59531.757813
1180.395508	59414.187500
1179.279297	59183.417969
1178.163086	59168.281250
1177.046875	59407.847656
1175.930664	58902.957031
1174.813477	59125.070313
1173.697266	59327.519531
1172.580078	59305.832031
1171.462891	59316.777344
1170.344727	58718.843750
1169.227539	58879.898438
1168.109375	58899.601563
1166.991211	59117.066406
1165.873047	59327.933594
1164.754883	58904.332031
1163.635742	58754.578125
1162.516602	58476.742188
1161.397461	58392.253906
1160.278320	58603.046875
1159.159180	58540.265625
1158.039063	57724.457031
1156.918945	58547.125000
1155.798828	58371.574219
1154.678711	58356.593750
1153.558594	58218.000000
1152.437500	58478.406250
1151.316406	58396.203125
1150.195313	58580.617188
1149.074219	58840.804688
1147.952148	58637.242188
1146.831055	58663.371094
1145.708984	58919.062500
1144.586914	58921.304688
1143.463867	59614.187500
1142.341797	59904.191406
1141.218750	59984.156250
1140.095703	60113.859375
1138.972656	60403.605469
1137.849609	60688.917969
1136.725586	60829.226563
1135.601563	60534.863281
1134.477539	60251.417969
1133.353516	60437.109375
1132.229492	60028.437500
1131.104492	60337.257813
1129.979492	60455.855469
1128.854492	59926.437500
1127.729492	59682.269531
1126.603516	59857.050781
1125.478516	59584.914063
1124.352539	59975.476563
1123.226563	59392.667969
1122.099609	59265.312500
1120.973633	59211.339844
1119.846680	59140.132813
1118.719727	59217.738281
1117.592773	58691.644531
1116.465820	58881.382813
1115.337891	58859.847656
1114.209961	58853.398438
1113.082031	58594.890625
1111.954102	58829.734375
1110.826172	58676.843750
1109.697266	57781.148438
1108.568359	58237.746094
1107.439453	58295.976563
1106.310547	58298.226563
1105.180664	58139.105469
1104.051758	58115.566406
1102.921875	58244.742188
1101.791992	58659.878906
1100.661133	58440.597656
1099.531250	58427.757813
1098.400391	58524.531250
1097.269531	58485.890625
1096.138672	58743.753906
1095.006836	58666.414063
1093.875977	58337.820313
1092.744141	58060.882813
1091.612305	58513.992188
1090.480469	57694.046875
1089.347656	58013.992188
1088.215820	57887.503906
1087.083008	57598.015625
1085.950195	57688.285156
1084.816406	57321.730469
1083.683594	57673.597656
1082.549805	57628.742188
1081.416016	57418.855469
1080.282227	57989.089844
1079.148438	57440.683594
1078.013672	57228.796875
1076.878906	57565.289063
1075.744141	57798.871094
1074.609375	57901.757813
1073.474609	57728.464844
1072.338867	57782.097656
1071.203125	57630.285156
1070.067383	57495.636719
1068.931641	57147.132813
1067.794922	56869.328125
1066.659180	57177.511719
1065.522461	57509.097656
1064.385742	57380.996094
1063.248047	57603.425781
1062.111328	57176.210938
1060.973633	57150.777344
1059.835938	57195.835938
1058.698242	57221.656250
1057.559570	57548.519531
1056.421875	57362.921875
1055.283203	57130.429688
1054.144531	57013.257813
1053.005859	56977.199219
1051.866211	57363.523438
1050.726563	57508.699219
1049.587891	57365.945313
1048.447266	57317.046875
1047.307617	57391.800781
1046.167969	57161.757813
1045.027344	57164.054688
1043.886719	57343.179688
1042.746094	58208.113281
1041.604492	57750.203125
1040.463867	57409.570313
1039.322266	57967.449219
1038.180664	57362.960938
1037.038086	57639.730469
1035.896484	57720.644531
1034.753906	57735.578125
1033.611328	57229.406250
1032.468750	57420.921875
1031.326172	57393.371094
1030.182617	57423.226563
1029.040039	57100.253906
1027.896484	57006.894531
1026.751953	57442.593750
1025.608398	57240.867188
1024.463867	57695.468750
1023.319336	57366.363281
1022.174805	56988.542969
1021.030273	57676.425781
1019.885742	57411.160156
1018.740234	56988.972656
1017.594727	57103.671875
1016.449219	57120.753906
1015.303711	57328.691406
1014.157227	56934.382813
1013.010742	57288.546875
1011.864258	57475.136719
1010.717773	57042.867188
1009.571289	57011.195313
1008.423828	57227.382813
1007.276367	57390.539063
1006.128906	56797.656250
1004.981445	56899.425781
1003.833008	57079.476563
1002.684570	57314.488281
1001.536133	57210.843750
1000.387695	57744.042969
999.239258	57631.894531
998.089844	57801.058594
996.941406	57661.445313
995.791992	57604.332031
994.641602	57767.058594
993.492188	57306.300781
992.341797	57010.519531
991.191406	57904.191406
990.041016	57621.074219
988.890625	57435.199219
987.739258	57591.425781
986.588867	57405.621094
985.437500	57758.078125
984.285156	57454.132813
983.133789	57367.605469
981.981445	57660.800781
980.829102	57219.949219
979.676758	57270.566406
978.524414	57342.246094
977.372070	57732.183594
976.218750	57614.074219
975.065430	57443.328125
973.912109	56895.542969
972.757813	57529.597656
971.604492	57485.308594
970.450195	57274.699219
969.295898	57636.761719
968.141602	57373.574219
966.986328	57407.199219
965.832031	57987.843750
964.676758	57787.835938
963.521484	57423.851563
962.365234	57970.519531
961.209961	57949.328125
960.053711	57932.343750
958.897461	58136.039063
957.741211	58066.488281
956.584961	57996.964844
955.427734	58488.292969
954.270508	58446.011719
953.113281	58382.746094
951.956055	58269.117188
950.797852	58329.738281
949.639648	58098.636719
948.481445	57899.089844
947.323242	57525.496094
946.165039	57751.894531
945.005859	57510.574219
943.847656	57803.980469
942.687500	57617.234375
941.528320	57826.671875
940.369141	57945.925781
939.208984	57474.320313
938.048828	57740.214844
936.888672	57603.906250
935.728516	57685.410156
934.567383	57743.855469
933.406250	57955.074219
932.245117	58371.304688
931.083984	58017.382813
929.922852	57981.570313
928.760742	57991.785156
927.598633	58108.644531
926.436523	58430.363281
925.274414	58582.632813
924.111328	58561.367188
922.948242	58489.953125
921.785156	58978.496094
920.622070	58650.093750
919.458984	59549.855469
918.294922	58782.957031
917.130859	59429.738281
915.966797	59483.472656
914.802734	59512.136719
913.637695	59373.863281
912.472656	59456.773438
911.307617	59892.156250
910.142578	60304.433594
908.977539	60508.054688
907.811523	60976.343750
906.645508	61029.691406
905.479492	61374.757813
904.313477	60548.765625
903.146484	60525.078125
901.980469	60699.253906
900.813477	60365.269531
899.646484	60085.539063
898.478516	59608.156250
897.311523	59751.148438
896.143555	59802.523438
894.975586	59949.582031
893.806641	59670.171875
892.638672	59758.960938
891.469727	60047.324219
890.300781	59684.886719
889.131836	60232.964844
887.962891	59384.343750
886.792969	59928.113281
885.623047	60072.832031
884.453125	60128.179688
883.283203	60656.968750
882.112305	60388.296875
880.942383	60509.976563
879.771484	60716.699219
878.600586	60825.816406
877.428711	60978.457031
876.257813	61216.085938
875.085938	61862.179688
873.914063	61407.000000
872.741211	61061.859375
871.569336	61450.593750
870.396484	61424.710938
869.223633	61848.453125
868.050781	61482.761719
866.877930	62018.175781
865.704102	61826.527344
864.530273	62082.164063
863.356445	62849.007813
862.182617	62862.207031
861.007813	63752.773438
859.833984	63834.066406
858.659180	63660.894531
857.484375	63692.531250
856.308594	63058.335938
855.133789	63278.199219
853.958008	63105.250000
852.782227	62585.171875
851.605469	62736.804688
850.429688	62671.464844
849.252930	62645.390625
848.076172	62575.957031
846.899414	63262.226563
845.722656	63310.363281
844.544922	63389.441406
843.367188	63798.652344
842.189453	64098.359375
841.011719	64560.914063
839.833008	65194.476563
838.655273	65306.105469
837.476563	66116.585938
836.296875	67446.203125
835.118164	67262.640625
833.938477	66827.757813
832.758789	66559.914063
831.579102	66224.187500
830.399414	65736.195313
829.219727	65314.265625
828.039063	63959.957031
826.858398	63902.808594
825.677734	63191.292969
824.496094	62157.023438
823.315430	62396.449219
822.133789	61726.734375
820.952148	61398.609375
819.769531	61689.429688
818.587891	61229.875000
817.405273	60825.972656
816.222656	60829.066406
815.040039	60392.515625
813.856445	59929.421875
812.673828	60312.585938
811.490234	59909.218750
810.305664	60606.328125
809.122070	59901.335938
807.938477	60555.085938
806.753906	59979.617188
805.569336	60587.976563
804.383789	60178.835938
803.199219	59698.078125
802.013672	60010.914063
800.828125	60186.296875
799.642578	59101.214844
798.457031	59299.234375
797.270508	59165.292969
796.083984	58662.710938
794.897461	58461.351563
793.710938	58409.535156
792.523438	58406.867188
791.336914	58131.976563
790.149414	58057.730469
788.961914	58552.296875
787.773438	57669.980469
786.585938	58184.878906
785.397461	58010.472656
784.208984	57429.277344
783.019531	57888.734375
781.831055	57873.882813
780.641602	57777.296875
779.452148	57270.109375
778.262695	57719.035156
777.072266	57101.765625
775.882813	56739.949219
774.692383	56443.593750
773.501953	57031.117188
772.310547	56938.878906
771.120117	56830.347656
769.928711	56772.851563
768.737305	57031.503906
767.544922	57508.246094
766.353516	57228.421875
765.161133	57766.097656
763.968750	57686.050781
762.776367	57351.328125
761.583984	58163.699219
760.390625	58004.175781
759.197266	58374.203125
758.003906	58638.207031
756.810547	58704.644531
755.616211	59112.992188
754.421875	58949.359375
753.227539	59257.812500
752.033203	59238.636719
750.838867	59245.902344
749.643555	58618.726563
748.448242	58504.117188
747.252930	58743.238281
746.057617	57888.875000
744.861328	57772.425781
743.665039	57192.816406
742.468750	57805.734375
741.272461	57289.285156
740.075195	57501.953125
738.878906	57060.863281
737.681641	56664.585938
736.484375	56471.382813
735.286133	56824.031250
734.087891	56655.210938
732.890625	56636.531250
731.691406	56524.582031
730.493164	55938.253906
729.294922	56136.605469
728.095703	56306.507813
726.896484	56022.457031
725.696289	56455.675781
724.497070	56137.265625
723.296875	56191.597656
722.096680	56203.382813
720.896484	56358.898438
719.696289	55943.578125
718.495117	56093.003906
717.293945	55932.816406
716.092773	56159.050781
714.891602	56439.808594
713.689453	56101.691406
712.487305	56370.218750
711.285156	56143.406250
710.083008	56260.246094
708.880859	56284.093750
707.677734	56152.371094
706.474609	56467.082031
705.271484	56454.515625
704.068359	56670.113281
702.864258	56413.242188
701.660156	56422.890625
700.456055	56236.785156
699.251953	56194.000000
698.046875	55279.789063
696.841797	55836.191406
695.636719	55966.910156
694.431641	55992.742188
693.226563	55575.105469
692.020508	56264.042969
690.814453	56013.746094
689.608398	55749.441406
688.402344	55922.312500
687.195313	55452.707031
685.988281	55845.031250
684.781250	55762.117188
683.574219	56023.406250
682.366211	56159.832031
681.158203	55662.441406
679.950195	55698.296875
678.742188	56524.535156
677.534180	55995.175781
676.325195	56308.382813
675.116211	56303.878906
673.907227	56166.738281
672.697266	56759.023438
671.488281	56280.324219
670.278320	56386.289063
669.068359	56343.609375
667.858398	56057.996094
666.647461	56505.199219
665.436523	55800.183594
664.225586	56361.644531
663.014648	56034.101563
661.802734	56188.097656
660.591797	56027.164063
659.379883	56106.906250
658.167969	55659.355469
656.955078	56043.808594
655.743164	56209.671875
654.530273	56080.929688
653.317383	56076.437500
652.103516	55849.621094
650.890625	55522.757813
649.676758	56249.156250
648.462891	56286.664063
647.249023	55983.914063
646.034180	56315.605469
644.819336	56179.011719
643.604492	56508.539063
642.389648	56265.957031
641.174805	56963.257813
639.958984	56828.632813
638.743164	56766.011719
637.527344	56839.308594
636.311523	57156.335938
635.094727	56680.164063
633.877930	56523.734375
632.661133	56295.472656
631.444336	56033.351563
630.226563	55761.347656
629.008789	55974.421875
627.791016	55810.277344
626.573242	55352.917969
625.355469	55081.234375
624.136719	55421.902344
622.917969	55475.312500
621.699219	55929.406250
620.480469	55887.023438
619.260742	55569.648438
618.041016	55559.222656
616.821289	55550.789063
615.601563	55691.734375
614.380859	55958.078125
613.160156	55648.933594
611.939453	55316.019531
610.718750	55986.285156
609.497070	55271.378906
608.276367	55119.750000
607.054688	55525.121094
605.832031	55478.902344
604.610352	55154.328125
603.387695	55563.433594
602.165039	55582.812500
600.942383	55202.753906
599.719727	55699.031250
598.496094	55346.898438
597.272461	55223.296875
596.048828	55606.097656
594.825195	55268.070313
593.600586	55229.898438
592.375977	55211.582031
591.151367	54980.960938
589.926758	55046.015625
588.701172	55366.914063
587.476563	54832.968750
586.250977	55058.609375
585.024414	54947.164063
583.798828	55359.000000
582.572266	55118.726563
581.345703	55308.468750
580.119141	55464.464844
578.892578	55242.125000
577.665039	55172.335938
576.437500	55284.707031
575.209961	55329.734375
573.982422	55544.937500
572.753906	55433.582031
571.525391	55363.808594
570.296875	55857.757813
569.068359	55386.488281
567.838867	55688.457031
566.610352	55778.796875
565.380859	55837.476563
564.150391	55364.582031
562.920898	55209.941406
561.690430	55314.117188
560.459961	55921.859375
559.229492	56187.769531
557.999023	55713.265625
556.767578	55595.343750
555.536133	55477.417969
554.304688	55359.496094
553.073242	55241.574219
551.840820	55123.554688
550.608398	55005.539063
549.375977	55738.464844
548.143555	55317.960938
546.910156	55167.613281
545.676758	55578.902344
544.443359	55503.421875
543.209961	55751.000000
541.975586	55856.691406
540.742188	56033.222656
539.507813	55363.183594
538.272461	56069.191406
537.038086	55926.777344
535.802734	56172.015625
534.567383	56055.203125
533.332031	56162.644531
532.096680	56295.609375
530.860352	55921.285156
529.624023	56172.175781
528.387695	56395.453125
527.151367	56720.820313
525.914063	56384.015625
524.676758	56402.847656
523.439453	56182.085938
522.202148	56731.066406
520.963867	56241.386719
519.725586	56038.437500
518.487305	56557.691406
517.249023	56307.667969
516.009766	56318.621094
514.771484	55658.843750
513.532227	56130.707031
512.291992	56129.917969
511.052734	56289.855469
509.812500	56083.261719
508.572266	55890.460938
507.332031	56275.628906
506.090820	56016.261719
504.850586	56542.250000
503.609375	56138.042969
502.368164	56287.964844
501.125977	56363.453125
499.884766	55853.835938
498.642578	55935.242188
497.400391	56456.718750
496.157227	56878.257813
494.915039	56615.285156
493.671875	56729.707031
492.428711	56763.949219
491.184570	56577.351563
489.941406	56552.988281
488.697266	56848.996094
487.453125	56451.550781
486.208984	56909.531250
484.963867	56832.402344
483.718750	56985.628906
482.473633	57199.292969
481.228516	56946.531250
479.982422	57218.644531
478.737305	57065.445313
477.491211	57351.078125
476.244141	57353.886719
474.998047	57397.625000
473.750977	57679.128906
472.503906	57878.675781
471.256836	57405.992188
470.009766	57919.125000
468.761719	57949.070313
467.513672	58405.433594
466.265625	58133.515625
465.017578	57807.199219
463.768555	58047.308594
462.519531	58606.417969
461.270508	58317.148438
460.021484	59185.238281
458.771484	59279.050781
457.521484	59685.843750
456.271484	59624.007813
455.021484	59367.843750
453.770508	59580.070313
452.519531	59741.699219
451.268555	60305.339844
450.017578	60406.562500
448.765625	60833.941406
447.514648	61505.757813
446.262695	61897.824219
445.009766	62402.289063
443.757813	63139.386719
442.504883	63373.785156
441.251953	63169.781250
439.999023	62899.917969
438.745117	61718.960938
437.492188	61152.902344
436.238281	60935.894531
434.983398	59998.171875
433.729492	59386.261719
432.474609	58792.007813
431.219727	58910.613281
429.964844	58603.222656
428.709961	58373.375000
427.454102	57890.070313
426.198242	57710.753906
424.942383	57968.734375
423.685547	58031.250000
422.429688	57664.402344
421.172852	57382.773438
419.916016	57466.621094
418.658203	57053.691406
417.401367	57098.917969
416.143555	57149.917969
414.885742	56779.777344
413.626953	57089.617188
412.369141	56962.929688
411.110352	57023.558594
409.851563	56852.527344
408.591797	57206.496094
407.333008	56981.464844
406.073242	56959.078125
404.813477	56977.203125
403.553711	57190.093750
402.292969	56940.160156
401.032227	56661.398438
