#Wave		#Intensity
2001.221680	44392.875000
2000.251953	43846.457031
1999.282227	44355.054688
1998.312500	44369.863281
1997.342773	44442.281250
1996.372070	44028.753906
1995.402344	44033.585938
1994.431641	44073.472656
1993.460938	43752.843750
1992.490234	43757.718750
1991.518555	43700.027344
1990.547852	43302.062500
1989.576172	43872.390625
1988.604492	43617.105469
1987.632813	43529.460938
1986.661133	43741.890625
1985.689453	43884.246094
1984.716797	43676.621094
1983.745117	43436.574219
1982.772461	43926.214844
1981.799805	43451.375000
1980.827148	43331.386719
1979.853516	43321.316406
1978.880859	43251.324219
1977.907227	43126.429688
1976.933594	43430.898438
1975.959961	43495.679688
1974.986328	43325.894531
1974.011719	43383.183594
1973.038086	43353.152344
1972.063477	43497.699219
1971.088867	44170.796875
1970.114258	43265.601563
1969.138672	43277.980469
1968.164063	43549.527344
1967.188477	43781.113281
1966.212891	43619.003906
1965.237305	43429.546875
1964.261719	43431.914063
1963.286133	43242.554688
1962.309570	43757.785156
1961.333984	43399.175781
1960.357422	43523.480469
1959.380859	43981.156250
1958.404297	43684.886719
1957.426758	43649.882813
1956.450195	43893.421875
1955.472656	43609.746094
1954.495117	43681.667969
1953.517578	43887.785156
1952.540039	43621.652344
1951.561523	44317.191406
1950.583008	43670.976563
1949.605469	43367.757813
1948.626953	43931.351563
1947.647461	43960.906250
1946.668945	44010.312500
1945.690430	43940.554688
1944.710938	43684.699219
1943.731445	44128.632813
1942.751953	43716.539063
1941.772461	43947.000000
1940.791992	43802.910156
1939.812500	44216.753906
1938.832031	44075.144531
1937.851563	44265.714844
1936.871094	44101.835938
1935.890625	43779.441406
1934.909180	43883.250000
1933.928711	43828.503906
1932.947266	44083.332031
1931.965820	44167.222656
1930.984375	43892.125000
1930.002930	44151.750000
1929.020508	44074.722656
1928.038086	43586.992188
1927.056641	43935.589844
1926.074219	43806.695313
1925.090820	44100.722656
1924.108398	44122.664063
1923.125000	43793.558594
1922.142578	43758.695313
1921.159180	44215.621094
1920.175781	43417.210938
1919.191406	43935.792969
1918.208008	43737.906250
1917.223633	43727.769531
1916.240234	44189.230469
1915.255859	43458.167969
1914.271484	43944.191406
1913.286133	44301.718750
1912.301758	43657.375000
1911.316406	43432.632813
1910.331055	43920.781250
1909.345703	43555.500000
1908.360352	44013.863281
1907.375000	44279.781250
1906.388672	43751.949219
1905.402344	44217.425781
1904.416016	44249.093750
1903.429688	44243.796875
1902.443359	44233.570313
1901.457031	44016.492188
1900.469727	44341.160156
1899.482422	43873.035156
1898.495117	43786.578125
1897.507813	43749.363281
1896.520508	44435.531250
1895.532227	44358.851563
1894.543945	44026.402344
1893.556641	44299.019531
1892.568359	44374.839844
1891.579102	43995.851563
1890.590820	44408.421875
1889.601563	44447.316406
1888.613281	44454.257813
1887.624023	44122.187500
1886.634766	44163.562500
1885.644531	44084.593750
1884.655273	44339.566406
1883.665039	44135.394531
1882.674805	43774.210938
1881.684570	43756.707031
1880.694336	44409.023438
1879.704102	44258.945313
1878.712891	44305.128906
1877.722656	43725.976563
1876.731445	43831.078125
1875.740234	43960.656250
1874.748047	44114.695313
1873.756836	44322.593750
1872.764648	44013.445313
1871.773438	44233.531250
1870.781250	44218.410156
1869.788086	44533.882813
1868.795898	44420.777344
1867.803711	44197.550781
1866.810547	44625.441406
1865.817383	44309.265625
1864.824219	43836.613281
1863.831055	44467.371094
1862.837891	44192.964844
1861.843750	44283.011719
1860.849609	44417.031250
1859.855469	44228.328125
1858.861328	44257.214844
1857.867188	44117.476563
1856.872070	44185.460938
1855.877930	44026.238281
1854.882813	44248.074219
1853.887695	44052.265625
1852.892578	43963.949219
1851.896484	44410.253906
1850.901367	44373.156250
1849.905273	44275.062500
1848.909180	44821.105469
1847.913086	44625.390625
1846.916992	44615.101563
1845.919922	44843.785156
1844.923828	44753.000000
1843.926758	44828.007813
1842.929688	45115.019531
1841.932617	45046.160156
1840.935547	44572.894531
1839.937500	44618.640625
1838.939453	44732.562500
1837.942383	45163.000000
1836.943359	45374.164063
1835.945313	45083.812500
1834.947266	44825.195313
1833.948242	45413.476563
1832.949219	44991.882813
1831.951172	45239.375000
1830.951172	45749.437500
1829.952148	45383.933594
1828.953125	45847.593750
1827.953125	45416.566406
1826.953125	45527.656250
1825.953125	45189.167969
1824.953125	45324.550781
1823.952148	45933.546875
1822.952148	45184.726563
1821.951172	45043.214844
1820.950195	45647.078125
1819.949219	45707.003906
1818.948242	45951.351563
1817.946289	45897.152344
1816.945313	45821.136719
1815.943359	45871.277344
1814.941406	45814.691406
1813.939453	46274.601563
1812.936523	45994.917969
1811.934570	46331.007813
1810.931641	45874.496094
1809.928711	46203.218750
1808.925781	46182.960938
1807.921875	46303.195313
1806.918945	46106.132813
1805.915039	46354.671875
1804.912109	45951.886719
1803.908203	46270.554688
1802.903320	46168.011719
1801.899414	46401.835938
1800.894531	47042.007813
1799.890625	46489.480469
1798.885742	46367.617188
1797.880859	46543.207031
1796.875000	47144.214844
1795.870117	47189.667969
1794.864258	47235.164063
1793.858398	47280.664063
1792.852539	47326.160156
1791.846680	47371.656250
1790.840820	47417.152344
1789.833984	47462.695313
1788.828125	47208.082031
1787.821289	47455.601563
1786.814453	47466.535156
1785.806641	47294.085938
1784.799805	47169.941406
1783.791992	47906.921875
1782.784180	47474.031250
1781.776367	47513.875000
1780.768555	47466.914063
1779.760742	47588.691406
1778.751953	48071.902344
1777.743164	47769.464844
1776.735352	48286.195313
1775.725586	47942.875000
1774.716797	48052.410156
1773.708008	48424.343750
1772.698242	48035.437500
1771.688477	48385.582031
1770.678711	48944.960938
1769.668945	48479.167969
1768.659180	48501.878906
1767.648438	48476.476563
1766.637695	49006.578125
1765.626953	49058.031250
1764.616211	48609.445313
1763.605469	48682.578125
1762.593750	49183.425781
1761.583008	49366.945313
1760.571289	48452.589844
1759.559570	49565.660156
1758.547852	49684.171875
1757.535156	49202.406250
1756.523438	49366.546875
1755.510742	50269.855469
1754.498047	49754.640625
1753.485352	49568.300781
1752.472656	50125.660156
1751.458984	49970.496094
1750.445313	50179.878906
1749.432617	50197.378906
1748.417969	50313.152344
1747.404297	50450.453125
1746.390625	50455.910156
1745.375977	50018.132813
1744.361328	50553.046875
1743.346680	50726.125000
1742.332031	50906.324219
1741.317383	51062.519531
1740.302734	51180.355469
1739.287109	51434.562500
1738.271484	51573.824219
1737.255859	52036.015625
1736.240234	52189.464844
1735.223633	52603.546875
1734.208008	52374.250000
1733.191406	52709.253906
1732.174805	53457.664063
1731.158203	53861.660156
1730.140625	53847.347656
1729.124023	54126.894531
1728.106445	53890.394531
1727.088867	54943.617188
1726.071289	55339.816406
1725.053711	55136.644531
1724.035156	55568.468750
1723.017578	55589.656250
1721.999023	56381.550781
1720.980469	56187.867188
1719.961914	56454.609375
1718.942383	56275.289063
1717.923828	56372.621094
1716.904297	56829.902344
1715.884766	56645.835938
1714.865234	56914.632813
1713.844727	57161.886719
1712.825195	56989.761719
1711.804688	57184.511719
1710.784180	57333.937500
1709.763672	56773.757813
1708.743164	56887.492188
1707.722656	57279.667969
1706.701172	56824.496094
1705.679688	56528.906250
1704.658203	56866.210938
1703.636719	56154.472656
1702.615234	56158.785156
1701.592773	56581.570313
1700.571289	56673.761719
1699.548828	55993.449219
1698.526367	56033.429688
1697.502930	56249.214844
1696.480469	56044.445313
1695.457031	55963.253906
1694.433594	56347.535156
1693.410156	55114.777344
1692.386719	55731.707031
1691.363281	55731.320313
1690.338867	55382.089844
1689.314453	55600.039063
1688.290039	55488.175781
1687.265625	55724.996094
1686.241211	55843.164063
1685.215820	55973.144531
1684.191406	55951.363281
1683.166016	55941.437500
1682.140625	56047.625000
1681.115234	56622.886719
1680.088867	55743.476563
1679.062500	56005.953125
1678.037109	56251.757813
1677.010742	55879.535156
1675.983398	56579.765625
1674.957031	56169.746094
1673.930664	56661.433594
1672.903320	56712.890625
1671.875977	56456.812500
1670.848633	56872.500000
1669.820313	56777.277344
1668.792969	56930.328125
1667.764648	56962.765625
1666.736328	57292.980469
1665.708008	57029.968750
1664.679688	57674.265625
1663.651367	56818.382813
1662.622070	57266.460938
1661.592773	57468.804688
1660.563477	57777.312500
1659.534180	57970.050781
1658.504883	58103.710938
1657.474609	57779.562500
1656.444336	58094.867188
1655.415039	58256.734375
1654.383789	58314.773438
1653.353516	58160.582031
1652.323242	58480.296875
1651.291992	58564.187500
1650.260742	58723.460938
1649.229492	59165.421875
1648.198242	59350.441406
1647.166016	59740.312500
1646.134766	59192.753906
1645.102539	60018.105469
1644.070313	60313.476563
1643.038086	60109.750000
1642.004883	60030.816406
1640.972656	60742.480469
1639.939453	61251.582031
1638.906250	61193.648438
1637.873047	61323.863281
1636.839844	61541.027344
1635.805664	61701.691406
1634.772461	61914.003906
1633.738281	61874.792969
1632.704102	62639.140625
1631.668945	62785.390625
1630.634766	62778.917969
1629.599609	62899.253906
1628.565430	63268.421875
1627.530273	63405.054688
1626.494141	64266.875000
1625.458984	64180.343750
1624.422852	64572.472656
1623.387695	64690.000000
1622.351563	65553.312500
1621.315430	66399.898438
1620.278320	67314.179688
1619.242188	67876.507813
1618.205078	69664.390625
1617.167969	71350.875000
1616.130859	73477.218750
1615.093750	74953.937500
1614.055664	77373.976563
1613.018555	78739.414063
1611.980469	80151.187500
1610.942383	80345.242188
1609.904297	81419.210938
1608.865234	80199.632813
1607.827148	79343.109375
1606.788086	77502.125000
1605.749023	75914.375000
1604.709961	74850.960938
1603.669922	73673.359375
1602.630859	71334.468750
1601.590820	70571.570313
1600.550781	69949.140625
1599.510742	68922.757813
1598.470703	68494.710938
1597.429688	67809.914063
1596.389648	67935.593750
1595.348633	66786.562500
1594.307617	66828.343750
1593.265625	66765.093750
1592.224609	66466.195313
1591.182617	66309.710938
1590.140625	66855.343750
1589.098633	66227.765625
1588.056641	65931.500000
1587.014648	66103.914063
1585.971680	66336.859375
1584.928711	66255.117188
1583.886719	66010.304688
1582.842773	65970.578125
1581.799805	66541.101563
1580.755859	66312.656250
1579.712891	66249.609375
1578.668945	67397.078125
1577.625000	66796.203125
1576.580078	67272.976563
1575.536133	67958.960938
1574.491211	67849.140625
1573.446289	68304.523438
1572.401367	68420.226563
1571.356445	68605.640625
1570.311523	68688.710938
1569.265625	68664.828125
1568.219727	68766.437500
1567.173828	68649.617188
1566.127930	68233.171875
1565.082031	68109.515625
1564.035156	68060.203125
1562.988281	67681.226563
1561.941406	68186.789063
1560.894531	67246.273438
1559.847656	67696.031250
1558.799805	67915.945313
1557.751953	68441.968750
1556.704102	67495.117188
1555.656250	67146.835938
1554.608398	67649.523438
1553.560547	67676.843750
1552.511719	68174.609375
1551.462891	67453.398438
1550.414063	67913.953125
1549.365234	68200.617188
1548.315430	68137.484375
1547.265625	68041.953125
1546.216797	67782.085938
1545.166992	67987.554688
1544.116211	68165.171875
1543.066406	68298.757813
1542.015625	68712.210938
1540.965820	68385.367188
1539.915039	68158.078125
1538.863281	68462.656250
1537.812500	68221.562500
1536.760742	68209.367188
1535.709961	68148.640625
1534.658203	68011.687500
1533.605469	68212.054688
1532.553711	68222.960938
1531.501953	67372.500000
1530.449219	66499.250000
1529.396484	66563.539063
1528.343750	66581.640625
1527.290039	66052.828125
1526.237305	66244.046875
1525.183594	65300.257813
1524.129883	65173.257813
1523.076172	65486.738281
1522.022461	65163.777344
1520.968750	64663.429688
1519.914063	65041.355469
1518.859375	64889.156250
1517.804688	64684.019531
1516.750000	64356.867188
1515.694336	64253.226563
1514.639648	64172.648438
1513.583984	64209.507813
1512.528320	64324.617188
1511.472656	63815.996094
1510.416016	63521.550781
1509.360352	64073.824219
1508.303711	63363.097656
1507.247070	63910.597656
1506.190430	63919.847656
1505.132813	63301.480469
1504.076172	63956.718750
1503.018555	63074.277344
1501.960938	63384.660156
1500.903320	63207.902344
1499.844727	62966.894531
1498.787109	62767.304688
1497.728516	62841.015625
1496.669922	63029.480469
1495.611328	62632.585938
1494.552734	63100.984375
1493.493164	62470.187500
1492.434570	62470.464844
1491.375000	62149.632813
1490.315430	62088.046875
1489.254883	62118.191406
1488.195313	61903.035156
1487.134766	62194.480469
1486.074219	62022.925781
1485.013672	61807.894531
1483.953125	61295.148438
1482.892578	61471.964844
1481.831055	61378.507813
1480.769531	61580.425781
1479.708008	61489.269531
1478.646484	61627.007813
1477.583984	61307.039063
1476.522461	60989.472656
1475.459961	61184.406250
1474.397461	61178.007813
1473.334961	61322.523438
1472.271484	61130.914063
1471.208984	61476.535156
1470.145508	61271.246094
1469.082031	61678.406250
1468.018555	61534.835938
1466.954102	61421.007813
1465.890625	61766.253906
1464.826172	62024.605469
1463.761719	62262.312500
1462.697266	61865.394531
1461.631836	62383.742188
1460.567383	62292.683594
1459.501953	62589.476563
1458.436523	62343.312500
1457.371094	62238.621094
1456.305664	62669.781250
1455.239258	62476.160156
1454.172852	62193.710938
1453.107422	62544.878906
1452.040039	62761.492188
1450.973633	62526.976563
1449.907227	62531.691406
1448.839844	62468.085938
1447.772461	62022.000000
1446.705078	62600.445313
1445.637695	62682.515625
1444.569336	62680.355469
1443.500977	63096.828125
1442.432617	63208.328125
1441.364258	63542.671875
1440.295898	63237.917969
1439.227539	63369.785156
1438.158203	63715.277344
1437.088867	63494.742188
1436.019531	63969.601563
1434.950195	64046.707031
1433.879883	64257.800781
1432.810547	64618.707031
1431.740234	64125.710938
1430.669922	64745.316406
1429.598633	64479.453125
1428.528320	64930.828125
1427.457031	64258.867188
1426.386719	64551.308594
1425.314453	64040.695313
1424.243164	64058.660156
1423.171875	63793.191406
1422.099609	63951.742188
1421.027344	63625.187500
1419.955078	63461.910156
1418.882813	63278.296875
1417.810547	62983.746094
1416.737305	63162.671875
1415.664063	63087.902344
1414.590820	63162.589844
1413.517578	62927.117188
1412.444336	63017.640625
1411.370117	63191.863281
1410.295898	63433.890625
1409.221680	63359.136719
1408.147461	63388.445313
1407.073242	63478.792969
1405.998047	63912.761719
1404.922852	63774.671875
1403.847656	63948.515625
1402.772461	63862.437500
1401.697266	63683.753906
1400.621094	63410.261719
1399.544922	64119.289063
1398.468750	64173.226563
1397.392578	64229.398438
1396.316406	64082.398438
1395.239258	64565.097656
1394.162109	64481.265625
1393.084961	64837.378906
1392.007813	65125.695313
1390.930664	65479.304688
1389.852539	65559.953125
1388.774414	65875.031250
1387.696289	66174.210938
1386.618164	66714.406250
1385.540039	66600.992188
1384.460938	67499.101563
1383.382813	67935.156250
1382.303711	67848.601563
1381.223633	68736.984375
1380.144531	68148.304688
1379.064453	68664.945313
1377.985352	68663.820313
1376.905273	68757.187500
1375.825195	68580.578125
1374.744141	68266.835938
1373.664063	68241.031250
1372.583008	68183.765625
1371.501953	67820.796875
1370.420898	67278.164063
1369.338867	67203.117188
1368.257813	66669.773438
1367.175781	66401.671875
1366.093750	66268.421875
1365.011719	66092.546875
1363.929688	65804.484375
1362.846680	65770.171875
1361.763672	65275.792969
1360.680664	65338.062500
1359.597656	64354.871094
1358.514648	64616.910156
1357.430664	64493.117188
1356.346680	64367.125000
1355.262695	63828.687500
1354.178711	64133.203125
1353.094727	63556.898438
1352.009766	63686.582031
1350.925781	63188.964844
1349.840820	63475.449219
1348.755859	62431.636719
1347.669922	63497.312500
1346.584961	63073.953125
1345.499023	62988.703125
1344.413086	62916.910156
1343.327148	62986.093750
1342.240234	62677.203125
1341.154297	62444.464844
1340.067383	62618.789063
1338.980469	62889.183594
1337.893555	62529.109375
1336.805664	62482.054688
1335.718750	62890.859375
1334.630859	62658.320313
1333.542969	62486.171875
1332.455078	62941.644531
1331.367188	62677.949219
1330.278320	62572.859375
1329.189453	62963.332031
1328.100586	62951.953125
1327.011719	62695.132813
1325.922852	63239.292969
1324.833008	62630.089844
1323.743164	62741.421875
1322.653320	62910.687500
1321.563477	63077.656250
1320.473633	63601.183594
1319.382813	63375.750000
1318.291992	62738.199219
1317.201172	63426.343750
1316.110352	63158.738281
1315.019531	62893.453125
1313.927734	63445.375000
1312.835938	63465.066406
1311.744141	63491.421875
1310.652344	63435.433594
1309.560547	63292.691406
1308.467773	63817.332031
1307.375000	63576.710938
1306.282227	63789.796875
1305.189453	63558.152344
1304.095703	63893.414063
1303.002930	64079.648438
1301.909180	64094.718750
1300.815430	64136.437500
1299.721680	64313.632813
1298.626953	64355.292969
1297.533203	64283.691406
1296.438477	64962.484375
1295.343750	64866.375000
1294.248047	64792.496094
1293.153320	65275.562500
1292.057617	64746.851563
1290.961914	65123.281250
1289.866211	65628.195313
1288.770508	65312.546875
1287.674805	66216.265625
1286.578125	65009.625000
1285.481445	65527.476563
1284.384766	65508.960938
1283.288086	65395.191406
1282.190430	65288.109375
1281.092773	65546.437500
1279.996094	65171.464844
1278.897461	64967.074219
1277.799805	65046.042969
1276.702148	64536.375000
1275.603516	64568.929688
1274.504883	64674.460938
1273.406250	64109.839844
1272.307617	64040.730469
1271.208008	63589.171875
1270.108398	64081.617188
1269.008789	62967.210938
1267.909180	63718.105469
1266.809570	63503.304688
1265.708984	62789.394531
1264.609375	62795.675781
1263.508789	62680.515625
1262.407227	62260.742188
1261.306641	62326.703125
1260.206055	61858.593750
1259.104492	61931.214844
1258.002930	61178.769531
1256.901367	61033.128906
1255.798828	61130.113281
1254.697266	60671.449219
1253.594727	60188.703125
1252.492188	60631.804688
1251.389648	60329.929688
1250.286133	60158.148438
1249.183594	60072.335938
1248.080078	59883.039063
1246.976563	60052.734375
1245.872070	59782.046875
1244.768555	59520.257813
1243.664063	59465.437500
1242.560547	59379.828125
1241.455078	59373.449219
1240.350586	59274.687500
1239.246094	59200.148438
1238.140625	58991.507813
1237.035156	58767.550781
1235.929688	58919.527344
1234.824219	58860.480469
1233.717773	58775.085938
1232.612305	58663.359375
1231.505859	58336.421875
1230.399414	58404.878906
1229.291992	58609.437500
1228.185547	58410.003906
1227.078125	58190.882813
1225.970703	58853.996094
1224.863281	58669.972656
1223.755859	57904.710938
1222.647461	58571.890625
1221.539063	58477.917969
1220.430664	58212.968750
1219.322266	58055.523438
1218.213867	58132.636719
1217.104492	58137.406250
1215.995117	58008.535156
1214.885742	58050.558594
1213.776367	58096.945313
1212.666992	57981.281250
1211.556641	58303.500000
1210.446289	58052.125000
1209.335938	57687.042969
1208.225586	57591.218750
1207.115234	57760.128906
1206.003906	58090.832031
1204.892578	57708.503906
1203.781250	57868.550781
1202.669922	58046.023438
1201.557617	57972.078125
1200.446289	58018.347656
1199.333984	58405.433594
1198.221680	58204.757813
1197.108398	58154.855469
1195.996094	58795.000000
1194.882813	58808.316406
1193.769531	58976.609375
1192.656250	58915.675781
1191.542969	59585.757813
1190.428711	59156.031250
1189.314453	59435.371094
1188.200195	59636.097656
1187.085938	59095.382813
1185.971680	59590.402344
1184.856445	59586.089844
1183.741211	59745.222656
1182.625977	59361.753906
1181.510742	59947.847656
1180.395508	59492.597656
1179.279297	59693.000000
1178.163086	59891.148438
1177.046875	60141.468750
1175.930664	59414.437500
1174.813477	59956.347656
1173.697266	59155.636719
1172.580078	59366.742188
1171.462891	59516.867188
1170.344727	59479.929688
1169.227539	59166.886719
1168.109375	59319.132813
1166.991211	59197.480469
1165.873047	59125.847656
1164.754883	59134.625000
1163.635742	59543.070313
1162.516602	59056.597656
1161.397461	58987.207031
1160.278320	58800.601563
1159.159180	58668.328125
1158.039063	59059.113281
1156.918945	59096.078125
1155.798828	58857.515625
1154.678711	58985.597656
1153.558594	58810.027344
1152.437500	58775.449219
1151.316406	58246.625000
1150.195313	58940.406250
1149.074219	59014.167969
1147.952148	58938.402344
1146.831055	59152.933594
1145.708984	58882.242188
1144.586914	59298.085938
1143.463867	59486.449219
1142.341797	59912.851563
1141.218750	59811.019531
1140.095703	60308.605469
1138.972656	60407.933594
1137.849609	60329.851563
1136.725586	60500.503906
1135.601563	60742.441406
1134.477539	60372.480469
1133.353516	60136.664063
1132.229492	60047.886719
1131.104492	59998.027344
1129.979492	59343.304688
1128.854492	59343.261719
1127.729492	59343.222656
1126.603516	59343.179688
1125.478516	59343.136719
1124.352539	59623.667969
1123.226563	59494.089844
1122.099609	59459.488281
1120.973633	58762.656250
1119.846680	58928.773438
1118.719727	58909.378906
1117.592773	59004.257813
1116.465820	58691.695313
1115.337891	58336.140625
1114.209961	57959.167969
1113.082031	57980.890625
1111.954102	57993.984375
1110.826172	58181.515625
1109.697266	58035.226563
1108.568359	57738.292969
1107.439453	57570.613281
1106.310547	57476.156250
1105.180664	57571.078125
1104.051758	57732.648438
1102.921875	57872.648438
1101.791992	57569.601563
1100.661133	57855.781250
1099.531250	58257.933594
1098.400391	57363.929688
1097.269531	57965.863281
1096.138672	57996.082031
1095.006836	57712.664063
1093.875977	57618.343750
1092.744141	57794.617188
1091.612305	57187.199219
1090.480469	56914.859375
1089.347656	57114.765625
1088.215820	57151.519531
1087.083008	57040.226563
1085.950195	56452.796875
1084.816406	56137.937500
1083.683594	56856.675781
1082.549805	56640.464844
1081.416016	56627.949219
1080.282227	56527.578125
1079.148438	56866.468750
1078.013672	56277.664063
1076.878906	56282.351563
1075.744141	56381.253906
1074.609375	56796.992188
1073.474609	56108.007813
1072.338867	56292.492188
1071.203125	56228.687500
1070.067383	56627.019531
1068.931641	56077.601563
1067.794922	56189.234375
1066.659180	56091.269531
1065.522461	56185.746094
1064.385742	56628.601563
1063.248047	55974.953125
1062.111328	56738.183594
1060.973633	56379.566406
1059.835938	56411.953125
1058.698242	55897.625000
1057.559570	56399.812500
1056.421875	55813.089844
1055.283203	56125.144531
1054.144531	56567.257813
1053.005859	56661.429688
1051.866211	56390.792969
1050.726563	56339.929688
1049.587891	56483.128906
1048.447266	56447.187500
1047.307617	56281.222656
1046.167969	56194.175781
1045.027344	56874.261719
1043.886719	56770.089844
1042.746094	56895.996094
1041.604492	56532.035156
1040.463867	56579.152344
1039.322266	56643.281250
1038.180664	56658.429688
1037.038086	56731.027344
1035.896484	56578.058594
1034.753906	55880.550781
1033.611328	56331.839844
1032.468750	56223.675781
1031.326172	56508.890625
1030.182617	56345.464844
1029.040039	56611.417969
1027.896484	56545.773438
1026.751953	56592.757813
1025.608398	56968.968750
1024.463867	56748.250000
1023.319336	56028.605469
1022.174805	56755.007813
1021.030273	56742.460938
1019.885742	56806.320313
1018.740234	56443.656250
1017.594727	56513.902344
1016.449219	56936.222656
1015.303711	56656.433594
1014.157227	57214.265625
1013.010742	56442.703125
1011.864258	56877.429688
1010.717773	56498.250000
1009.571289	56667.960938
1008.423828	55973.316406
1007.276367	55935.496094
1006.128906	56172.968750
1004.981445	56702.527344
1003.833008	56857.214844
1002.684570	56889.089844
1001.536133	57295.484375
1000.387695	57583.253906
999.239258	57621.316406
998.089844	57124.304688
996.941406	57549.378906
995.791992	57868.593750
994.641602	57547.238281
993.492188	57350.683594
992.341797	57796.519531
991.191406	57450.000000
990.041016	57289.468750
988.890625	57167.007813
987.739258	57255.722656
986.588867	57553.386719
985.437500	57388.726563
984.285156	57479.453125
983.133789	57285.324219
981.981445	57224.152344
980.829102	57380.234375
979.676758	57475.105469
978.524414	57234.726563
977.372070	57816.500000
976.218750	57394.898438
975.065430	57369.582031
973.912109	57843.558594
972.757813	57742.335938
971.604492	57693.796875
970.450195	58051.640625
969.295898	57683.074219
968.141602	57352.527344
966.986328	57647.097656
965.832031	57472.367188
964.676758	58296.906250
963.521484	57718.300781
962.365234	57261.871094
961.209961	58022.914063
960.053711	57871.386719
958.897461	58331.492188
957.741211	58505.656250
956.584961	58356.214844
955.427734	58133.308594
954.270508	57998.687500
953.113281	58311.355469
951.956055	58401.375000
950.797852	57914.148438
949.639648	58117.523438
948.481445	57294.816406
947.323242	57760.449219
946.165039	57953.246094
945.005859	58005.468750
943.847656	57577.542969
942.687500	57602.562500
941.528320	57550.019531
940.369141	58103.085938
939.208984	57692.207031
938.048828	57828.195313
936.888672	57796.582031
935.728516	57672.847656
934.567383	57925.992188
933.406250	58116.246094
932.245117	58145.285156
931.083984	57919.039063
929.922852	58192.863281
928.760742	58106.824219
927.598633	58353.320313
926.436523	58250.550781
925.274414	58685.062500
924.111328	58910.406250
922.948242	58646.679688
921.785156	58790.460938
920.622070	58998.937500
919.458984	59094.558594
918.294922	58762.074219
917.130859	59212.613281
915.966797	59393.714844
914.802734	59489.179688
913.637695	59127.644531
912.472656	59851.066406
911.307617	59535.480469
910.142578	60231.445313
908.977539	59951.347656
907.811523	60605.277344
906.645508	60391.902344
905.479492	60618.304688
904.313477	60548.765625
903.146484	60129.285156
901.980469	60163.992188
900.813477	59648.941406
899.646484	59523.410156
898.478516	59772.601563
897.311523	59509.726563
896.143555	59444.625000
894.975586	59229.753906
893.806641	58792.390625
892.638672	59016.523438
891.469727	59178.187500
890.300781	59027.957031
889.131836	59538.746094
887.962891	59097.562500
886.792969	58999.367188
885.623047	58901.203125
884.453125	59417.859375
883.283203	59180.519531
882.112305	59431.167969
880.942383	59177.300781
879.771484	59666.531250
878.600586	59823.570313
877.428711	60115.398438
876.257813	59573.257813
875.085938	60763.015625
873.914063	60428.300781
872.741211	60964.421875
871.569336	61351.101563
870.396484	60359.519531
869.223633	60791.746094
868.050781	60736.988281
866.877930	60717.457031
865.704102	61182.503906
864.530273	61576.976563
863.356445	61656.656250
862.182617	62222.675781
861.007813	62639.496094
859.833984	62884.437500
858.659180	62678.347656
857.484375	62873.546875
856.308594	62768.851563
855.133789	62112.199219
853.958008	62111.027344
852.782227	62035.453125
851.605469	61761.546875
850.429688	61933.960938
849.252930	61757.246094
848.076172	61634.285156
846.899414	61874.750000
845.722656	62340.136719
844.544922	62173.785156
843.367188	62345.914063
842.189453	63000.757813
841.011719	63263.425781
839.833008	63866.289063
838.655273	64786.476563
837.476563	64813.632813
836.296875	65178.824219
835.118164	65787.054688
833.938477	65502.867188
832.758789	65546.343750
831.579102	64673.218750
830.399414	64768.304688
829.219727	63358.257813
828.039063	62858.617188
826.858398	62145.109375
825.677734	61726.132813
824.496094	61554.195313
823.315430	61160.160156
822.133789	60659.324219
820.952148	60561.699219
819.769531	60679.980469
818.587891	60013.003906
817.405273	60108.730469
816.222656	60074.968750
815.040039	59891.246094
813.856445	59171.496094
812.673828	59450.070313
811.490234	59200.855469
810.305664	59159.066406
809.122070	59065.980469
807.938477	59135.039063
806.753906	59245.105469
805.569336	58815.628906
804.383789	58919.558594
803.199219	58227.824219
802.013672	58760.304688
800.828125	58312.777344
799.642578	58371.621094
798.457031	58450.933594
797.270508	58042.628906
796.083984	57534.109375
794.897461	57810.121094
793.710938	57408.300781
792.523438	57192.914063
791.336914	57245.730469
790.149414	57482.699219
788.961914	57592.726563
787.773438	56986.742188
786.585938	57070.226563
785.397461	56951.238281
784.208984	56689.175781
783.019531	56476.265625
781.831055	57156.539063
780.641602	56391.917969
779.452148	55976.921875
778.262695	56154.425781
777.072266	56591.218750
775.882813	56064.109375
774.692383	56190.453125
773.501953	56202.449219
772.310547	55838.957031
771.120117	55818.363281
769.928711	55763.093750
768.737305	55909.761719
767.544922	55827.984375
766.353516	56231.460938
765.161133	55766.433594
763.968750	56406.175781
762.776367	56293.792969
761.583984	56692.800781
760.390625	56733.164063
759.197266	57205.250000
758.003906	57485.761719
756.810547	57350.875000
755.616211	57785.937500
754.421875	57651.039063
753.227539	57711.511719
752.033203	57609.222656
750.838867	57557.812500
749.643555	57126.160156
748.448242	57741.707031
747.252930	56551.976563
746.057617	56746.703125
744.861328	56543.093750
743.665039	56172.968750
742.468750	55819.226563
741.272461	55875.839844
740.075195	55999.433594
738.878906	55432.757813
737.681641	55860.832031
736.484375	55663.722656
735.286133	55720.296875
734.087891	54945.148438
732.890625	55222.902344
731.691406	55167.992188
730.493164	54890.082031
729.294922	55386.605469
728.095703	55368.167969
726.896484	55205.867188
725.696289	54814.699219
724.497070	55175.144531
723.296875	54251.511719
722.096680	54397.296875
720.896484	54670.558594
719.696289	54761.558594
718.495117	54049.136719
717.293945	54198.886719
716.092773	54407.242188
714.891602	54213.039063
713.689453	54085.636719
712.487305	54206.953125
711.285156	54265.558594
710.083008	53972.492188
708.880859	54261.464844
707.677734	54004.863281
706.474609	54437.125000
705.271484	54358.296875
704.068359	54418.812500
702.864258	54257.246094
701.660156	53972.617188
700.456055	54539.671875
699.251953	53851.574219
698.046875	54174.355469
696.841797	53887.925781
695.636719	54025.058594
694.431641	53599.648438
693.226563	54119.765625
692.020508	54591.316406
690.814453	54123.718750
689.608398	54373.484375
688.402344	53853.726563
687.195313	54451.835938
685.988281	54365.144531
684.781250	54435.503906
683.574219	54362.933594
682.366211	54133.425781
681.158203	53996.550781
679.950195	54746.824219
678.742188	54527.421875
677.534180	54493.097656
676.325195	54563.320313
675.116211	54800.351563
673.907227	54362.039063
672.697266	55093.304688
671.488281	54604.871094
670.278320	54825.640625
669.068359	54753.128906
667.858398	54252.976563
666.647461	54726.617188
665.436523	53999.855469
664.225586	54531.550781
663.014648	53648.601563
661.802734	53594.429688
660.591797	53710.750000
659.379883	53393.902344
658.167969	53650.542969
656.955078	53510.210938
655.743164	53836.871094
654.530273	53077.417969
653.317383	53420.058594
652.103516	53558.269531
650.890625	53500.179688
649.676758	53321.976563
648.462891	52921.636719
647.249023	53139.886719
646.034180	53512.132813
644.819336	52825.878906
643.604492	52707.964844
642.389648	52860.082031
641.174805	53328.070313
639.958984	52836.273438
638.743164	53014.261719
637.527344	53142.214844
636.311523	52738.636719
635.094727	53383.992188
633.877930	53367.992188
632.661133	53587.636719
631.444336	53445.816406
630.226563	53465.738281
629.008789	53020.625000
627.791016	53188.277344
626.573242	53290.027344
625.355469	52765.406250
624.136719	52777.445313
622.917969	52743.621094
621.699219	52600.156250
620.480469	52640.121094
619.260742	52552.523438
618.041016	52530.710938
616.821289	52596.554688
615.601563	52596.640625
614.380859	52309.980469
613.160156	52568.941406
611.939453	52624.765625
610.718750	51930.257813
609.497070	52499.550781
608.276367	52362.371094
607.054688	52654.882813
605.832031	52641.019531
604.610352	52235.457031
603.387695	52565.589844
602.165039	52335.097656
600.942383	52297.449219
599.719727	52665.128906
598.496094	51914.285156
597.272461	52166.699219
596.048828	52254.203125
594.825195	52214.605469
593.600586	52111.503906
592.375977	52294.218750
591.151367	51895.488281
589.926758	52145.621094
588.701172	51901.773438
587.476563	51763.117188
586.250977	51832.699219
585.024414	51799.167969
583.798828	51949.972656
582.572266	51635.039063
581.345703	52229.613281
580.119141	52017.746094
578.892578	51980.238281
577.665039	52190.261719
576.437500	51927.039063
575.209961	52222.101563
573.982422	51703.675781
572.753906	52038.234375
571.525391	52226.273438
570.296875	51690.332031
569.068359	51991.078125
567.838867	51890.351563
566.610352	51963.613281
565.380859	51955.812500
564.150391	51493.527344
562.920898	51851.308594
561.690430	51764.515625
560.459961	51547.410156
559.229492	51670.003906
557.999023	51733.324219
556.767578	51603.183594
555.536133	51646.753906
554.304688	51092.464844
553.073242	51641.117188
551.840820	51773.402344
550.608398	51649.281250
549.375977	51458.171875
548.143555	51131.117188
546.910156	51119.519531
545.676758	51192.648438
544.443359	51332.734375
543.209961	51210.792969
541.975586	51118.433594
540.742188	51461.250000
539.507813	51329.503906
538.272461	51213.546875
537.038086	51373.132813
535.802734	51089.972656
534.567383	51084.277344
533.332031	51332.296875
532.096680	51682.472656
530.860352	51177.292969
529.624023	51867.417969
528.387695	51470.480469
527.151367	51266.253906
525.914063	51329.277344
524.676758	51557.261719
523.439453	51144.964844
522.202148	51213.855469
520.963867	51465.285156
519.725586	51074.820313
518.487305	51210.398438
517.249023	51412.628906
516.009766	51071.425781
514.771484	51077.480469
513.532227	51075.687500
512.291992	51505.195313
511.052734	51113.257813
509.812500	51538.671875
508.572266	51366.320313
507.332031	51021.640625
506.090820	50870.992188
504.850586	51709.308594
503.609375	51153.304688
502.368164	51335.484375
501.125977	51727.003906
499.884766	51476.558594
498.642578	52073.320313
497.400391	51648.812500
496.157227	51723.152344
494.915039	52020.367188
493.671875	52071.144531
492.428711	51598.082031
491.184570	52014.347656
489.941406	52033.828125
488.697266	51908.746094
487.453125	51994.640625
486.208984	51619.664063
484.963867	52049.187500
483.718750	51986.648438
482.473633	52170.035156
481.228516	52015.785156
479.982422	51959.132813
478.737305	52384.273438
477.491211	52282.714844
476.244141	52161.695313
474.998047	52325.332031
473.750977	51956.820313
472.503906	52210.066406
471.256836	52691.160156
470.009766	52466.925781
468.761719	52515.433594
467.513672	52877.410156
466.265625	52964.750000
465.017578	52653.035156
463.768555	53557.730469
462.519531	53783.027344
461.270508	53327.371094
460.021484	53758.789063
458.771484	54281.437500
457.521484	54160.347656
456.271484	54233.683594
455.021484	54886.152344
453.770508	54545.433594
452.519531	54793.500000
451.268555	55297.859375
450.017578	55809.796875
448.765625	55511.867188
447.514648	56204.105469
446.262695	56618.527344
445.009766	57100.707031
443.757813	57184.960938
442.504883	57492.265625
441.251953	57574.468750
439.999023	57371.597656
438.745117	56862.480469
437.492188	55872.847656
436.238281	55608.386719
434.983398	55285.898438
433.729492	54124.699219
432.474609	54387.546875
431.219727	53662.667969
429.964844	54117.175781
428.709961	53576.519531
427.454102	53299.277344
426.198242	53035.687500
424.942383	53015.960938
423.685547	53253.503906
422.429688	53138.976563
421.172852	52587.500000
419.916016	52591.062500
418.658203	52631.347656
417.401367	52592.378906
416.143555	52986.218750
414.885742	53055.371094
413.626953	52941.015625
412.369141	53031.386719
411.110352	52934.449219
409.851563	52596.261719
408.591797	52806.292969
407.333008	52807.855469
406.073242	52649.289063
404.813477	52566.003906
403.553711	52334.257813
402.292969	52735.007813
401.032227	52659.457031
