#Wave		#Intensity
2001.221680	39775.878906
2000.251953	39798.437500
1999.282227	39999.492188
1998.312500	39819.621094
1997.342773	39910.371094
1996.372070	40359.273438
1995.402344	40342.207031
1994.431641	40037.203125
1993.460938	39897.527344
1992.490234	40085.796875
1991.518555	39803.511719
1990.547852	40269.464844
1989.576172	39849.652344
1988.604492	39962.753906
1987.632813	40178.347656
1986.661133	39851.277344
1985.689453	40049.312500
1984.716797	39924.839844
1983.745117	40077.804688
1982.772461	39895.898438
1981.799805	40011.339844
1980.827148	40371.523438
1979.853516	40124.722656
1978.880859	39765.648438
1977.907227	40135.667969
1976.933594	40121.164063
1975.959961	40443.570313
1974.986328	39967.414063
1974.011719	40037.761719
1973.038086	40562.046875
1972.063477	40275.644531
1971.088867	39852.207031
1970.114258	40017.253906
1969.138672	40688.230469
1968.164063	40409.476563
1967.188477	40260.386719
1966.212891	40412.785156
1965.237305	40288.652344
1964.261719	40523.171875
1963.286133	40391.585938
1962.309570	40461.699219
1961.333984	40872.781250
1960.357422	40905.453125
1959.380859	40659.429688
1958.404297	40881.191406
1957.426758	40749.675781
1956.450195	40774.875000
1955.472656	40703.093750
1954.495117	40603.992188
1953.517578	41141.226563
1952.540039	41089.296875
1951.561523	40781.457031
1950.583008	41055.042969
1949.605469	41648.945313
1948.626953	40846.968750
1947.647461	40695.808594
1946.668945	41180.226563
1945.690430	40979.414063
1944.710938	41356.898438
1943.731445	41188.378906
1942.751953	41295.285156
1941.772461	41082.187500
1940.791992	41387.464844
1939.812500	41082.679688
1938.832031	41620.878906
1937.851563	41559.058594
1936.871094	41742.601563
1935.890625	41205.054688
1934.909180	40880.738281
1933.928711	41356.574219
1932.947266	41227.984375
1931.965820	41272.757813
1930.984375	41107.089844
1930.002930	41245.921875
1929.020508	41624.753906
1928.038086	41211.679688
1927.056641	41107.976563
1926.074219	41226.921875
1925.090820	40982.289063
1924.108398	41345.992188
1923.125000	41346.160156
1922.142578	41067.031250
1921.159180	41146.328125
1920.175781	40993.335938
1919.191406	41065.207031
1918.208008	41361.812500
1917.223633	41349.621094
1916.240234	41260.894531
1915.255859	41540.023438
1914.271484	40960.113281
1913.286133	41372.457031
1912.301758	41355.332031
1911.316406	41214.867188
1910.331055	41012.789063
1909.345703	41412.496094
1908.360352	40914.574219
1907.375000	41452.207031
1906.388672	41834.367188
1905.402344	41279.949219
1904.416016	41331.843750
1903.429688	41477.328125
1902.443359	41573.496094
1901.457031	41374.121094
1900.469727	41312.695313
1899.482422	41332.527344
1898.495117	41352.347656
1897.507813	41428.761719
1896.520508	41657.695313
1895.532227	41596.265625
1894.543945	41950.523438
1893.556641	41859.546875
1892.568359	41067.871094
1891.579102	41490.863281
1890.590820	41540.109375
1889.601563	41781.019531
1888.613281	41744.199219
1887.624023	41707.394531
1886.634766	42144.628906
1885.644531	41926.039063
1884.655273	41714.890625
1883.665039	41879.406250
1882.674805	41994.769531
1881.684570	41732.183594
1880.694336	41825.449219
1879.704102	41867.167969
1878.712891	42068.289063
1877.722656	41987.332031
1876.731445	41872.078125
1875.740234	41957.875000
1874.748047	42205.406250
1873.756836	41997.046875
1872.764648	42506.636719
1871.773438	41911.250000
1870.781250	42001.855469
1869.788086	41987.128906
1868.795898	42109.515625
1867.803711	42011.539063
1866.810547	42317.437500
1865.817383	42417.671875
1864.824219	42713.601563
1863.831055	42253.542969
1862.837891	42608.093750
1861.843750	42461.218750
1860.849609	42551.550781
1859.855469	41991.613281
1858.861328	42690.566406
1857.867188	42255.421875
1856.872070	42306.628906
1855.877930	42856.144531
1854.882813	42782.664063
1853.887695	42421.062500
1852.892578	42391.628906
1851.896484	43096.964844
1850.901367	43057.656250
1849.905273	42754.816406
1848.909180	43281.605469
1847.913086	42839.789063
1846.916992	42983.464844
1845.919922	43249.015625
1844.923828	43004.914063
1843.926758	43601.878906
1842.929688	43406.542969
1841.932617	43320.925781
1840.935547	43150.070313
1839.937500	43583.375000
1838.939453	43646.335938
1837.942383	43609.433594
1836.943359	43706.445313
1835.945313	43861.843750
1834.947266	43579.105469
1833.948242	43753.933594
1832.949219	44164.695313
1831.951172	43560.960938
1830.951172	43983.765625
1829.952148	43842.281250
1828.953125	43871.027344
1827.953125	43744.195313
1826.953125	44278.457031
1825.953125	44178.324219
1824.953125	44403.773438
1823.952148	44352.230469
1822.952148	44281.273438
1821.951172	44458.015625
1820.950195	44251.105469
1819.949219	44095.242188
1818.948242	44531.601563
1817.946289	44620.816406
1816.945313	43991.878906
1815.943359	44554.156250
1814.941406	44119.464844
1813.939453	44877.921875
1812.936523	44806.980469
1811.934570	44719.093750
1810.931641	44849.351563
1809.928711	44671.832031
1808.925781	44940.140625
1807.921875	44966.128906
1806.918945	44999.375000
1805.915039	45061.660156
1804.912109	45218.339844
1803.908203	45188.582031
1802.903320	44902.304688
1801.899414	44783.082031
1800.894531	45578.371094
1799.890625	45800.121094
1798.885742	45209.214844
1797.880859	45764.625000
1796.875000	45715.453125
1795.870117	45528.527344
1794.864258	46066.664063
1793.858398	45734.761719
1792.852539	45656.632813
1791.846680	46317.644531
1790.840820	46002.769531
1789.833984	46564.484375
1788.828125	46126.554688
1787.821289	45930.148438
1786.814453	46329.886719
1785.806641	46852.535156
1784.799805	46335.246094
1783.791992	46616.507813
1782.784180	46164.550781
1781.776367	47094.335938
1780.768555	46678.613281
1779.760742	46436.574219
1778.751953	46666.953125
1777.743164	46326.210938
1776.735352	46734.792969
1775.725586	47191.394531
1774.716797	47045.796875
1773.708008	47162.691406
1772.698242	47055.664063
1771.688477	46970.335938
1770.678711	47604.562500
1769.668945	47507.132813
1768.659180	47493.929688
1767.648438	47293.125000
1766.637695	47424.246094
1765.626953	47584.171875
1764.616211	47568.554688
1763.605469	47959.128906
1762.593750	47760.812500
1761.583008	47485.679688
1760.571289	47820.808594
1759.559570	47788.339844
1758.547852	47952.789063
1757.535156	48278.046875
1756.523438	48046.265625
1755.510742	48572.992188
1754.498047	48552.410156
1753.485352	48277.511719
1752.472656	48739.144531
1751.458984	48526.664063
1750.445313	48494.105469
1749.432617	48739.671875
1748.417969	48587.226563
1747.404297	48734.421875
1746.390625	48982.203125
1745.375977	49685.109375
1744.361328	49743.394531
1743.346680	49708.250000
1742.332031	49972.441406
1741.317383	49748.128906
1740.302734	49825.503906
1739.287109	50616.050781
1738.271484	50769.816406
1737.255859	50830.214844
1736.240234	51242.218750
1735.223633	51515.363281
1734.208008	51771.667969
1733.191406	52587.324219
1732.174805	52699.925781
1731.158203	52996.507813
1730.140625	52910.664063
1729.124023	53374.335938
1728.106445	53508.210938
1727.088867	53799.656250
1726.071289	53768.640625
1725.053711	54391.777344
1724.035156	54971.730469
1723.017578	55004.953125
1721.999023	55231.441406
1720.980469	55305.160156
1719.961914	55486.187500
1718.942383	55707.695313
1717.923828	55793.207031
1716.904297	55802.398438
1715.884766	55954.597656
1714.865234	56330.757813
1713.844727	56161.136719
1712.825195	55772.398438
1711.804688	56324.648438
1710.784180	56212.265625
1709.763672	56192.781250
1708.743164	56544.679688
1707.722656	56246.656250
1706.701172	56467.531250
1705.679688	55696.128906
1704.658203	56233.414063
1703.636719	55728.714844
1702.615234	56249.156250
1701.592773	56072.746094
1700.571289	55463.738281
1699.548828	55936.406250
1698.526367	55572.406250
1697.502930	56299.109375
1696.480469	55585.960938
1695.457031	55846.871094
1694.433594	56079.191406
1693.410156	56377.906250
1692.386719	55717.464844
1691.363281	55743.187500
1690.338867	56191.296875
1689.314453	56103.035156
1688.290039	56271.000000
1687.265625	55921.855469
1686.241211	56336.410156
1685.215820	55925.726563
1684.191406	56389.910156
1683.166016	56304.062500
1682.140625	56848.578125
1681.115234	56648.949219
1680.088867	56875.781250
1679.062500	56500.953125
1678.037109	56680.367188
1677.010742	57072.792969
1675.983398	57003.484375
1674.957031	57485.648438
1673.930664	57499.109375
1672.903320	57313.828125
1671.875977	57022.160156
1670.848633	57529.984375
1669.820313	57467.750000
1668.792969	57630.132813
1667.764648	57650.632813
1666.736328	58226.511719
1665.708008	58421.750000
1664.679688	58460.988281
1663.651367	58160.066406
1662.622070	58218.226563
1661.592773	58961.132813
1660.563477	58983.714844
1659.534180	59251.769531
1658.504883	58724.398438
1657.474609	58541.714844
1656.444336	59413.648438
1655.415039	59259.207031
1654.383789	59651.957031
1653.353516	59898.371094
1652.323242	60281.429688
1651.291992	60218.863281
1650.260742	60948.156250
1649.229492	60762.960938
1648.198242	60961.828125
1647.166016	61761.253906
1646.134766	61543.039063
1645.102539	61633.343750
1644.070313	62427.507813
1643.038086	62406.996094
1642.004883	62953.636719
1640.972656	63351.847656
1639.939453	63502.906250
1638.906250	64093.742188
1637.873047	64376.300781
1636.839844	64592.921875
1635.805664	65394.812500
1634.772461	65496.000000
1633.738281	65655.898438
1632.704102	66283.296875
1631.668945	66865.843750
1630.634766	66661.351563
1629.599609	67671.000000
1628.565430	67799.835938
1627.530273	68006.085938
1626.494141	68376.554688
1625.458984	68730.460938
1624.422852	69314.171875
1623.387695	70451.273438
1622.351563	71003.968750
1621.315430	71577.578125
1620.278320	73091.132813
1619.242188	74184.546875
1618.205078	75408.820313
1617.167969	77340.328125
1616.130859	79863.890625
1615.093750	81714.273438
1614.055664	83257.179688
1613.018555	86213.875000
1611.980469	86767.429688
1610.942383	87678.937500
1609.904297	89273.500000
1608.865234	88681.968750
1607.827148	87533.835938
1606.788086	86189.625000
1605.749023	84719.593750
1604.709961	83469.890625
1603.669922	81474.843750
1602.630859	80684.289063
1601.590820	79164.859375
1600.550781	78188.070313
1599.510742	78174.140625
1598.470703	76705.007813
1597.429688	76815.117188
1596.389648	76754.726563
1595.348633	76162.085938
1594.307617	76311.898438
1593.265625	75707.867188
1592.224609	76338.359375
1591.182617	76222.109375
1590.140625	76236.507813
1589.098633	76582.054688
1588.056641	76778.242188
1587.014648	77013.992188
1585.971680	77284.617188
1584.928711	77242.875000
1583.886719	77303.656250
1582.842773	77809.359375
1581.799805	77520.648438
1580.755859	77923.664063
1579.712891	77884.148438
1578.668945	78922.468750
1577.625000	78396.343750
1576.580078	79275.945313
1575.536133	79408.382813
1574.491211	79571.007813
1573.446289	81029.054688
1572.401367	81058.773438
1571.356445	81281.460938
1570.311523	82382.750000
1569.265625	82398.257813
1568.219727	82146.531250
1567.173828	81883.273438
1566.127930	81587.585938
1565.082031	81324.515625
1564.035156	81695.468750
1562.988281	81242.085938
1561.941406	80839.929688
1560.894531	80997.242188
1559.847656	80309.859375
1558.799805	80253.757813
1557.751953	80870.351563
1556.704102	80322.500000
1555.656250	80398.585938
1554.608398	80154.710938
1553.560547	80339.742188
1552.511719	80105.226563
1551.462891	80394.453125
1550.414063	79780.070313
1549.365234	80349.523438
1548.315430	79994.734375
1547.265625	80401.851563
1546.216797	80676.867188
1545.166992	80683.281250
1544.116211	80687.382813
1543.066406	80601.234375
1542.015625	80566.007813
1540.965820	80033.500000
1539.915039	79894.320313
1538.863281	79510.093750
1537.812500	79250.835938
1536.760742	78399.976563
1535.709961	78986.796875
1534.658203	78371.945313
1533.605469	77789.648438
1532.553711	77570.179688
1531.501953	77466.250000
1530.449219	77082.984375
1529.396484	76307.414063
1528.343750	76252.226563
1527.290039	75945.523438
1526.237305	75655.078125
1525.183594	75989.867188
1524.129883	75222.093750
1523.076172	74800.484375
1522.022461	75107.570313
1520.968750	75163.281250
1519.914063	74887.101563
1518.859375	75150.218750
1517.804688	74597.656250
1516.750000	74181.203125
1515.694336	74766.718750
1514.639648	74831.632813
1513.583984	74583.406250
1512.528320	74454.968750
1511.472656	74140.156250
1510.416016	74140.687500
1509.360352	73745.515625
1508.303711	73863.421875
1507.247070	73714.515625
1506.190430	73710.515625
1505.132813	73895.023438
1504.076172	73426.679688
1503.018555	73052.726563
1501.960938	72598.484375
1500.903320	72941.562500
1499.844727	72200.382813
1498.787109	72316.054688
1497.728516	72300.804688
1496.669922	71762.148438
1495.611328	71976.523438
1494.552734	71828.234375
1493.493164	71790.125000
1492.434570	72073.187500
1491.375000	71145.125000
1490.315430	71584.132813
1489.254883	71115.046875
1488.195313	71441.570313
1487.134766	71389.804688
1486.074219	70701.000000
1485.013672	71086.984375
1483.953125	71049.046875
1482.892578	70729.406250
1481.831055	70817.484375
1480.769531	70575.835938
1479.708008	70638.718750
1478.646484	70937.312500
1477.583984	70270.148438
1476.522461	70063.085938
1475.459961	70485.132813
1474.397461	70300.960938
1473.334961	70176.312500
1472.271484	70440.351563
1471.208984	70724.875000
1470.145508	70405.945313
1469.082031	70985.125000
1468.018555	70520.039063
1466.954102	71240.601563
1465.890625	71682.289063
1464.826172	71810.992188
1463.761719	71220.523438
1462.697266	71860.546875
1461.631836	72039.343750
1460.567383	71894.078125
1459.501953	71833.265625
1458.436523	72463.578125
1457.371094	72311.460938
1456.305664	73171.750000
1455.239258	72857.695313
1454.172852	72561.992188
1453.107422	72740.382813
1452.040039	72927.820313
1450.973633	72780.328125
1449.907227	73277.437500
1448.839844	73451.007813
1447.772461	73087.195313
1446.705078	73128.703125
1445.637695	73042.734375
1444.569336	72692.828125
1443.500977	73041.523438
1442.432617	72730.406250
1441.364258	73251.812500
1440.295898	72856.632813
1439.227539	73268.687500
1438.158203	72928.195313
1437.088867	73294.632813
1436.019531	72647.492188
1434.950195	73272.835938
1433.879883	72532.789063
1432.810547	73130.671875
1431.740234	73167.484375
1430.669922	72323.414063
1429.598633	72355.812500
1428.528320	72678.679688
1427.457031	72808.562500
1426.386719	72407.539063
1425.314453	72600.929688
1424.243164	72358.820313
1423.171875	72465.984375
1422.099609	72289.726563
1421.027344	72453.523438
1419.955078	72787.210938
1418.882813	71738.664063
1417.810547	72038.382813
1416.737305	72161.320313
1415.664063	71858.476563
1414.590820	71641.773438
1413.517578	71986.554688
1412.444336	71853.648438
1411.370117	72130.367188
1410.295898	72253.140625
1409.221680	72075.007813
1408.147461	72306.296875
1407.073242	72548.812500
1405.998047	72831.929688
1404.922852	71853.593750
1403.847656	72014.687500
1402.772461	72268.359375
1401.697266	72675.570313
1400.621094	72854.492188
1399.544922	72450.664063
1398.468750	72290.843750
1397.392578	73298.273438
1396.316406	73059.351563
1395.239258	73303.468750
1394.162109	73333.140625
1393.084961	73983.195313
1392.007813	74109.718750
1390.930664	75050.312500
1389.852539	75530.585938
1388.774414	75388.484375
1387.696289	75593.531250
1386.618164	75667.804688
1385.540039	76289.562500
1384.460938	76636.250000
1383.382813	76642.710938
1382.303711	77306.734375
1381.223633	77727.343750
1380.144531	77335.148438
1379.064453	77667.820313
1377.985352	78317.664063
1376.905273	77678.070313
1375.825195	77943.007813
1374.744141	77850.234375
1373.664063	77809.218750
1372.583008	77489.421875
1371.501953	76931.460938
1370.420898	76771.500000
1369.338867	76380.148438
1368.257813	76130.476563
1367.175781	76123.484375
1366.093750	75692.023438
1365.011719	75312.359375
1363.929688	75031.617188
1362.846680	74851.976563
1361.763672	74746.460938
1360.680664	74584.882813
1359.597656	74275.296875
1358.514648	74602.828125
1357.430664	74095.992188
1356.346680	74111.773438
1355.262695	73755.398438
1354.178711	73524.671875
1353.094727	73043.039063
1352.009766	72763.218750
1350.925781	73148.843750
1349.840820	73175.953125
1348.755859	72829.070313
1347.669922	73001.757813
1346.584961	72057.335938
1345.499023	72626.250000
1344.413086	72270.757813
1343.327148	72011.593750
1342.240234	71888.976563
1341.154297	72399.351563
1340.067383	71865.250000
1338.980469	72473.804688
1337.893555	72304.242188
1336.805664	72096.742188
1335.718750	71987.632813
1334.630859	72278.468750
1333.542969	72171.593750
1332.455078	71828.023438
1331.367188	72446.960938
1330.278320	72619.164063
1329.189453	72784.609375
1328.100586	72351.898438
1327.011719	72419.148438
1325.922852	72696.070313
1324.833008	72734.234375
1323.743164	73048.914063
1322.653320	72890.773438
1321.563477	72890.976563
1320.473633	73352.546875
1319.382813	73571.046875
1318.291992	73270.320313
1317.201172	73457.562500
1316.110352	73814.007813
1315.019531	74310.609375
1313.927734	74660.085938
1312.835938	74637.679688
1311.744141	75004.765625
1310.652344	75298.281250
1309.560547	75160.070313
1308.467773	75629.179688
1307.375000	76095.890625
1306.282227	75708.546875
1305.189453	75994.992188
1304.095703	75672.265625
1303.002930	76091.945313
1301.909180	76138.171875
1300.815430	75813.359375
1299.721680	75801.859375
1298.626953	76218.984375
1297.533203	76467.195313
1296.438477	76733.078125
1295.343750	76916.734375
1294.248047	77018.203125
1293.153320	77303.804688
1292.057617	77813.351563
1290.961914	77919.039063
1289.866211	78279.703125
1288.770508	78713.406250
1287.674805	78302.335938
1286.578125	79449.554688
1285.481445	78963.156250
1284.384766	79914.859375
1283.288086	79078.539063
1282.190430	79460.664063
1281.092773	79326.687500
1279.996094	78838.523438
1278.897461	78853.015625
1277.799805	79245.953125
1276.702148	78656.265625
1275.603516	78650.859375
1274.504883	78714.023438
1273.406250	79013.804688
1272.307617	78141.539063
1271.208008	78772.929688
1270.108398	78519.929688
1269.008789	77931.093750
1267.909180	77967.789063
1266.809570	78017.718750
1265.708984	77440.328125
1264.609375	77379.914063
1263.508789	78092.304688
1262.407227	77455.601563
1261.306641	76680.078125
1260.206055	76719.132813
1259.104492	75842.515625
1258.002930	76104.507813
1256.901367	75587.828125
1255.798828	75150.718750
1254.697266	75644.187500
1253.594727	75112.429688
1252.492188	74907.054688
1251.389648	74911.093750
1250.286133	74930.546875
1249.183594	73974.156250
1248.080078	74112.695313
1246.976563	73643.429688
1245.872070	73678.500000
1244.768555	73125.835938
1243.664063	72828.656250
1242.560547	72951.859375
1241.455078	72661.414063
1240.350586	73182.726563
1239.246094	72749.390625
1238.140625	72390.968750
1237.035156	72646.031250
1235.929688	72861.429688
1234.824219	73043.781250
1233.717773	72958.007813
1232.612305	72586.679688
1231.505859	72786.546875
1230.399414	71506.226563
1229.291992	72485.656250
1228.185547	72645.906250
1227.078125	72136.679688
1225.970703	72601.953125
1224.863281	72128.023438
1223.755859	72498.796875
1222.647461	71663.164063
1221.539063	71959.328125
1220.430664	71792.781250
1219.322266	72220.328125
1218.213867	72272.945313
1217.104492	72599.453125
1215.995117	71703.351563
1214.885742	71957.546875
1213.776367	71896.281250
1212.666992	71997.070313
1211.556641	71896.414063
1210.446289	71885.523438
1209.335938	72257.617188
1208.225586	72312.304688
1207.115234	72139.453125
1206.003906	72076.031250
1204.892578	72174.445313
1203.781250	72519.890625
1202.669922	72500.140625
1201.557617	72878.187500
1200.446289	73087.820313
1199.333984	72832.000000
1198.221680	72934.523438
1197.108398	72881.945313
1195.996094	73731.226563
1194.882813	74543.078125
1193.769531	73813.531250
1192.656250	74749.468750
1191.542969	74550.390625
1190.428711	74545.546875
1189.314453	74750.101563
1188.200195	75011.281250
1187.085938	74751.234375
1185.971680	75583.492188
1184.856445	75541.390625
1183.741211	75647.500000
1182.625977	76450.804688
1181.510742	76870.406250
1180.395508	77583.890625
1179.279297	78059.742188
1178.163086	78237.125000
1177.046875	78725.742188
1175.930664	78979.109375
1174.813477	78742.757813
1173.697266	78904.640625
1172.580078	78774.976563
1171.462891	78571.398438
1170.344727	77985.179688
1169.227539	77742.687500
1168.109375	77326.375000
1166.991211	77008.015625
1165.873047	76305.156250
1164.754883	76371.632813
1163.635742	75892.867188
1162.516602	75850.796875
1161.397461	75593.781250
1160.278320	75447.570313
1159.159180	75325.281250
1158.039063	74686.539063
1156.918945	74562.257813
1155.798828	75251.539063
1154.678711	74710.750000
1153.558594	74573.515625
1152.437500	74204.328125
1151.316406	74550.648438
1150.195313	74198.937500
1149.074219	74506.117188
1147.952148	74145.867188
1146.831055	74390.117188
1145.708984	74276.914063
1144.586914	74761.414063
1143.463867	74708.796875
1142.341797	75162.726563
1141.218750	75493.125000
1140.095703	75600.515625
1138.972656	75984.796875
1137.849609	75994.718750
1136.725586	76456.632813
1135.601563	76356.179688
1134.477539	75765.023438
1133.353516	75422.640625
1132.229492	74883.726563
1131.104492	74950.000000
1129.979492	75007.601563
1128.854492	74540.328125
1127.729492	73855.109375
1126.603516	73690.476563
1125.478516	73646.796875
1124.352539	73223.265625
1123.226563	73054.515625
1122.099609	73039.007813
1120.973633	72221.054688
1119.846680	72734.101563
1118.719727	72177.414063
1117.592773	71612.296875
1116.465820	71250.007813
1115.337891	71055.953125
1114.209961	71456.687500
1113.082031	70821.007813
1111.954102	70721.906250
1110.826172	70853.265625
1109.697266	70670.210938
1108.568359	70588.398438
1107.439453	70155.773438
1106.310547	69964.328125
1105.180664	69549.179688
1104.051758	69917.234375
1102.921875	69493.632813
1101.791992	70111.007813
1100.661133	69377.914063
1099.531250	69646.835938
1098.400391	69490.093750
1097.269531	69698.710938
1096.138672	69503.343750
1095.006836	69073.898438
1093.875977	69162.203125
1092.744141	69014.265625
1091.612305	68175.078125
1090.480469	68220.562500
1089.347656	68302.500000
1088.215820	68562.507813
1087.083008	68202.414063
1085.950195	67881.062500
1084.816406	67609.148438
1083.683594	67783.312500
1082.549805	67770.898438
1081.416016	67955.687500
1080.282227	67529.648438
1079.148438	67420.867188
1078.013672	67269.273438
1076.878906	67167.000000
1075.744141	67570.132813
1074.609375	66986.109375
1073.474609	67065.882813
1072.338867	66950.867188
1071.203125	66989.960938
1070.067383	67061.132813
1068.931641	66661.671875
1067.794922	67102.859375
1066.659180	66645.804688
1065.522461	66552.351563
1064.385742	66854.367188
1063.248047	67070.781250
1062.111328	66973.023438
1060.973633	66768.484375
1059.835938	66871.585938
1058.698242	66583.843750
1057.559570	66511.851563
1056.421875	66634.148438
1055.283203	66937.820313
1054.144531	66842.320313
1053.005859	66955.945313
1051.866211	67636.953125
1050.726563	66912.195313
1049.587891	67914.953125
1048.447266	67633.859375
1047.307617	67583.085938
1046.167969	68084.320313
1045.027344	67343.078125
1043.886719	67852.687500
1042.746094	67893.492188
1041.604492	68083.351563
1040.463867	67862.195313
1039.322266	68045.593750
1038.180664	68350.257813
1037.038086	68335.585938
1035.896484	68395.390625
1034.753906	68467.929688
1033.611328	68855.226563
1032.468750	69278.523438
1031.326172	68270.773438
1030.182617	68492.070313
1029.040039	68853.562500
1027.896484	68362.796875
1026.751953	68558.460938
1025.608398	68652.078125
1024.463867	68599.117188
1023.319336	68769.140625
1022.174805	68779.859375
1021.030273	69002.843750
1019.885742	68824.632813
1018.740234	68852.304688
1017.594727	68739.945313
1016.449219	68903.367188
1015.303711	68960.695313
1014.157227	68837.765625
1013.010742	68803.921875
1011.864258	68867.578125
1010.717773	68643.007813
1009.571289	69075.328125
1008.423828	69357.085938
1007.276367	68992.757813
1006.128906	69378.179688
1004.981445	69790.984375
1003.833008	69797.203125
1002.684570	70728.289063
1001.536133	71153.304688
1000.387695	71857.421875
999.239258	72199.570313
998.089844	72258.195313
996.941406	72234.335938
995.791992	72237.960938
994.641602	72459.296875
993.492188	71792.960938
992.341797	71868.500000
991.191406	71409.531250
990.041016	71594.937500
988.890625	71455.062500
987.739258	71541.148438
986.588867	71426.656250
985.437500	71316.429688
984.285156	71045.859375
983.133789	70996.921875
981.981445	70865.726563
980.829102	71278.703125
979.676758	71214.976563
978.524414	71203.976563
977.372070	71070.726563
976.218750	70655.109375
975.065430	71074.054688
973.912109	71084.140625
972.757813	70995.226563
971.604492	70971.625000
970.450195	70851.171875
969.295898	71299.148438
968.141602	71418.617188
966.986328	71645.359375
965.832031	71043.046875
964.676758	70554.554688
963.521484	71380.734375
962.365234	70789.304688
961.209961	70738.421875
960.053711	71074.328125
958.897461	70571.539063
957.741211	70432.460938
956.584961	71074.960938
955.427734	70912.726563
954.270508	70305.320313
953.113281	70554.828125
951.956055	70821.031250
950.797852	70715.625000
949.639648	70593.460938
948.481445	70345.453125
947.323242	70160.460938
946.165039	70231.421875
945.005859	69832.625000
943.847656	70327.125000
942.687500	70148.554688
941.528320	69519.437500
940.369141	69835.601563
939.208984	69535.695313
938.048828	70207.828125
936.888672	69736.226563
935.728516	70527.421875
934.567383	70240.156250
933.406250	69892.296875
932.245117	70503.039063
931.083984	70644.867188
929.922852	70156.945313
928.760742	70441.007813
927.598633	70574.390625
926.436523	70553.000000
925.274414	70613.140625
924.111328	70733.867188
922.948242	70551.546875
921.785156	70724.468750
920.622070	71074.882813
919.458984	70944.796875
918.294922	71572.750000
917.130859	71054.304688
915.966797	71519.187500
914.802734	71280.578125
913.637695	71724.375000
912.472656	71779.976563
911.307617	72012.843750
910.142578	71901.523438
908.977539	72082.148438
907.811523	72260.617188
906.645508	72655.781250
905.479492	72190.156250
904.313477	72060.132813
903.146484	71886.421875
901.980469	72108.484375
900.813477	71314.273438
899.646484	71642.531250
898.478516	71416.968750
897.311523	71124.882813
896.143555	71259.476563
894.975586	70848.937500
893.806641	71555.531250
892.638672	71841.773438
891.469727	71447.976563
890.300781	71152.039063
889.131836	71172.132813
887.962891	71497.703125
886.792969	70682.468750
885.623047	71514.875000
884.453125	70785.093750
883.283203	71268.304688
882.112305	71570.671875
880.942383	71872.781250
879.771484	72175.148438
878.600586	71632.656250
877.428711	72272.914063
876.257813	72201.460938
875.085938	72461.851563
873.914063	72608.101563
872.741211	72600.875000
871.569336	72154.234375
870.396484	72348.117188
869.223633	72761.546875
868.050781	72161.812500
866.877930	72535.765625
865.704102	72824.406250
864.530273	73113.046875
863.356445	73401.687500
862.182617	73690.320313
861.007813	73979.203125
859.833984	73837.234375
858.659180	73674.617188
857.484375	74058.054688
856.308594	73843.757813
855.133789	73052.750000
853.958008	73229.375000
852.782227	73199.273438
851.605469	72935.695313
850.429688	72732.117188
849.252930	72555.468750
848.076172	72816.671875
846.899414	72825.890625
845.722656	72822.710938
844.544922	73199.296875
843.367188	73150.640625
842.189453	73281.500000
841.011719	73435.000000
839.833008	73497.687500
838.655273	74003.687500
837.476563	74369.304688
836.296875	75031.601563
835.118164	74706.492188
833.938477	75047.039063
832.758789	74734.406250
831.579102	74213.851563
830.399414	73372.226563
829.219727	72265.304688
828.039063	71854.593750
826.858398	71238.210938
825.677734	70276.343750
824.496094	69860.039063
823.315430	69692.796875
822.133789	69661.351563
820.952148	69566.171875
819.769531	69240.757813
818.587891	68901.078125
817.405273	68454.656250
816.222656	68483.039063
815.040039	68813.406250
813.856445	68671.226563
812.673828	68025.960938
811.490234	68686.789063
810.305664	67838.523438
809.122070	68242.570313
807.938477	68153.968750
806.753906	68229.531250
805.569336	67648.640625
804.383789	67980.632813
803.199219	67276.960938
802.013672	67459.234375
800.828125	67444.648438
799.642578	66880.820313
798.457031	66382.765625
797.270508	66872.351563
796.083984	66624.375000
794.897461	66607.890625
793.710938	65727.367188
792.523438	65696.718750
791.336914	65492.113281
790.149414	65680.484375
788.961914	65406.382813
787.773438	65134.429688
786.585938	65091.636719
785.397461	64693.054688
784.208984	64521.554688
783.019531	64532.042969
781.831055	63829.261719
780.641602	64185.191406
779.452148	64120.132813
778.262695	63521.988281
777.072266	63646.996094
775.882813	63784.207031
774.692383	63482.453125
773.501953	63513.503906
772.310547	63289.453125
771.120117	63579.640625
769.928711	63465.812500
768.737305	63451.960938
767.544922	63407.523438
766.353516	63267.277344
765.161133	63612.218750
763.968750	63545.347656
762.776367	63433.671875
761.583984	63576.691406
760.390625	63815.390625
759.197266	63677.242188
758.003906	64447.253906
756.810547	64235.750000
755.616211	64260.421875
754.421875	64441.777344
753.227539	64138.824219
752.033203	64171.628906
750.838867	64051.878906
749.643555	64035.878906
748.448242	63572.601563
747.252930	63306.667969
746.057617	63063.183594
744.861328	62519.062500
743.665039	62692.281250
742.468750	62264.203125
741.272461	61815.972656
740.075195	61814.601563
738.878906	62014.203125
737.681641	61718.488281
736.484375	61475.640625
735.286133	61703.589844
734.087891	61176.835938
732.890625	61216.128906
731.691406	61391.269531
730.493164	61568.371094
729.294922	60896.074219
728.095703	60643.542969
726.896484	60788.253906
725.696289	60791.097656
724.497070	61018.765625
723.296875	60239.855469
722.096680	60451.339844
720.896484	60699.179688
719.696289	60394.371094
718.495117	60346.675781
717.293945	60495.250000
716.092773	60223.007813
714.891602	60594.019531
713.689453	60131.773438
712.487305	60458.179688
711.285156	60111.347656
710.083008	60360.832031
708.880859	60624.363281
707.677734	59978.691406
706.474609	60341.164063
705.271484	60461.160156
704.068359	60405.449219
702.864258	60269.007813
701.660156	59961.050781
700.456055	60210.167969
699.251953	60049.621094
698.046875	60343.000000
696.841797	60876.273438
695.636719	60205.515625
694.431641	60708.367188
693.226563	60961.082031
692.020508	61515.996094
690.814453	61637.488281
689.608398	61176.714844
688.402344	61620.492188
687.195313	61216.277344
685.988281	61035.703125
684.781250	61473.207031
683.574219	61654.933594
682.366211	61776.218750
681.158203	61833.070313
679.950195	61889.902344
678.742188	61942.687500
677.534180	62465.980469
676.325195	62333.667969
675.116211	62659.699219
673.907227	62487.203125
672.697266	62178.136719
671.488281	62477.890625
670.278320	62247.265625
669.068359	62002.671875
667.858398	62189.839844
666.647461	61907.199219
665.436523	61365.753906
664.225586	61031.191406
663.014648	60704.777344
661.802734	60717.488281
660.591797	60048.300781
659.379883	59577.871094
658.167969	59654.929688
656.955078	59282.964844
655.743164	59462.250000
654.530273	59018.320313
653.317383	58985.230469
652.103516	58984.199219
650.890625	59283.546875
649.676758	59058.210938
648.462891	58951.062500
647.249023	58711.859375
646.034180	59001.015625
644.819336	58947.949219
643.604492	58992.914063
642.389648	59331.847656
641.174805	59038.792969
639.958984	59125.687500
638.743164	59318.484375
637.527344	59529.195313
636.311523	59138.406250
635.094727	59093.359375
633.877930	59391.863281
632.661133	59452.621094
631.444336	59217.859375
630.226563	59196.777344
629.008789	58241.660156
627.791016	58877.257813
626.573242	58552.992188
625.355469	58324.593750
624.136719	58640.718750
622.917969	58514.074219
621.699219	58110.363281
620.480469	58434.320313
619.260742	58293.824219
618.041016	58667.429688
616.821289	58150.437500
615.601563	58302.843750
614.380859	58072.859375
613.160156	58292.910156
611.939453	58437.234375
610.718750	58372.531250
609.497070	58254.125000
608.276367	58404.335938
607.054688	58071.140625
605.832031	57833.527344
604.610352	57538.339844
603.387695	57807.835938
602.165039	57745.304688
600.942383	57678.820313
599.719727	57449.437500
598.496094	57698.875000
597.272461	57513.261719
596.048828	57714.929688
594.825195	57908.578125
593.600586	57357.789063
592.375977	57374.796875
591.151367	56992.968750
589.926758	56992.175781
588.701172	57219.488281
587.476563	57248.394531
586.250977	56864.882813
585.024414	57327.980469
583.798828	57551.082031
582.572266	57371.828125
581.345703	57166.878906
580.119141	57716.718750
578.892578	57289.964844
577.665039	57637.597656
576.437500	57812.855469
575.209961	57598.109375
573.982422	57555.613281
572.753906	57635.808594
571.525391	57975.121094
570.296875	57360.957031
569.068359	57810.929688
567.838867	57412.535156
566.610352	57921.628906
565.380859	57167.601563
564.150391	57384.089844
562.920898	57574.808594
561.690430	57635.085938
560.459961	57065.335938
559.229492	56896.632813
557.999023	57290.632813
556.767578	57260.109375
555.536133	56827.019531
554.304688	56995.871094
553.073242	57067.992188
551.840820	56812.679688
550.608398	57012.984375
549.375977	57148.144531
548.143555	56664.292969
546.910156	56570.847656
545.676758	56776.945313
544.443359	56973.109375
543.209961	56879.652344
541.975586	56766.531250
540.742188	56755.835938
539.507813	56571.906250
538.272461	57291.464844
537.038086	56534.847656
535.802734	57132.152344
534.567383	56436.828125
533.332031	56593.367188
532.096680	56488.312500
530.860352	56638.878906
529.624023	56659.652344
528.387695	56627.355469
527.151367	56785.664063
525.914063	57122.679688
524.676758	56369.457031
523.439453	56788.898438
522.202148	56683.945313
520.963867	56726.257813
519.725586	57006.035156
518.487305	56557.691406
517.249023	56898.210938
516.009766	57044.402344
514.771484	56782.609375
513.532227	56252.277344
512.291992	56253.425781
511.052734	56589.750000
509.812500	56820.117188
508.572266	56584.070313
507.332031	56710.519531
506.090820	56952.480469
504.850586	57053.351563
503.609375	57330.386719
502.368164	57466.378906
501.125977	57553.386719
499.884766	57329.234375
498.642578	57406.449219
497.400391	57867.011719
496.157227	57527.535156
494.915039	57465.835938
493.671875	57398.289063
492.428711	57406.996094
491.184570	57912.054688
489.941406	57666.660156
488.697266	57378.378906
487.453125	57744.480469
486.208984	57811.679688
484.963867	57771.472656
483.718750	57865.964844
482.473633	58095.074219
481.228516	57656.777344
479.982422	57950.214844
478.737305	57820.285156
477.491211	58199.378906
476.244141	58005.101563
474.998047	58785.585938
473.750977	59101.906250
472.503906	58471.066406
471.256836	58717.183594
470.009766	58963.203125
468.761719	59279.242188
467.513672	59345.917969
466.265625	59387.257813
465.017578	59350.722656
463.768555	59613.890625
462.519531	59896.414063
461.270508	60217.738281
460.021484	60181.058594
458.771484	60393.300781
457.521484	60638.515625
456.271484	60782.546875
455.021484	61047.023438
453.770508	61377.460938
452.519531	61571.773438
451.268555	61562.062500
450.017578	62115.539063
448.765625	62148.437500
447.514648	62536.578125
446.262695	63103.132813
445.009766	63475.414063
443.757813	63389.667969
442.504883	63581.347656
441.251953	63687.613281
439.999023	63799.652344
438.745117	63457.988281
437.492188	62472.917969
436.238281	62495.968750
434.983398	61926.097656
433.729492	61631.527344
432.474609	61003.921875
431.219727	60961.378906
429.964844	60885.937500
428.709961	60489.179688
427.454102	60975.117188
426.198242	60357.890625
424.942383	60294.214844
423.685547	60400.781250
422.429688	60197.871094
421.172852	59940.894531
419.916016	60457.296875
418.658203	60070.863281
417.401367	60279.777344
416.143555	60335.968750
414.885742	60368.957031
413.626953	60220.382813
412.369141	60261.097656
411.110352	60241.945313
409.851563	60541.292969
408.591797	60344.535156
407.333008	59835.265625
406.073242	60418.101563
404.813477	60240.757813
403.553711	59895.707031
402.292969	60003.882813
401.032227	59944.304688
