#Wave		#Intensity
2001.182617	36494.593750
2000.212891	36381.800781
1999.243164	36683.695313
1998.273438	36531.968750
1997.303711	36908.882813
1996.333008	36707.070313
1995.363281	36550.402344
1994.392578	37107.390625
1993.421875	36848.062500
1992.451172	37051.882813
1991.479492	36820.179688
1990.508789	36931.351563
1989.537109	36939.910156
1988.566406	37301.144531
1987.594727	36706.937500
1986.622070	36895.554688
1985.650391	37239.101563
1984.677734	36800.179688
1983.706055	37336.050781
1982.733398	37014.699219
1981.760742	37065.691406
1980.788086	36996.769531
1979.814453	36750.562500
1978.841797	37121.171875
1977.868164	37109.691406
1976.894531	37492.585938
1975.920898	37248.953125
1974.947266	37140.140625
1973.972656	37729.882813
1972.999023	37448.917969
1972.024414	37666.816406
1971.049805	37091.738281
1970.075195	37421.804688
1969.099609	37143.578125
1968.125000	37316.511719
1967.149414	37387.230469
1966.173828	37348.308594
1965.198242	37199.800781
1964.222656	37330.265625
1963.247070	37381.003906
1962.270508	37605.988281
1961.294922	37119.027344
1960.318359	37503.246094
1959.341797	37578.792969
1958.364258	37084.625000
1957.387695	37739.757813
1956.410156	37720.722656
1955.433594	37602.234375
1954.456055	37782.105469
1953.478516	37425.031250
1952.500000	37445.820313
1951.522461	37861.664063
1950.543945	37830.195313
1949.565430	37932.863281
1948.586914	38380.683594
1947.608398	37765.644531
1946.629883	38195.957031
1945.650391	37846.742188
1944.671875	38063.464844
1943.692383	37446.425781
1942.712891	38010.449219
1941.733398	38306.394531
1940.752930	38560.078125
1939.773438	38429.355469
1938.792969	37758.242188
1937.812500	38175.472656
1936.832031	37973.011719
1935.851563	38196.792969
1934.870117	38098.441406
1933.888672	38302.304688
1932.908203	38342.648438
1931.926758	38214.605469
1930.945313	38252.472656
1929.962891	37963.605469
1928.981445	38179.679688
1927.999023	38519.386719
1927.016602	38181.144531
1926.034180	38641.929688
1925.051758	38269.156250
1924.069336	38475.089844
1923.085938	38816.914063
1922.102539	38553.058594
1921.119141	37874.125000
1920.135742	38453.066406
1919.152344	38448.796875
1918.168945	38654.472656
1917.184570	38072.304688
1916.200195	38364.386719
1915.215820	38634.148438
1914.231445	38427.449219
1913.247070	38697.101563
1912.261719	38692.785156
1911.276367	38720.539063
1910.291992	38644.687500
1909.306641	38805.601563
1908.320313	38384.574219
1907.334961	38875.808594
1906.348633	38807.371094
1905.363281	38721.707031
1904.376953	38902.167969
1903.390625	38479.023438
1902.403320	38721.035156
1901.416992	39039.304688
1900.429688	38965.976563
1899.443359	38895.136719
1898.456055	39296.882813
1897.467773	38805.199219
1896.480469	39174.835938
1895.493164	38887.523438
1894.504883	38851.183594
1893.516602	38964.863281
1892.528320	38635.933594
1891.540039	39010.183594
1890.550781	39079.527344
1889.562500	39426.535156
1888.573242	38957.703125
1887.583984	38786.277344
1886.594727	39039.812500
1885.605469	39251.515625
1884.615234	39404.214844
1883.625000	39296.648438
1882.635742	39471.371094
1881.645508	39248.492188
1880.654297	39371.636719
1879.664063	39104.695313
1878.673828	39742.875000
1877.682617	39157.167969
1876.691406	39331.722656
1875.700195	39405.707031
1874.708984	39599.761719
1873.716797	39575.652344
1872.725586	39453.546875
1871.733398	39444.164063
1870.741211	39569.492188
1869.749023	39249.093750
1868.755859	39908.148438
1867.763672	39749.363281
1866.770508	39808.460938
1865.777344	39884.664063
1864.784180	39564.484375
1863.791016	39701.859375
1862.797852	39787.816406
1861.803711	39709.910156
1860.809570	39893.632813
1859.815430	39544.390625
1858.821289	39686.523438
1857.827148	40285.566406
1856.832031	40288.253906
1855.837891	40137.046875
1854.842773	40132.433594
1853.847656	40342.703125
1852.852539	40162.265625
1851.856445	40023.382813
1850.861328	40311.660156
1849.865234	40368.011719
1848.869141	40639.042969
1847.873047	40187.937500
1846.876953	40305.250000
1845.879883	40546.882813
1844.883789	40444.667969
1843.886719	40642.308594
1842.889648	40871.566406
1841.892578	40684.054688
1840.895508	40981.433594
1839.897461	40937.683594
1838.899414	40928.042969
1837.901367	40808.828125
1836.903320	40346.375000
1835.905273	40991.632813
1834.907227	41054.996094
1833.908203	41368.968750
1832.909180	41205.980469
1831.910156	40658.718750
1830.911133	41488.179688
1829.912109	41386.042969
1828.912109	41011.644531
1827.913086	41053.039063
1826.913086	41181.906250
1825.913086	41310.730469
1824.913086	41157.687500
1823.912109	41318.039063
1822.912109	41405.480469
1821.911133	41587.585938
1820.910156	41543.843750
1819.909180	41259.808594
1818.908203	41582.597656
1817.906250	41386.007813
1816.904297	41844.515625
1815.903320	41516.960938
1814.900391	41356.859375
1813.898438	41720.558594
1812.896484	41725.328125
1811.893555	41635.562500
1810.891602	41911.773438
1809.888672	41872.882813
1808.885742	41521.488281
1807.881836	41875.078125
1806.878906	41867.699219
1805.875000	41579.441406
1804.871094	41906.195313
1803.867188	41671.281250
1802.863281	42114.066406
1801.859375	42053.410156
1800.854492	41879.066406
1799.849609	42149.843750
1798.844727	42294.765625
1797.839844	42234.113281
1796.834961	42067.109375
1795.830078	42064.523438
1794.824219	42339.851563
1793.818359	42308.218750
1792.812500	42774.253906
1791.806641	42592.800781
1790.799805	42713.277344
1789.793945	42420.828125
1788.787109	42789.941406
1787.780273	42794.460938
1786.773438	42881.027344
1785.766602	43085.785156
1784.758789	42957.562500
1783.751953	42665.367188
1782.744141	42833.878906
1781.736328	43245.855469
1780.728516	43153.847656
1779.719727	43076.332031
1778.711914	43018.121094
1777.703125	43087.625000
1776.694336	43217.332031
1775.685547	42983.296875
1774.676758	43717.414063
1773.666992	43521.890625
1772.657227	43771.785156
1771.648438	43547.437500
1770.638672	43688.945313
1769.627930	43844.839844
1768.618164	43784.171875
1767.607422	43843.781250
1766.597656	44312.175781
1765.586914	43869.167969
1764.576172	44130.652344
1763.564453	44139.679688
1762.553711	44706.207031
1761.541992	43852.585938
1760.530273	44116.285156
1759.518555	44596.050781
1758.506836	44360.039063
1757.495117	44685.929688
1756.482422	45076.511719
1755.469727	44715.734375
1754.457031	45053.378906
1753.444336	44987.835938
1752.431641	45047.046875
1751.417969	45653.070313
1750.405273	45263.722656
1749.391602	45862.292969
1748.377930	45693.578125
1747.364258	45592.027344
1746.349609	45725.347656
1745.335938	45566.320313
1744.321289	45833.734375
1743.306641	45849.578125
1742.291992	46126.421875
1741.276367	45799.843750
1740.261719	45892.277344
1739.246094	46326.917969
1738.230469	46857.117188
1737.214844	46695.710938
1736.199219	47084.523438
1735.182617	46760.503906
1734.166992	47022.433594
1733.150391	47575.937500
1732.133789	47897.382813
1731.117188	47886.515625
1730.099609	47651.042969
1729.083008	48376.046875
1728.065430	48319.714844
1727.047852	48903.437500
1726.030273	49307.867188
1725.012695	49315.851563
1723.994141	49595.941406
1722.976563	49608.636719
1721.958008	49998.332031
1720.939453	49987.093750
1719.920898	50662.812500
1718.901367	50868.472656
1717.882813	50740.246094
1716.863281	50967.273438
1715.843750	50812.847656
1714.824219	51454.449219
1713.803711	51214.210938
1712.784180	51157.492188
1711.763672	51088.882813
1710.743164	51634.710938
1709.722656	51666.039063
1708.702148	50980.792969
1707.681641	51419.234375
1706.660156	51405.363281
1705.638672	52074.367188
1704.617188	51389.523438
1703.595703	52053.535156
1702.574219	51946.804688
1701.551758	51295.632813
1700.529297	51940.281250
1699.507813	51959.593750
1698.484375	51482.234375
1697.461914	51855.636719
1696.439453	51708.664063
1695.416016	51796.875000
1694.392578	51861.308594
1693.369141	52001.691406
1692.345703	52165.761719
1691.322266	51874.070313
1690.297852	52047.593750
1689.273438	52821.324219
1688.249023	52100.300781
1687.224609	52245.222656
1686.200195	52183.785156
1685.174805	52515.941406
1684.150391	52262.464844
1683.125000	52862.300781
1682.099609	52957.187500
1681.073242	53016.500000
1680.047852	53277.140625
1679.021484	53502.156250
1677.995117	53487.925781
1676.968750	53622.855469
1675.942383	53573.097656
1674.916016	53525.718750
1673.888672	53733.917969
1672.862305	53457.035156
1671.834961	53738.500000
1670.806641	53740.785156
1669.779297	54010.269531
1668.751953	54409.683594
1667.723633	54161.281250
1666.695313	54501.441406
1665.666992	54151.503906
1664.638672	54380.500000
1663.609375	54051.960938
1662.581055	54550.121094
1661.551758	54738.777344
1660.522461	54492.972656
1659.493164	54905.808594
1658.462891	54641.171875
1657.433594	54886.300781
1656.403320	55419.160156
1655.373047	54866.800781
1654.342773	55281.550781
1653.312500	54616.230469
1652.281250	55007.296875
1651.250977	55098.878906
1650.219727	55329.464844
1649.188477	55029.812500
1648.156250	56070.726563
1647.125000	55398.894531
1646.092773	55021.671875
1645.060547	55226.156250
1644.028320	55508.250000
1642.996094	55408.941406
1641.963867	55737.964844
1640.930664	55753.937500
1639.898438	56190.992188
1638.865234	56011.652344
1637.832031	56305.050781
1636.797852	56163.371094
1635.764648	56517.753906
1634.730469	56296.167969
1633.696289	56866.593750
1632.662109	56184.511719
1631.627930	56505.742188
1630.592773	57289.550781
1629.558594	57025.746094
1628.523438	56804.292969
1627.488281	57381.046875
1626.453125	57880.144531
1625.416992	58163.171875
1624.381836	58561.058594
1623.345703	59327.089844
1622.309570	59776.222656
1621.273438	60168.914063
1620.237305	61065.535156
1619.200195	61755.554688
1618.163086	62775.785156
1617.125977	63673.800781
1616.088867	64904.179688
1615.051758	66672.875000
1614.014648	67766.445313
1612.976563	69171.046875
1611.938477	70163.101563
1610.900391	71145.437500
1609.862305	71252.125000
1608.823242	70553.828125
1607.785156	70700.351563
1606.746094	69644.515625
1605.707031	68836.960938
1604.667969	67075.671875
1603.628906	65922.843750
1602.588867	65251.945313
1601.548828	63466.519531
1600.508789	63079.015625
1599.468750	62962.648438
1598.428711	61286.023438
1597.387695	61529.656250
1596.347656	60271.832031
1595.306641	60125.687500
1594.265625	60014.605469
1593.224609	59695.859375
1592.182617	59265.230469
1591.140625	58946.726563
1590.099609	58999.195313
1589.057617	59476.070313
1588.014648	59113.394531
1586.972656	59235.730469
1585.929688	58682.097656
1584.887695	59098.089844
1583.844727	59094.542969
1582.800781	59079.343750
1581.757813	59620.808594
1580.714844	59235.253906
1579.670898	59664.734375
1578.626953	59961.371094
1577.583008	60197.386719
1576.538086	60254.128906
1575.494141	60897.164063
1574.449219	60281.484375
1573.404297	60689.371094
1572.359375	60938.984375
1571.314453	60958.335938
1570.269531	61042.761719
1569.223633	61117.863281
1568.177734	60830.429688
1567.131836	60399.054688
1566.085938	60374.335938
1565.040039	59550.691406
1563.993164	59776.914063
1562.946289	59422.636719
1561.899414	59449.167969
1560.852539	58835.140625
1559.805664	58836.238281
1558.757813	58628.531250
1557.709961	58462.652344
1556.662109	58637.742188
1555.614258	59005.226563
1554.566406	59103.652344
1553.517578	58789.449219
1552.469727	58486.941406
1551.420898	58249.417969
1550.372070	58111.593750
1549.322266	58342.105469
1548.273438	58623.480469
1547.223633	58462.500000
1546.173828	58364.085938
1545.124023	58666.128906
1544.074219	58283.058594
1543.024414	58730.773438
1541.973633	58252.976563
1540.922852	58284.199219
1539.872070	58854.226563
1538.821289	58395.156250
1537.770508	58645.941406
1536.718750	58741.777344
1535.666992	58527.917969
1534.615234	58797.019531
1533.563477	58772.648438
1532.511719	58785.234375
1531.458984	59086.472656
1530.407227	58609.523438
1529.354492	58587.500000
1528.300781	59050.160156
1527.248047	58531.929688
1526.195313	58712.957031
1525.141602	58658.625000
1524.087891	58265.277344
1523.034180	58178.761719
1521.980469	58318.210938
1520.925781	58312.386719
1519.871094	58006.953125
1518.817383	58167.089844
1517.762695	57831.835938
1516.707031	58330.550781
1515.652344	58313.203125
1514.596680	58153.093750
1513.541016	58527.160156
1512.485352	57918.210938
1511.429688	57956.171875
1510.374023	57860.664063
1509.317383	58087.261719
1508.260742	58212.574219
1507.204102	57309.847656
1506.147461	57837.632813
1505.090820	57758.308594
1504.033203	58099.636719
1502.975586	57836.441406
1501.917969	57784.726563
1500.860352	58098.292969
1499.802734	58202.730469
1498.744141	58164.746094
1497.686523	58142.847656
1496.627930	58093.406250
1495.569336	57917.742188
1494.509766	57778.855469
1493.451172	57855.691406
1492.391602	58237.597656
1491.332031	58062.023438
1490.272461	57528.777344
1489.212891	57770.671875
1488.152344	57709.886719
1487.092773	58013.539063
1486.032227	57968.769531
1484.971680	58166.867188
1483.910156	58163.312500
1482.849609	57832.246094
1481.788086	57920.343750
1480.726563	57852.722656
1479.665039	57725.605469
1478.603516	57877.750000
1477.541992	58647.664063
1476.479492	58266.515625
1475.416992	58169.144531
1474.354492	58433.152344
1473.291992	58052.242188
1472.229492	59020.320313
1471.166016	58298.855469
1470.102539	58676.910156
1469.039063	58504.152344
1467.975586	58717.542969
1466.912109	58533.414063
1465.847656	58452.113281
1464.783203	58939.390625
1463.718750	59011.000000
1462.654297	59164.750000
1461.589844	59256.824219
1460.524414	59116.132813
1459.458984	59707.781250
1458.393555	59411.953125
1457.328125	59316.914063
1456.262695	59609.511719
1455.196289	59952.152344
1454.130859	60084.980469
1453.064453	59142.156250
1451.998047	59906.195313
1450.930664	60216.636719
1449.864258	59909.734375
1448.796875	60308.871094
1447.729492	60425.539063
1446.662109	60526.226563
1445.594727	60601.839844
1444.526367	61048.339844
1443.458008	61324.039063
1442.390625	61881.707031
1441.321289	62191.269531
1440.252930	61970.894531
1439.184570	63201.093750
1438.115234	62755.574219
1437.045898	62787.480469
1435.976563	63107.949219
1434.907227	64025.800781
1433.836914	64184.652344
1432.767578	64141.320313
1431.697266	64472.660156
1430.626953	64660.851563
1429.555664	64292.863281
1428.485352	65465.941406
1427.414063	65327.109375
1426.342773	65281.332031
1425.271484	65428.367188
1424.200195	65786.250000
1423.128906	65874.187500
1422.056641	65923.546875
1420.984375	66059.023438
1419.912109	65727.609375
1418.839844	66336.601563
1417.767578	66610.101563
1416.694336	66210.820313
1415.621094	65845.640625
1414.547852	65211.160156
1413.474609	65310.351563
1412.400391	65079.058594
1411.327148	65309.480469
1410.252930	65469.675781
1409.178711	64702.359375
1408.104492	65138.527344
1407.029297	65176.550781
1405.955078	65614.726563
1404.879883	65865.132813
1403.804688	66330.148438
1402.729492	66869.554688
1401.653320	66462.156250
1400.578125	66569.906250
1399.501953	66889.906250
1398.425781	67142.054688
1397.349609	66913.226563
1396.272461	66862.804688
1395.196289	66607.031250
1394.119141	66423.554688
1393.041992	66910.156250
1391.964844	66616.164063
1390.886719	67303.265625
1389.809570	67744.343750
1388.731445	67517.976563
1387.653320	67868.703125
1386.575195	67721.257813
1385.497070	67767.640625
1384.417969	68474.046875
1383.338867	68923.437500
1382.259766	69602.359375
1381.180664	69238.578125
1380.101563	69127.046875
1379.021484	69098.835938
1377.941406	69234.898438
1376.861328	69505.906250
1375.781250	68861.265625
1374.701172	68392.289063
1373.620117	68143.851563
1372.539063	68176.531250
1371.458008	67815.812500
1370.376953	67347.351563
1369.295898	67328.468750
1368.213867	66720.960938
1367.132813	66973.984375
1366.050781	66218.531250
1364.967773	66006.742188
1363.885742	66104.843750
1362.802734	66021.093750
1361.720703	65625.421875
1360.637695	66089.265625
1359.554688	65770.000000
1358.470703	65527.101563
1357.387695	65403.148438
1356.303711	65016.898438
1355.219727	65047.757813
1354.135742	64919.468750
1353.050781	64896.542969
1351.966797	64378.460938
1350.881836	64261.550781
1349.796875	63566.824219
1348.711914	64762.363281
1347.626953	64291.683594
1346.541016	63818.933594
1345.455078	64431.855469
1344.369141	63822.742188
1343.283203	64095.359375
1342.197266	63871.277344
1341.110352	63486.238281
1340.023438	64188.097656
1338.936523	63745.011719
1337.849609	64303.503906
1336.762695	64030.402344
1335.674805	64324.960938
1334.586914	64156.953125
1333.499023	64183.335938
1332.411133	64428.570313
1331.323242	64198.101563
1330.234375	64336.078125
1329.145508	64264.187500
1328.056641	64939.933594
1326.967773	64700.605469
1325.878906	65119.468750
1324.789063	64989.484375
1323.699219	65263.187500
1322.609375	65474.355469
1321.519531	65330.992188
1320.429688	65684.710938
1319.338867	65759.750000
1318.248047	66157.820313
1317.157227	66206.007813
1316.066406	67185.164063
1314.975586	67034.945313
1313.883789	66900.367188
1312.791992	66939.468750
1311.700195	67283.460938
1310.608398	67391.453125
1309.516602	67334.765625
1308.423828	66788.718750
1307.331055	67506.117188
1306.238281	67449.429688
1305.145508	67463.906250
1304.051758	67662.867188
1302.958984	68237.343750
1301.865234	67991.679688
1300.771484	68310.398438
1299.677734	69415.304688
1298.583008	70397.664063
1297.489258	71122.101563
1296.394531	72039.414063
1295.299805	72323.796875
1294.204102	72264.101563
1293.109375	72701.437500
1292.013672	72417.625000
1290.917969	71909.898438
1289.822266	71324.734375
1288.726563	71251.953125
1287.630859	70279.179688
1286.534180	69849.765625
1285.437500	69389.484375
1284.340820	69356.968750
1283.244141	68566.875000
1282.146484	68377.273438
1281.048828	67977.367188
1279.951172	67761.359375
1278.853516	67459.101563
1277.755859	67391.546875
1276.658203	66582.734375
1275.559570	66311.820313
1274.460938	66034.359375
1273.362305	65849.890625
1272.262695	65375.820313
1271.164063	65215.847656
1270.064453	65064.769531
1268.964844	64635.289063
1267.865234	64751.726563
1266.765625	64348.960938
1265.665039	64275.449219
1264.564453	63943.578125
1263.463867	64031.343750
1262.363281	63562.761719
1261.262695	63414.390625
1260.161133	63363.164063
1259.059570	63400.214844
1257.958008	63344.593750
1256.856445	63103.722656
1255.754883	63063.609375
1254.652344	62498.769531
1253.549805	63047.339844
1252.447266	62562.046875
1251.344727	62676.296875
1250.242188	62288.179688
1249.138672	62527.992188
1248.035156	61946.230469
1246.931641	62243.265625
1245.828125	61688.175781
1244.724609	62084.199219
1243.620117	62028.914063
1242.515625	61956.042969
1241.411133	61419.000000
1240.306641	62373.460938
1239.201172	61825.539063
1238.096680	61886.871094
1236.991211	62154.828125
1235.885742	61644.597656
1234.779297	61831.183594
1233.673828	62055.054688
1232.567383	61624.195313
1231.460938	61742.589844
1230.354492	62142.023438
1229.248047	62255.882813
1228.140625	62251.160156
1227.033203	62261.796875
1225.926758	62178.070313
1224.818359	62634.089844
1223.710938	62118.183594
1222.602539	62639.839844
1221.495117	62659.156250
1220.386719	62347.410156
1219.278320	62697.757813
1218.168945	62324.746094
1217.060547	61708.644531
1215.951172	61969.085938
1214.841797	61786.968750
1213.731445	61751.644531
1212.622070	61681.296875
1211.511719	62177.980469
1210.402344	61496.894531
1209.291992	61601.699219
1208.180664	61649.570313
1207.070313	62161.199219
1205.958984	61797.750000
1204.847656	61852.113281
1203.736328	62759.164063
1202.625000	62441.703125
1201.512695	61897.046875
1200.401367	62418.984375
1199.289063	62628.292969
1198.176758	63405.480469
1197.063477	62939.660156
1195.951172	63065.777344
1194.837891	63676.523438
1193.724609	64132.066406
1192.611328	63190.667969
1191.498047	63377.734375
1190.383789	63780.710938
1189.269531	63636.042969
1188.155273	63275.519531
1187.041016	63150.613281
1185.926758	63051.914063
1184.811523	62617.578125
1183.696289	62213.906250
1182.581055	61869.207031
1181.465820	62768.542969
1180.350586	62044.878906
1179.234375	62260.058594
1178.118164	62483.863281
1177.001953	62028.394531
1175.885742	61958.328125
1174.768555	61553.167969
1173.652344	61639.859375
1172.535156	61582.945313
1171.417969	61075.847656
1170.299805	60438.457031
1169.182617	60807.914063
1168.064453	61007.679688
1166.946289	60835.734375
1165.828125	60768.152344
1164.709961	60637.585938
1163.590820	60220.339844
1162.471680	60776.187500
1161.352539	61027.839844
1160.233398	61101.378906
1159.114258	60821.089844
1157.994141	60948.890625
1156.874023	60193.546875
1155.753906	60360.457031
1154.633789	60555.503906
1153.513672	60659.390625
1152.392578	60425.003906
1151.271484	60583.070313
1150.150391	60433.304688
1149.029297	60329.101563
1147.907227	60773.078125
1146.786133	60805.316406
1145.664063	61106.097656
1144.541992	61192.390625
1143.418945	61096.789063
1142.296875	61193.867188
1141.173828	61797.339844
1140.050781	61429.031250
1138.927734	61761.804688
1137.803711	62042.539063
1136.680664	62290.734375
1135.556641	61784.203125
1134.432617	61963.167969
1133.308594	62120.449219
1132.183594	62072.367188
1131.059570	61931.394531
1129.934570	62477.433594
1128.809570	62077.246094
1127.684570	62353.121094
1126.558594	62011.390625
1125.432617	61831.683594
1124.307617	61712.476563
1123.180664	61690.410156
1122.054688	61612.257813
1120.928711	62125.183594
1119.801758	61783.851563
1118.674805	61283.074219
1117.547852	61297.746094
1116.419922	61622.812500
1115.292969	61197.757813
1114.165039	61124.085938
1113.037109	61414.527344
1111.909180	61146.976563
1110.780273	60989.355469
1109.652344	61391.617188
1108.523438	61591.367188
1107.394531	61623.156250
1106.264648	61205.160156
1105.135742	61316.609375
1104.005859	61096.730469
1102.875977	61033.937500
1101.746094	61156.101563
1100.616211	61774.875000
1099.485352	61404.585938
1098.355469	61707.144531
1097.224609	61472.375000
1096.092773	60997.062500
1094.961914	61381.148438
1093.830078	61039.175781
1092.699219	61169.726563
1091.567383	61424.750000
1090.434570	61119.437500
1089.302734	60573.871094
1088.169922	60528.453125
1087.037109	60519.519531
1085.904297	60126.648438
1084.771484	60252.890625
1083.637695	60439.121094
1082.504883	60022.886719
1081.371094	60395.562500
1080.236328	59898.050781
1079.102539	60442.007813
1077.968750	60169.593750
1076.833984	60102.890625
1075.699219	60488.039063
1074.564453	60560.460938
1073.428711	60694.929688
1072.292969	60165.878906
1071.158203	60259.710938
1070.022461	61183.605469
1068.885742	60626.941406
1067.750000	60836.113281
1066.613281	61164.949219
1065.476563	61081.054688
1064.339844	60971.539063
1063.203125	61069.355469
1062.065430	61248.328125
1060.927734	61175.152344
1059.790039	60751.707031
1058.652344	60685.046875
1057.514648	60665.382813
1056.375977	61004.359375
1055.237305	60589.785156
1054.098633	60358.878906
1052.959961	60719.050781
1051.820313	60643.921875
1050.681641	60713.847656
1049.541992	60939.406250
1048.402344	61083.867188
1047.261719	60708.160156
1046.122070	60801.453125
1044.981445	60451.500000
1043.840820	60994.320313
1042.700195	60936.269531
1041.558594	60769.628906
1040.417969	60449.734375
1039.276367	60310.910156
1038.134766	60672.328125
1036.992188	60495.203125
1035.850586	60407.503906
1034.708008	60543.199219
1033.565430	60840.492188
1032.422852	60480.574219
1031.280273	60784.140625
1030.136719	60039.597656
1028.994141	60457.898438
1027.850586	60476.546875
1026.706055	60163.753906
1025.562500	60258.914063
1024.417969	59931.402344
1023.273438	60720.921875
1022.128906	60102.585938
1020.984375	60388.714844
1019.839844	60409.457031
1018.694336	60691.175781
1017.548828	60100.871094
1016.403320	60800.386719
1015.256836	60761.648438
1014.111328	61064.285156
1012.964844	60707.523438
1011.818359	60834.136719
1010.671875	60842.027344
1009.524414	60561.769531
1008.377930	60631.132813
1007.230469	60749.187500
1006.083008	60579.203125
1004.934570	60887.757813
1003.787109	60783.429688
1002.638672	61309.816406
1001.490234	61048.855469
1000.341797	60787.988281
999.193359	61424.070313
998.043945	61459.300781
996.894531	61310.562500
995.745117	61667.132813
994.595703	61440.195313
993.446289	61838.871094
992.295898	61411.257813
991.145508	61524.597656
989.995117	61737.726563
988.844727	61950.855469
987.693359	62164.164063
986.541992	61641.875000
985.390625	62229.933594
984.239258	61313.214844
983.087891	61664.816406
981.935547	61649.246094
980.783203	61956.363281
979.630859	62257.035156
978.478516	62391.042969
977.325195	62518.671875
976.172852	62509.269531
975.019531	62202.773438
973.865234	62088.093750
972.711914	62394.710938
971.557617	62338.996094
970.404297	61577.953125
969.250000	62118.156250
968.094727	61845.726563
966.940430	62055.292969
965.785156	61576.781250
964.629883	61704.273438
963.474609	61741.281250
962.319336	61643.691406
961.163086	61924.570313
960.007813	61810.160156
958.851563	62162.355469
957.694336	62192.925781
956.538086	62261.296875
955.380859	61472.644531
954.223633	61956.933594
953.066406	61998.007813
951.909180	61997.074219
950.751953	61805.140625
949.593750	62198.761719
948.435547	61593.515625
947.277344	61781.449219
946.118164	61822.492188
944.959961	61978.851563
943.800781	61770.339844
942.641602	61888.914063
941.482422	61405.937500
940.322266	61922.664063
939.162109	62288.351563
938.001953	61994.082031
936.841797	62022.433594
935.681641	61696.906250
934.520508	62719.722656
933.360352	61736.937500
932.198242	62307.328125
931.037109	62371.152344
929.875977	62171.367188
928.713867	62582.390625
927.551758	62183.968750
926.389648	62448.476563
925.227539	63116.339844
924.064453	62636.519531
922.901367	62499.574219
921.738281	62561.160156
920.575195	63192.988281
919.412109	63254.414063
918.248047	63309.554688
917.083984	63496.195313
915.919922	63684.855469
914.755859	63710.656250
913.590820	63776.093750
912.426758	63935.378906
911.261719	64430.417969
910.095703	64864.792969
908.930664	65228.117188
907.764648	65497.492188
906.598633	65722.992188
905.432617	65473.289063
904.266602	65486.191406
903.099609	65322.023438
901.933594	64254.007813
900.766602	64215.062500
899.599609	64036.636719
898.431641	63866.601563
897.264648	63854.792969
896.096680	63224.992188
894.928711	63654.347656
893.759766	63954.582031
892.591797	63262.714844
891.422852	63413.199219
890.253906	63517.886719
889.084961	63412.609375
887.916016	63687.656250
886.746094	63364.218750
885.576172	63855.214844
884.406250	63779.015625
883.236328	63875.195313
882.065430	63512.503906
880.895508	63739.468750
879.724609	63576.171875
878.552734	63651.558594
877.381836	64477.933594
876.209961	64013.812500
875.039063	64340.007813
873.866211	64303.214844
872.694336	64579.476563
871.522461	64865.992188
870.349609	64827.042969
869.176758	64721.804688
868.003906	65090.988281
866.830078	64552.855469
865.657227	64545.042969
864.483398	65450.289063
863.309570	65775.585938
862.135742	66251.843750
860.960938	66692.742188
859.786133	66523.148438
858.611328	66568.742188
857.436523	66583.296875
856.261719	66153.281250
855.085938	65909.476563
853.910156	65446.664063
852.734375	65566.796875
851.558594	65436.875000
850.382813	65459.867188
849.206055	65561.335938
848.029297	65751.562500
846.852539	65634.070313
845.674805	66470.328125
844.498047	66445.625000
843.320313	66616.960938
842.142578	67037.875000
840.963867	67852.609375
839.786133	68563.921875
838.607422	70114.210938
837.428711	70896.992188
836.250000	71114.695313
835.070313	71377.664063
833.891602	71564.289063
832.711914	70578.648438
831.532227	70098.007813
830.352539	69745.210938
829.171875	68573.085938
827.991211	67531.085938
826.810547	67189.242188
825.629883	66030.585938
824.449219	65779.671875
823.267578	65347.828125
822.085938	64798.910156
820.904297	64647.058594
819.722656	64682.343750
818.540039	64458.617188
817.357422	64249.359375
816.174805	64048.394531
814.992188	63981.035156
813.809570	63858.242188
812.625977	63772.453125
811.442383	63510.117188
810.258789	63580.437500
809.074219	63476.265625
807.890625	63503.464844
806.706055	63512.187500
805.521484	63453.207031
804.336914	63671.125000
803.151367	63749.519531
801.966797	63243.582031
800.781250	63619.242188
799.594727	63478.308594
798.409180	63267.757813
797.222656	62991.722656
796.037109	63045.558594
794.849609	62652.933594
793.663086	62645.382813
792.476563	62195.656250
791.289063	62085.847656
790.101563	62184.808594
788.914063	61962.511719
787.725586	62014.402344
786.538086	61820.847656
785.349609	61993.386719
784.161133	61638.390625
782.971680	61855.863281
781.783203	61539.847656
780.593750	61569.265625
779.404297	61582.328125
778.214844	61192.996094
777.024414	61138.726563
775.834961	61454.039063
774.644531	61081.273438
773.454102	61241.355469
772.262695	61476.878906
771.072266	61183.878906
769.880859	61337.722656
768.689453	61330.386719
767.497070	60998.824219
766.305664	61595.019531
765.113281	61926.003906
763.920898	62081.589844
762.728516	61823.480469
761.536133	62518.890625
760.342773	62344.300781
759.149414	62725.730469
757.956055	62929.878906
756.762695	63017.906250
755.568359	63708.363281
754.374023	63739.230469
753.179688	63521.867188
751.985352	63507.996094
750.791016	63620.230469
749.595703	63335.894531
748.400391	63088.257813
747.205078	62863.066406
746.009766	62516.023438
744.813477	61943.558594
743.617188	62435.839844
742.420898	61715.320313
741.224609	61541.351563
740.027344	60863.902344
738.830078	61331.648438
737.632813	61015.761719
736.435547	60864.367188
735.238281	60997.070313
734.040039	60752.414063
732.841797	61266.378906
731.643555	61287.394531
730.445313	60929.281250
729.246094	60652.378906
728.046875	60316.804688
726.847656	60173.843750
725.648438	60419.906250
724.449219	60252.671875
723.249023	60381.164063
722.048828	60203.867188
720.848633	60478.070313
719.647461	60620.609375
718.447266	60040.660156
717.246094	60061.824219
716.044922	60000.042969
714.842773	60118.281250
713.641602	60179.855469
712.439453	60613.402344
711.237305	60256.433594
710.035156	60231.039063
708.832031	60801.722656
707.629883	60951.988281
706.426758	60777.000000
705.223633	60373.871094
704.019531	61077.351563
702.815430	60446.203125
701.612305	60654.910156
700.408203	60857.484375
699.203125	60608.039063
697.999023	60816.593750
696.793945	61033.128906
695.588867	61098.351563
694.383789	61228.058594
693.177734	61093.660156
691.971680	61630.410156
690.766602	61518.144531
689.559570	61601.332031
688.353516	62431.746094
687.146484	61856.210938
685.939453	61677.531250
684.732422	61688.144531
683.525391	61650.445313
682.318359	61033.214844
681.110352	60913.156250
679.902344	60791.132813
678.693359	61111.605469
677.485352	60844.804688
676.276367	59896.570313
675.067383	60938.628906
673.858398	60589.605469
672.649414	61070.550781
671.439453	60890.375000
670.229492	61728.597656
669.019531	60927.835938
667.809570	60765.851563
666.598633	60804.664063
665.387695	60632.722656
664.176758	60681.574219
662.965820	60632.097656
661.754883	60215.554688
660.542969	60316.593750
659.331055	59733.828125
658.119141	60296.015625
656.906250	60246.640625
655.694336	60485.867188
654.481445	59951.585938
653.268555	60146.695313
652.054688	60403.824219
650.841797	60062.089844
649.627930	60365.179688
648.414063	60457.968750
647.200195	60010.332031
645.985352	60525.363281
644.770508	60099.886719
643.555664	60458.679688
642.340820	60657.343750
641.125977	60859.929688
639.910156	61038.445313
638.694336	60885.089844
637.478516	60791.746094
636.262695	60784.347656
635.045898	61080.593750
633.829102	60673.679688
632.612305	60652.320313
631.395508	60810.656250
630.177734	60687.468750
628.959961	60083.339844
627.742188	59976.292969
626.524414	59859.308594
625.306641	59628.667969
624.087891	60161.925781
622.869141	59927.324219
621.650391	60388.554688
620.430664	60018.453125
619.211914	59907.554688
617.992188	59938.156250
616.772461	60313.367188
615.551758	59716.500000
614.332031	59615.683594
613.111328	60082.320313
611.890625	60090.949219
610.669922	60081.660156
609.448242	59441.605469
608.226563	60283.914063
607.004883	59976.226563
605.783203	59996.789063
604.561523	60086.929688
603.338867	60000.105469
602.116211	59770.207031
600.893555	60263.730469
599.669922	60578.250000
598.447266	60245.070313
597.223633	60041.105469
596.000000	59702.187500
594.775391	60336.203125
593.551758	60880.656250
592.327148	60250.031250
591.102539	61212.957031
589.877930	60693.593750
588.652344	61100.703125
587.426758	60972.218750
586.201172	61498.078125
584.975586	61516.253906
583.750000	61823.789063
582.523438	61407.921875
581.296875	61592.519531
580.070313	62198.968750
578.842773	62401.167969
577.616211	62541.906250
576.388672	62720.203125
575.161133	62975.621094
573.932617	63025.128906
572.705078	63139.910156
571.476563	62431.687500
570.248047	62592.019531
569.018555	62554.539063
567.790039	62384.601563
566.560547	61849.023438
565.331055	61430.250000
564.101563	61369.292969
562.871094	61094.984375
561.641602	60804.972656
560.411133	60748.109375
559.179688	60231.195313
557.949219	60362.000000
556.717773	59863.109375
555.486328	59845.921875
554.254883	59724.164063
553.023438	59584.699219
551.791016	60080.363281
550.558594	59682.550781
549.326172	59275.031250
548.093750	59583.199219
546.860352	59284.242188
545.627930	59308.542969
544.393555	59322.984375
543.160156	59016.355469
541.926758	59042.656250
540.692383	59090.601563
539.458008	59321.605469
538.223633	59117.542969
536.988281	59265.800781
535.752930	59107.074219
534.517578	59147.078125
533.282227	59399.476563
532.046875	58965.511719
530.810547	59479.320313
529.574219	59265.648438
528.337891	59492.273438
527.101563	59520.355469
525.864258	59385.371094
524.626953	59482.203125
523.389648	59463.132813
522.152344	59294.847656
520.914063	59334.703125
519.675781	59268.558594
518.437500	59396.703125
517.199219	59558.152344
515.959961	59929.417969
514.721680	60073.046875
513.482422	59797.003906
512.242188	59809.250000
511.002930	60154.699219
509.762695	60033.605469
508.522461	59432.515625
507.282227	59817.011719
506.041016	59762.632813
504.800781	60052.921875
503.559570	59720.500000
502.318359	59515.433594
501.076172	59654.898438
499.833984	59252.285156
498.592773	59636.289063
497.349609	59274.902344
496.107422	59453.406250
494.864258	59408.941406
493.622070	59831.707031
492.377930	59789.136719
491.134766	59410.460938
489.891602	59686.445313
488.647461	59518.898438
487.403320	59425.625000
486.158203	59988.488281
484.914063	59286.035156
483.668945	59825.281250
482.423828	59548.562500
481.178711	59874.871094
479.932617	59941.589844
478.686523	60177.968750
477.440430	59852.628906
476.194336	60307.300781
474.948242	60122.410156
473.701172	60563.210938
472.454102	60647.242188
471.207031	60846.187500
469.958984	60725.601563
468.711914	60776.441406
467.463867	60572.175781
466.215820	61027.953125
464.966797	61049.500000
463.718750	61113.847656
462.469727	61643.187500
461.220703	61719.066406
459.970703	61738.507813
458.721680	62150.746094
457.471680	62442.285156
456.221680	62747.316406
454.970703	62756.820313
453.720703	62822.667969
452.469727	62808.835938
451.218750	63022.261719
449.966797	63697.804688
448.715820	64674.039063
447.463867	64780.214844
446.211914	65825.742188
444.959961	66511.875000
443.707031	66675.835938
442.454102	66981.335938
441.201172	66578.828125
439.948242	66506.109375
438.695313	65617.218750
437.441406	64218.882813
436.187500	63712.535156
434.933594	62458.468750
433.678711	61778.289063
432.424805	61873.113281
431.169922	61348.218750
429.914063	61088.769531
428.659180	60668.746094
427.403320	60488.871094
426.147461	60305.187500
424.891602	59804.289063
423.635742	60255.250000
422.378906	59773.882813
421.122070	59505.386719
419.865234	59811.152344
418.608398	59467.363281
417.350586	59747.890625
416.092773	59593.585938
414.834961	59329.230469
413.577148	59314.113281
412.318359	59588.652344
411.059570	59536.808594
409.800781	59797.679688
408.541992	59024.027344
407.282227	59277.175781
406.022461	58928.324219
404.762695	59395.488281
403.502930	59623.343750
402.242188	59332.460938
400.981445	59334.695313
