#Wave		#Intensity
2001.221680	38234.371094
2000.251953	38161.683594
1999.282227	37804.167969
1998.312500	37657.253906
1997.342773	37680.742188
1996.372070	38102.480469
1995.402344	38293.667969
1994.431641	38189.332031
1993.460938	38495.593750
1992.490234	38095.898438
1991.518555	38347.011719
1990.547852	38235.222656
1989.576172	38178.511719
1988.604492	38159.339844
1987.632813	38407.757813
1986.661133	38246.023438
1985.689453	38206.843750
1984.716797	38147.679688
1983.745117	38420.914063
1982.772461	38144.347656
1981.799805	38102.707031
1980.827148	38393.285156
1979.853516	38531.421875
1978.880859	38160.140625
1977.907227	38185.925781
1976.933594	38246.648438
1975.959961	38978.656250
1974.986328	38275.695313
1974.011719	38219.113281
1973.038086	38426.941406
1972.063477	38435.187500
1971.088867	38186.605469
1970.114258	38376.875000
1969.138672	38420.019531
1968.164063	38545.382813
1967.188477	38643.292969
1966.212891	38781.027344
1965.237305	38315.937500
1964.261719	38498.507813
1963.286133	38910.082031
1962.309570	38813.656250
1961.333984	39058.261719
1960.357422	38456.648438
1959.380859	39017.230469
1958.404297	39134.792969
1957.426758	39113.019531
1956.450195	38638.644531
1955.472656	39183.875000
1954.495117	38759.371094
1953.517578	38966.347656
1952.540039	38966.988281
1951.561523	38878.171875
1950.583008	38799.324219
1949.605469	38802.472656
1948.626953	39257.593750
1947.647461	38925.453125
1946.668945	38836.714844
1945.690430	39140.179688
1944.710938	38912.460938
1943.731445	39007.378906
1942.751953	39228.785156
1941.772461	39574.128906
1940.791992	39277.046875
1939.812500	39218.101563
1938.832031	39409.558594
1937.851563	39784.367188
1936.871094	39529.582031
1935.890625	39210.460938
1934.909180	39617.304688
1933.928711	39397.355469
1932.947266	39355.785156
1931.965820	39452.882813
1930.984375	39604.410156
1930.002930	39411.835938
1929.020508	39565.789063
1928.038086	39655.355469
1927.056641	39472.761719
1926.074219	39564.785156
1925.090820	39298.187500
1924.108398	39746.250000
1923.125000	39173.171875
1922.142578	39188.550781
1921.159180	39955.183594
1920.175781	39839.464844
1919.191406	39521.214844
1918.208008	39595.796875
1917.223633	39798.765625
1916.240234	39912.773438
1915.255859	39352.796875
1914.271484	39713.664063
1913.286133	39820.218750
1912.301758	39948.941406
1911.316406	39811.187500
1910.331055	39695.683594
1909.345703	39812.023438
1908.360352	39622.585938
1907.375000	39388.839844
1906.388672	39869.953125
1905.402344	39301.093750
1904.416016	39754.949219
1903.429688	39794.781250
1902.443359	40142.476563
1901.457031	39901.488281
1900.469727	39724.597656
1899.482422	39710.242188
1898.495117	40020.785156
1897.507813	40131.882813
1896.520508	39755.773438
1895.532227	39798.000000
1894.543945	39709.847656
1893.556641	39966.007813
1892.568359	39976.203125
1891.579102	40069.976563
1890.590820	39861.398438
1889.601563	40208.269531
1888.613281	40292.121094
1887.624023	39798.648438
1886.634766	40096.222656
1885.644531	39838.703125
1884.655273	40381.683594
1883.665039	40386.867188
1882.674805	40207.968750
1881.684570	40085.570313
1880.694336	40238.011719
1879.704102	40294.726563
1878.712891	39949.179688
1877.722656	40506.179688
1876.731445	40641.269531
1875.740234	40594.906250
1874.748047	40149.054688
1873.756836	40056.234375
1872.764648	40526.964844
1871.773438	40426.757813
1870.781250	40564.156250
1869.788086	40478.667969
1868.795898	40488.695313
1867.803711	40777.777344
1866.810547	40288.453125
1865.817383	40557.890625
1864.824219	40396.625000
1863.831055	40832.289063
1862.837891	40604.992188
1861.843750	40641.871094
1860.849609	41260.628906
1859.855469	40683.804688
1858.861328	40727.976563
1857.867188	41119.128906
1856.872070	41075.253906
1855.877930	41055.816406
1854.882813	41073.019531
1853.887695	41121.960938
1852.892578	41026.835938
1851.896484	41080.644531
1850.901367	40636.546875
1849.905273	41317.535156
1848.909180	41122.406250
1847.913086	41446.921875
1846.916992	41639.621094
1845.919922	41420.148438
1844.923828	41432.367188
1843.926758	41822.410156
1842.929688	41215.500000
1841.932617	41763.832031
1840.935547	41741.863281
1839.937500	41522.593750
1838.939453	41656.542969
1837.942383	41878.105469
1836.943359	41637.011719
1835.945313	42028.890625
1834.947266	41683.199219
1833.948242	42230.664063
1832.949219	41666.089844
1831.951172	41707.406250
1830.951172	41773.023438
1829.952148	42188.773438
1828.953125	42200.792969
1827.953125	42064.531250
1826.953125	42210.234375
1825.953125	42528.410156
1824.953125	42183.218750
1823.952148	42435.699219
1822.952148	42571.515625
1821.951172	42833.546875
1820.950195	42185.070313
1819.949219	42665.535156
1818.948242	42381.347656
1817.946289	42354.468750
1816.945313	42528.960938
1815.943359	42807.695313
1814.941406	42477.597656
1813.939453	42348.871094
1812.936523	42608.089844
1811.934570	43102.332031
1810.931641	43118.972656
1809.928711	43181.640625
1808.925781	43079.546875
1807.921875	42863.640625
1806.918945	43323.492188
1805.915039	43357.015625
1804.912109	43158.121094
1803.908203	44017.054688
1802.903320	43244.546875
1801.899414	43384.519531
1800.894531	43260.746094
1799.890625	43903.777344
1798.885742	43927.472656
1797.880859	43025.082031
1796.875000	44160.984375
1795.870117	44232.960938
1794.864258	44022.156250
1793.858398	44246.351563
1792.852539	43895.500000
1791.846680	44450.542969
1790.840820	44418.550781
1789.833984	44343.105469
1788.828125	44603.246094
1787.821289	44672.617188
1786.814453	44628.535156
1785.806641	44350.417969
1784.799805	44764.765625
1783.791992	45099.367188
1782.784180	44850.250000
1781.776367	44909.843750
1780.768555	44684.953125
1779.760742	44971.121094
1778.751953	45302.972656
1777.743164	45613.019531
1776.735352	45236.386719
1775.725586	45307.882813
1774.716797	45656.289063
1773.708008	45713.238281
1772.698242	45765.347656
1771.688477	45892.050781
1770.678711	46141.437500
1769.668945	45738.695313
1768.659180	46413.812500
1767.648438	46177.121094
1766.637695	46164.152344
1765.626953	45653.492188
1764.616211	46633.433594
1763.605469	46678.070313
1762.593750	46713.078125
1761.583008	46575.082031
1760.571289	46581.265625
1759.559570	46633.078125
1758.547852	47222.777344
1757.535156	47096.785156
1756.523438	47306.906250
1755.510742	47644.160156
1754.498047	47467.761719
1753.485352	47742.480469
1752.472656	48108.257813
1751.458984	47747.187500
1750.445313	48273.492188
1749.432617	48353.667969
1748.417969	47920.828125
1747.404297	48727.230469
1746.390625	48546.082031
1745.375977	49031.042969
1744.361328	48907.390625
1743.346680	48826.890625
1742.332031	48964.324219
1741.317383	48967.632813
1740.302734	49835.078125
1739.287109	49507.953125
1738.271484	50030.414063
1737.255859	49837.343750
1736.240234	50407.398438
1735.223633	50506.101563
1734.208008	51042.355469
1733.191406	50973.554688
1732.174805	51478.457031
1731.158203	51388.089844
1730.140625	52275.058594
1729.124023	52392.425781
1728.106445	52653.070313
1727.088867	53300.515625
1726.071289	53513.144531
1725.053711	53398.628906
1724.035156	54098.101563
1723.017578	54191.144531
1721.999023	54422.546875
1720.980469	54713.507813
1719.961914	54770.609375
1718.942383	54880.152344
1717.923828	55905.273438
1716.904297	55463.867188
1715.884766	55005.929688
1714.865234	56280.710938
1713.844727	56106.332031
1712.825195	56344.156250
1711.804688	55781.574219
1710.784180	55495.441406
1709.763672	55866.578125
1708.743164	55754.312500
1707.722656	55972.933594
1706.701172	55268.117188
1705.679688	55915.027344
1704.658203	55633.921875
1703.636719	55355.289063
1702.615234	55630.847656
1701.592773	55516.371094
1700.571289	55318.726563
1699.548828	54712.335938
1698.526367	55225.449219
1697.502930	55161.011719
1696.480469	55084.714844
1695.457031	55096.324219
1694.433594	55202.917969
1693.410156	55174.132813
1692.386719	55306.785156
1691.363281	55491.597656
1690.338867	55370.226563
1689.314453	55426.839844
1688.290039	55583.062500
1687.265625	55824.613281
1686.241211	55997.304688
1685.215820	55513.183594
1684.191406	56034.332031
1683.166016	56062.312500
1682.140625	55727.718750
1681.115234	56122.972656
1680.088867	56169.867188
1679.062500	56114.898438
1678.037109	56358.316406
1677.010742	56521.148438
1675.983398	56676.820313
1674.957031	56714.093750
1673.930664	56715.859375
1672.903320	57178.972656
1671.875977	57175.917969
1670.848633	57196.511719
1669.820313	57630.910156
1668.792969	57923.296875
1667.764648	58291.218750
1666.736328	57768.015625
1665.708008	57724.679688
1664.679688	58255.449219
1663.651367	58200.222656
1662.622070	57882.863281
1661.592773	58233.859375
1660.563477	58287.261719
1659.534180	58173.046875
1658.504883	58738.558594
1657.474609	58756.437500
1656.444336	59043.257813
1655.415039	58735.562500
1654.383789	59531.679688
1653.353516	59049.519531
1652.323242	60319.152344
1651.291992	59749.800781
1650.260742	60125.675781
1649.229492	60409.523438
1648.198242	60285.707031
1647.166016	61200.667969
1646.134766	60871.863281
1645.102539	61444.980469
1644.070313	60887.890625
1643.038086	61387.828125
1642.004883	61480.460938
1640.972656	61947.167969
1639.939453	62034.957031
1638.906250	63084.707031
1637.873047	62518.500000
1636.839844	63022.300781
1635.805664	63516.515625
1634.772461	63799.019531
1633.738281	63994.468750
1632.704102	64084.117188
1631.668945	64995.925781
1630.634766	64575.687500
1629.599609	65099.613281
1628.565430	65801.789063
1627.530273	65869.890625
1626.494141	66670.250000
1625.458984	66954.062500
1624.422852	67610.820313
1623.387695	68654.398438
1622.351563	69406.765625
1621.315430	69732.093750
1620.278320	70999.796875
1619.242188	72147.500000
1618.205078	73798.695313
1617.167969	76306.937500
1616.130859	77926.335938
1615.093750	79510.015625
1614.055664	81788.718750
1613.018555	83436.710938
1611.980469	85575.757813
1610.942383	85743.101563
1609.904297	86720.148438
1608.865234	85876.359375
1607.827148	85559.265625
1606.788086	83471.562500
1605.749023	82579.679688
1604.709961	81164.335938
1603.669922	79179.054688
1602.630859	77175.773438
1601.590820	76841.843750
1600.550781	75956.593750
1599.510742	75073.992188
1598.470703	74366.882813
1597.429688	73818.828125
1596.389648	73397.062500
1595.348633	73157.531250
1594.307617	73749.023438
1593.265625	73164.125000
1592.224609	73631.742188
1591.182617	73658.273438
1590.140625	73435.218750
1589.098633	74702.421875
1588.056641	74278.734375
1587.014648	74435.671875
1585.971680	74671.796875
1584.928711	74952.109375
1583.886719	75192.710938
1582.842773	75358.671875
1581.799805	75384.828125
1580.755859	75422.617188
1579.712891	76075.054688
1578.668945	76250.046875
1577.625000	76033.953125
1576.580078	76525.359375
1575.536133	76588.492188
1574.491211	77121.492188
1573.446289	77724.070313
1572.401367	78633.382813
1571.356445	78454.281250
1570.311523	79325.937500
1569.265625	78993.375000
1568.219727	78742.257813
1567.173828	78821.132813
1566.127930	78906.953125
1565.082031	78649.000000
1564.035156	78131.070313
1562.988281	78177.484375
1561.941406	78620.812500
1560.894531	77808.414063
1559.847656	78038.164063
1558.799805	77847.906250
1557.751953	78423.179688
1556.704102	78112.320313
1555.656250	78147.070313
1554.608398	78068.195313
1553.560547	78133.062500
1552.511719	78302.187500
1551.462891	78019.421875
1550.414063	77468.007813
1549.365234	77859.515625
1548.315430	77692.757813
1547.265625	77685.828125
1546.216797	77137.171875
1545.166992	77623.343750
1544.116211	77544.679688
1543.066406	77294.812500
1542.015625	77678.898438
1540.965820	77595.625000
1539.915039	77315.812500
1538.863281	76848.812500
1537.812500	76902.117188
1536.760742	76273.562500
1535.709961	75749.210938
1534.658203	75786.500000
1533.605469	74733.414063
1532.553711	74708.500000
1531.501953	74097.046875
1530.449219	74206.164063
1529.396484	73872.023438
1528.343750	73715.718750
1527.290039	73529.460938
1526.237305	72773.390625
1525.183594	73210.195313
1524.129883	72777.343750
1523.076172	72902.679688
1522.022461	72778.976563
1520.968750	72484.726563
1519.914063	72778.281250
1518.859375	72709.960938
1517.804688	72390.531250
1516.750000	72453.593750
1515.694336	72765.359375
1514.639648	72779.968750
1513.583984	72716.289063
1512.528320	72311.960938
1511.472656	72232.281250
1510.416016	71959.335938
1509.360352	72790.773438
1508.303711	72225.695313
1507.247070	71704.515625
1506.190430	72077.968750
1505.132813	71593.781250
1504.076172	71335.015625
1503.018555	71349.820313
1501.960938	71162.414063
1500.903320	70972.773438
1499.844727	71093.281250
1498.787109	70566.140625
1497.728516	70463.953125
1496.669922	70834.703125
1495.611328	70613.148438
1494.552734	70827.687500
1493.493164	69727.437500
1492.434570	70276.976563
1491.375000	69560.250000
1490.315430	69916.992188
1489.254883	69915.921875
1488.195313	69401.367188
1487.134766	69019.921875
1486.074219	68805.890625
1485.013672	68612.562500
1483.953125	68719.382813
1482.892578	68743.703125
1481.831055	68184.093750
1480.769531	68453.476563
1479.708008	68731.914063
1478.646484	67504.312500
1477.583984	67480.765625
1476.522461	67898.781250
1475.459961	67712.757813
1474.397461	67712.046875
1473.334961	67811.945313
1472.271484	68417.062500
1471.208984	67607.046875
1470.145508	67695.476563
1469.082031	67788.437500
1468.018555	67856.234375
1466.954102	68330.585938
1465.890625	68270.367188
1464.826172	68223.867188
1463.761719	68449.046875
1462.697266	69002.828125
1461.631836	68915.140625
1460.567383	68952.968750
1459.501953	68899.523438
1458.436523	68960.148438
1457.371094	69159.851563
1456.305664	69535.046875
1455.239258	69331.070313
1454.172852	69154.523438
1453.107422	69420.125000
1452.040039	69482.843750
1450.973633	68982.875000
1449.907227	68911.265625
1448.839844	69251.859375
1447.772461	68834.156250
1446.705078	69104.062500
1445.637695	68629.625000
1444.569336	68901.742188
1443.500977	68964.445313
1442.432617	68795.101563
1441.364258	68932.843750
1440.295898	68995.500000
1439.227539	69294.578125
1438.158203	69123.007813
1437.088867	69592.398438
1436.019531	69748.039063
1434.950195	69608.281250
1433.879883	70004.640625
1432.810547	69758.132813
1431.740234	70247.414063
1430.669922	69612.734375
1429.598633	70201.726563
1428.528320	70622.570313
1427.457031	70539.531250
1426.386719	70554.078125
1425.314453	69863.195313
1424.243164	69784.867188
1423.171875	70209.921875
1422.099609	69877.648438
1421.027344	69837.882813
1419.955078	70031.546875
1418.882813	69035.609375
1417.810547	69666.554688
1416.737305	69552.093750
1415.664063	69505.617188
1414.590820	69377.640625
1413.517578	69215.750000
1412.444336	69737.445313
1411.370117	68602.492188
1410.295898	68775.671875
1409.221680	69265.476563
1408.147461	68615.218750
1407.073242	68713.671875
1405.998047	69271.039063
1404.922852	69362.554688
1403.847656	69408.828125
1402.772461	68790.750000
1401.697266	69015.585938
1400.621094	68625.929688
1399.544922	68376.437500
1398.468750	69190.570313
1397.392578	68336.015625
1396.316406	69172.421875
1395.239258	69232.187500
1394.162109	69348.328125
1393.084961	70204.398438
1392.007813	70446.632813
1390.930664	70456.500000
1389.852539	71093.179688
1388.774414	70969.914063
1387.696289	71252.390625
1386.618164	72102.671875
1385.540039	72186.562500
1384.460938	72583.554688
1383.382813	73084.007813
1382.303711	73404.125000
1381.223633	73253.554688
1380.144531	73940.453125
1379.064453	73488.234375
1377.985352	73862.039063
1376.905273	74539.453125
1375.825195	73803.921875
1374.744141	73954.796875
1373.664063	73372.546875
1372.583008	73566.164063
1371.501953	72995.421875
1370.420898	73049.679688
1369.338867	72553.390625
1368.257813	72068.507813
1367.175781	72221.734375
1366.093750	71824.664063
1365.011719	71436.718750
1363.929688	71087.078125
1362.846680	70791.429688
1361.763672	70960.437500
1360.680664	70929.687500
1359.597656	70461.476563
1358.514648	69849.875000
1357.430664	70355.312500
1356.346680	70073.554688
1355.262695	69538.562500
1354.178711	69167.390625
1353.094727	69204.210938
1352.009766	69034.875000
1350.925781	68159.945313
1349.840820	68828.531250
1348.755859	68424.218750
1347.669922	67894.656250
1346.584961	67792.859375
1345.499023	67319.554688
1344.413086	67508.796875
1343.327148	67749.429688
1342.240234	67457.578125
1341.154297	67539.328125
1340.067383	67750.742188
1338.980469	67374.078125
1337.893555	67947.570313
1336.805664	67617.937500
1335.718750	67882.796875
1334.630859	67841.492188
1333.542969	67614.796875
1332.455078	67877.281250
1331.367188	67885.109375
1330.278320	67781.312500
1329.189453	67927.539063
1328.100586	67535.875000
1327.011719	67902.992188
1325.922852	67594.007813
1324.833008	68016.734375
1323.743164	67685.539063
1322.653320	68596.390625
1321.563477	68276.351563
1320.473633	68807.851563
1319.382813	68407.656250
1318.291992	69186.257813
1317.201172	69167.062500
1316.110352	69430.734375
1315.019531	69965.992188
1313.927734	70245.000000
1312.835938	70501.648438
1311.744141	70511.156250
1310.652344	70487.273438
1309.560547	70565.742188
1308.467773	70341.656250
1307.375000	70364.515625
1306.282227	70460.742188
1305.189453	70592.500000
1304.095703	70413.015625
1303.002930	70202.476563
1301.909180	70285.320313
1300.815430	70476.984375
1299.721680	70444.242188
1298.626953	70182.757813
1297.533203	70172.273438
1296.438477	70494.796875
1295.343750	70843.835938
1294.248047	70879.828125
1293.153320	70689.492188
1292.057617	71100.406250
1290.961914	71972.523438
1289.866211	71943.968750
1288.770508	72090.578125
1287.674805	71831.453125
1286.578125	72396.929688
1285.481445	71836.460938
1284.384766	72423.882813
1283.288086	72220.250000
1282.190430	72211.601563
1281.092773	72380.093750
1279.996094	71840.046875
1278.897461	71924.429688
1277.799805	71873.773438
1276.702148	71435.890625
1275.603516	71321.179688
1274.504883	71069.351563
1273.406250	70990.125000
1272.307617	70747.296875
1271.208008	70688.046875
1270.108398	70547.023438
1269.008789	70596.117188
1267.909180	69642.031250
1266.809570	69655.914063
1265.708984	69636.656250
1264.609375	69716.781250
1263.508789	69708.554688
1262.407227	69305.171875
1261.306641	68999.046875
1260.206055	68979.914063
1259.104492	68724.695313
1258.002930	68509.281250
1256.901367	68170.421875
1255.798828	68274.929688
1254.697266	68119.234375
1253.594727	68349.359375
1252.492188	68742.492188
1251.389648	68273.875000
1250.286133	68157.937500
1249.183594	68143.367188
1248.080078	68119.984375
1246.976563	67550.515625
1245.872070	67903.718750
1244.768555	67316.882813
1243.664063	67555.554688
1242.560547	67833.742188
1241.455078	68050.226563
1240.350586	67850.906250
1239.246094	67504.312500
1238.140625	67454.671875
1237.035156	67633.687500
1235.929688	67636.789063
1234.824219	67362.992188
1233.717773	67460.617188
1232.612305	67186.945313
1231.505859	66950.703125
1230.399414	67166.929688
1229.291992	67091.054688
1228.185547	67245.703125
1227.078125	66952.546875
1225.970703	66753.859375
1224.863281	66419.210938
1223.755859	66589.210938
1222.647461	66522.281250
1221.539063	66464.140625
1220.430664	66217.476563
1219.322266	65940.203125
1218.213867	65676.179688
1217.104492	65946.914063
1215.995117	66208.773438
1214.885742	66010.554688
1213.776367	66140.898438
1212.666992	66343.460938
1211.556641	66097.148438
1210.446289	65955.984375
1209.335938	66565.507813
1208.225586	66391.484375
1207.115234	66213.156250
1206.003906	66275.476563
1204.892578	66576.140625
1203.781250	67388.312500
1202.669922	67072.195313
1201.557617	66415.226563
1200.446289	66897.007813
1199.333984	67035.593750
1198.221680	67064.898438
1197.108398	67232.562500
1195.996094	67400.078125
1194.882813	67567.742188
1193.769531	67735.406250
1192.656250	67903.070313
1191.542969	68309.671875
1190.428711	68397.593750
1189.314453	68550.921875
1188.200195	68045.562500
1187.085938	68159.640625
1185.971680	68354.335938
1184.856445	68014.937500
1183.741211	68401.359375
1182.625977	67929.156250
1181.510742	67566.046875
1180.395508	67886.992188
1179.279297	68190.390625
1178.163086	68208.453125
1177.046875	67889.085938
1175.930664	67465.359375
1174.813477	67933.992188
1173.697266	67634.414063
1172.580078	67704.757813
1171.462891	67059.515625
1170.344727	67510.468750
1169.227539	67517.734375
1168.109375	67096.765625
1166.991211	67351.859375
1165.873047	67085.343750
1164.754883	66836.312500
1163.635742	66924.046875
1162.516602	66887.953125
1161.397461	67008.218750
1160.278320	67308.617188
1159.159180	66844.867188
1158.039063	66882.593750
1156.918945	66638.226563
1155.798828	66515.437500
1154.678711	66728.882813
1153.558594	66571.414063
1152.437500	66550.601563
1151.316406	66534.125000
1150.195313	66851.429688
1149.074219	67079.773438
1147.952148	67299.367188
1146.831055	67250.257813
1145.708984	67495.718750
1144.586914	67884.007813
1143.463867	67414.796875
1142.341797	67976.125000
1141.218750	67820.882813
1140.095703	68410.054688
1138.972656	68748.046875
1137.849609	68549.468750
1136.725586	68733.757813
1135.601563	68855.273438
1134.477539	68650.296875
1133.353516	67786.140625
1132.229492	67899.101563
1131.104492	67556.117188
1129.979492	67390.406250
1128.854492	66853.242188
1127.729492	66784.882813
1126.603516	65915.515625
1125.478516	66207.859375
1124.352539	66146.125000
1123.226563	66470.671875
1122.099609	65916.992188
1120.973633	65922.203125
1119.846680	65560.765625
1118.719727	65106.734375
1117.592773	64570.941406
1116.465820	65223.054688
1115.337891	64696.046875
1114.209961	64475.210938
1113.082031	64422.492188
1111.954102	64483.953125
1110.826172	64002.679688
1109.697266	64397.937500
1108.568359	63891.015625
1107.439453	63562.929688
1106.310547	63355.476563
1105.180664	63673.089844
1104.051758	63289.281250
1102.921875	63499.246094
1101.791992	63296.242188
1100.661133	63325.515625
1099.531250	63294.585938
1098.400391	63955.730469
1097.269531	63763.523438
1096.138672	63554.199219
1095.006836	63854.046875
1093.875977	62781.402344
1092.744141	63006.117188
1091.612305	62751.988281
1090.480469	62933.691406
1089.347656	62398.519531
1088.215820	62279.812500
1087.083008	62804.750000
1085.950195	61613.535156
1084.816406	61752.375000
1083.683594	61524.507813
1082.549805	61714.761719
1081.416016	61877.074219
1080.282227	62000.753906
1079.148438	61490.175781
1078.013672	62350.792969
1076.878906	61941.000000
1075.744141	61462.828125
1074.609375	62040.351563
1073.474609	61832.050781
1072.338867	61936.296875
1071.203125	61559.039063
1070.067383	61552.039063
1068.931641	61585.683594
1067.794922	61039.734375
1066.659180	61614.437500
1065.522461	61062.261719
1064.385742	60937.785156
1063.248047	60945.851563
1062.111328	61381.253906
1060.973633	61295.234375
1059.835938	61442.058594
1058.698242	61172.394531
1057.559570	60832.371094
1056.421875	60810.542969
1055.283203	60899.710938
1054.144531	60534.304688
1053.005859	60666.156250
1051.866211	61009.140625
1050.726563	60884.914063
1049.587891	61253.316406
1048.447266	61026.750000
1047.307617	61331.039063
1046.167969	61334.707031
1045.027344	61570.632813
1043.886719	61001.160156
1042.746094	61092.214844
1041.604492	61100.171875
1040.463867	61655.347656
1039.322266	60628.558594
1038.180664	60943.089844
1037.038086	61023.417969
1035.896484	60929.238281
1034.753906	60830.832031
1033.611328	61370.542969
1032.468750	60882.933594
1031.326172	60941.921875
1030.182617	61160.316406
1029.040039	61174.593750
1027.896484	61282.359375
1026.751953	61237.113281
1025.608398	61130.281250
1024.463867	61097.816406
1023.319336	61436.960938
1022.174805	61001.070313
1021.030273	61452.605469
1019.885742	61350.058594
1018.740234	61761.042969
1017.594727	61620.285156
1016.449219	61403.222656
1015.303711	61620.976563
1014.157227	61652.058594
1013.010742	61452.058594
1011.864258	61561.578125
1010.717773	61412.523438
1009.571289	61460.562500
1008.423828	61292.507813
1007.276367	61082.152344
1006.128906	61898.898438
1004.981445	61840.941406
1003.833008	61818.988281
1002.684570	62317.679688
1001.536133	62653.250000
1000.387695	63039.468750
999.239258	63239.402344
998.089844	63517.507813
996.941406	63658.066406
995.791992	63874.679688
994.641602	63030.140625
993.492188	63356.675781
992.341797	63051.328125
991.191406	62957.339844
990.041016	63161.195313
988.890625	63139.015625
987.739258	63245.636719
986.588867	63006.015625
985.437500	62869.894531
984.285156	62936.402344
983.133789	62456.445313
981.981445	63006.054688
980.829102	62975.476563
979.676758	62531.613281
978.524414	62777.308594
977.372070	62938.597656
976.218750	62964.945313
975.065430	62308.585938
973.912109	63076.589844
972.757813	62856.453125
971.604492	63148.128906
970.450195	62835.410156
969.295898	63101.714844
968.141602	62896.457031
966.986328	62910.125000
965.832031	62995.320313
964.676758	63248.769531
963.521484	63178.226563
962.365234	63189.718750
961.209961	63333.656250
960.053711	62891.066406
958.897461	63022.390625
957.741211	63391.105469
956.584961	63057.988281
955.427734	63073.675781
954.270508	63137.652344
953.113281	63430.476563
951.956055	63542.644531
950.797852	63123.734375
949.639648	63082.714844
948.481445	62976.667969
947.323242	63007.011719
946.165039	63140.113281
945.005859	63491.253906
943.847656	62401.878906
942.687500	62753.019531
941.528320	63036.960938
940.369141	62796.929688
939.208984	62544.414063
938.048828	62757.007813
936.888672	62699.355469
935.728516	62834.359375
934.567383	62925.351563
933.406250	63014.210938
932.245117	62644.722656
931.083984	63365.492188
929.922852	62906.113281
928.760742	63321.191406
927.598633	63403.609375
926.436523	63157.730469
925.274414	63192.062500
924.111328	63920.277344
922.948242	63714.136719
921.785156	64019.945313
920.622070	63884.878906
919.458984	63904.410156
918.294922	64258.031250
917.130859	64267.042969
915.966797	64286.484375
914.802734	64101.394531
913.637695	64225.179688
912.472656	64699.402344
911.307617	64733.339844
910.142578	65203.113281
908.977539	64863.714844
907.811523	65245.730469
906.645508	65546.320313
905.479492	65730.093750
904.313477	65574.179688
903.146484	65553.734375
901.980469	65156.308594
900.813477	64825.667969
899.646484	64443.093750
898.478516	64393.714844
897.311523	63942.675781
896.143555	64128.531250
894.975586	64260.222656
893.806641	64431.386719
892.638672	63999.382813
891.469727	64987.675781
890.300781	64050.554688
889.131836	64412.835938
887.962891	64195.191406
886.792969	64220.714844
885.623047	64289.851563
884.453125	64157.496094
883.283203	64156.007813
882.112305	64330.996094
880.942383	64410.429688
879.771484	64645.488281
878.600586	64791.226563
877.428711	64669.281250
876.257813	64943.562500
875.085938	65815.023438
873.914063	65562.312500
872.741211	65666.273438
871.569336	66128.773438
870.396484	65297.949219
869.223633	65159.468750
868.050781	65729.523438
866.877930	65501.945313
865.704102	66009.593750
864.530273	65939.398438
863.356445	66707.593750
862.182617	66597.968750
861.007813	67036.734375
859.833984	67357.414063
858.659180	67866.203125
857.484375	67044.992188
856.308594	67253.820313
855.133789	66858.890625
853.958008	66763.828125
852.782227	66350.531250
851.605469	66945.703125
850.429688	66109.031250
849.252930	65985.242188
848.076172	66088.656250
846.899414	66689.617188
845.722656	65915.523438
844.544922	66935.273438
843.367188	66776.351563
842.189453	66617.484375
841.011719	67025.937500
839.833008	67409.492188
838.655273	68240.351563
837.476563	68512.203125
836.296875	68800.437500
835.118164	68934.000000
833.938477	68523.539063
832.758789	68788.945313
831.579102	67849.312500
830.399414	67534.000000
829.219727	66236.679688
828.039063	65934.132813
826.858398	65252.984375
825.677734	64646.167969
824.496094	64391.390625
823.315430	63896.035156
822.133789	63590.074219
820.952148	63728.378906
819.769531	62962.031250
818.587891	62864.011719
817.405273	62792.742188
816.222656	62957.792969
815.040039	62960.484375
813.856445	62562.644531
812.673828	61865.121094
811.490234	62112.335938
810.305664	61846.250000
809.122070	62091.320313
807.938477	62395.808594
806.753906	61709.207031
805.569336	62083.394531
804.383789	62078.011719
803.199219	61572.292969
802.013672	61841.730469
800.828125	61936.828125
799.642578	61874.082031
798.457031	60973.300781
797.270508	61166.835938
796.083984	60975.218750
794.897461	60423.238281
793.710938	60483.671875
792.523438	60552.265625
791.336914	60115.285156
790.149414	60300.558594
788.961914	59462.765625
787.773438	59850.605469
786.585938	59749.484375
785.397461	59760.867188
784.208984	59218.191406
783.019531	59470.863281
781.831055	59449.585938
780.641602	59371.097656
779.452148	58879.957031
778.262695	59581.863281
777.072266	58780.449219
775.882813	58824.640625
774.692383	59319.972656
773.501953	58923.175781
772.310547	58997.917969
771.120117	58960.414063
769.928711	58778.089844
768.737305	58877.285156
767.544922	58546.175781
766.353516	59061.281250
765.161133	59207.242188
763.968750	59369.453125
762.776367	59525.484375
761.583984	59707.941406
760.390625	59857.738281
759.197266	60107.261719
758.003906	60175.476563
756.810547	59867.050781
755.616211	60197.839844
754.421875	60957.886719
753.227539	60804.109375
752.033203	61069.437500
750.838867	60305.535156
749.643555	60475.281250
748.448242	59957.773438
747.252930	59918.140625
746.057617	58915.199219
744.861328	58831.070313
743.665039	58608.824219
742.468750	58276.968750
741.272461	58400.140625
740.075195	58186.210938
738.878906	57899.277344
737.681641	57874.273438
736.484375	58555.476563
735.286133	57822.261719
734.087891	57795.250000
732.890625	57618.164063
731.691406	57396.527344
730.493164	57702.101563
729.294922	57557.554688
728.095703	57242.820313
726.896484	57505.691406
725.696289	56830.468750
724.497070	56807.710938
723.296875	56687.757813
722.096680	56675.152344
720.896484	56626.117188
719.696289	56876.644531
718.495117	56940.906250
717.293945	56883.742188
716.092773	56446.300781
714.891602	56644.082031
713.689453	56807.410156
712.487305	56653.261719
711.285156	57069.191406
710.083008	57088.851563
708.880859	57197.410156
707.677734	56128.128906
706.474609	56998.304688
705.271484	56874.566406
704.068359	56974.996094
702.864258	56598.964844
701.660156	56755.917969
700.456055	56737.242188
699.251953	56597.519531
698.046875	56586.945313
696.841797	56650.996094
695.636719	56650.492188
694.431641	56887.886719
693.226563	57221.941406
692.020508	57013.746094
690.814453	56880.175781
689.608398	57141.515625
688.402344	57191.257813
687.195313	56828.148438
685.988281	57016.855469
684.781250	57481.281250
683.574219	56967.363281
682.366211	57272.644531
681.158203	57392.710938
679.950195	57478.535156
678.742188	57329.011719
677.534180	57245.902344
676.325195	57347.781250
675.116211	57915.949219
673.907227	57740.324219
672.697266	57896.292969
671.488281	57351.085938
670.278320	57418.691406
669.068359	57353.726563
667.858398	57266.695313
666.647461	57041.183594
665.436523	56386.246094
664.225586	56646.593750
663.014648	56174.542969
661.802734	55776.882813
660.591797	56169.558594
659.379883	56034.722656
658.167969	55861.843750
656.955078	56540.906250
655.743164	55520.277344
654.530273	55752.324219
653.317383	55176.953125
652.103516	55270.773438
650.890625	55362.550781
649.676758	55394.226563
648.462891	55259.742188
647.249023	55375.480469
646.034180	55363.105469
644.819336	55374.738281
643.604492	55660.410156
642.389648	55062.000000
641.174805	55233.644531
639.958984	55185.308594
638.743164	55634.691406
637.527344	55474.382813
636.311523	55771.683594
635.094727	55223.855469
633.877930	55355.312500
632.661133	54757.835938
631.444336	55090.976563
630.226563	54461.832031
629.008789	54625.257813
627.791016	54567.121094
626.573242	54495.042969
625.355469	54921.660156
624.136719	54634.148438
622.917969	54402.574219
621.699219	54709.347656
620.480469	54693.105469
619.260742	54429.757813
618.041016	54298.003906
616.821289	54461.128906
615.601563	54182.031250
614.380859	54108.140625
613.160156	54211.472656
611.939453	53992.285156
610.718750	54218.988281
609.497070	53902.378906
608.276367	53912.152344
607.054688	54341.621094
605.832031	53663.214844
604.610352	54112.441406
603.387695	54316.980469
602.165039	53438.207031
600.942383	53835.550781
599.719727	53984.390625
598.496094	53811.359375
597.272461	53910.488281
596.048828	53707.750000
594.825195	53832.664063
593.600586	53189.343750
592.375977	53320.257813
591.151367	53504.695313
589.926758	53316.093750
588.701172	53811.863281
587.476563	53244.500000
586.250977	53337.593750
585.024414	53238.363281
583.798828	53632.683594
582.572266	53202.500000
581.345703	53127.117188
580.119141	53471.707031
578.892578	53776.554688
577.665039	53615.953125
576.437500	53459.371094
575.209961	53449.320313
573.982422	53478.847656
572.753906	53694.355469
571.525391	53353.886719
570.296875	53383.410156
569.068359	53165.726563
567.838867	53276.332031
566.610352	52914.445313
565.380859	53276.054688
564.150391	53311.480469
562.920898	52850.996094
561.690430	53382.281250
560.459961	52997.000000
559.229492	53119.320313
557.999023	52673.031250
556.767578	53280.917969
555.536133	52868.308594
554.304688	52584.101563
553.073242	53302.125000
551.840820	53469.597656
550.608398	52980.347656
549.375977	52643.089844
548.143555	52889.433594
546.910156	52296.105469
545.676758	53023.210938
544.443359	52199.578125
543.209961	52894.906250
541.975586	52329.585938
540.742188	52644.609375
539.507813	52500.824219
538.272461	52603.121094
537.038086	52557.789063
535.802734	52754.472656
534.567383	52569.457031
533.332031	52500.550781
532.096680	52449.359375
530.860352	52148.503906
529.624023	52327.378906
528.387695	52402.019531
527.151367	52405.894531
525.914063	52830.175781
524.676758	52342.925781
523.439453	52240.757813
522.202148	52719.800781
520.963867	52421.289063
519.725586	52148.406250
518.487305	52391.707031
517.249023	52344.546875
516.009766	51958.054688
514.771484	52262.042969
513.532227	52065.906250
512.291992	52503.066406
511.052734	52101.144531
509.812500	52083.476563
508.572266	52269.582031
507.332031	51928.648438
506.090820	51699.484375
504.850586	51852.261719
503.609375	51952.117188
502.368164	52220.273438
501.125977	52059.718750
499.884766	52028.363281
498.642578	52118.316406
497.400391	52374.496094
496.157227	52266.824219
494.915039	52346.898438
493.671875	52765.140625
492.428711	52757.128906
491.184570	52880.046875
489.941406	53032.226563
488.697266	52606.125000
487.453125	52951.648438
486.208984	52658.500000
484.963867	53003.878906
483.718750	52888.457031
482.473633	52874.558594
481.228516	53459.691406
479.982422	52959.921875
478.737305	52655.390625
477.491211	52881.402344
476.244141	52978.644531
474.998047	53058.300781
473.750977	53436.125000
472.503906	53205.824219
471.256836	53581.523438
470.009766	53512.953125
468.761719	54059.832031
467.513672	53597.863281
466.265625	53690.910156
465.017578	54198.507813
463.768555	54456.812500
462.519531	54380.359375
461.270508	54829.167969
460.021484	54560.117188
458.771484	54693.691406
457.521484	55140.238281
456.271484	55318.359375
455.021484	55508.070313
453.770508	55625.812500
452.519531	55819.273438
451.268555	55944.675781
450.017578	56221.507813
448.765625	56630.261719
447.514648	56813.667969
446.262695	57538.519531
445.009766	57762.433594
443.757813	58298.628906
442.504883	58613.476563
441.251953	58408.433594
439.999023	57928.113281
438.745117	57727.148438
437.492188	56537.699219
436.238281	56176.214844
434.983398	55572.664063
433.729492	54709.750000
432.474609	54788.480469
431.219727	54324.957031
429.964844	54204.300781
428.709961	53950.121094
427.454102	53916.671875
426.198242	53159.527344
424.942383	53565.410156
423.685547	53762.226563
422.429688	53181.523438
421.172852	53186.910156
419.916016	53329.550781
418.658203	53218.929688
417.401367	52870.656250
416.143555	53104.078125
414.885742	52808.109375
413.626953	53099.386719
412.369141	53334.554688
411.110352	52953.757813
409.851563	53410.839844
408.591797	52893.140625
407.333008	53243.929688
406.073242	52722.597656
404.813477	52573.718750
403.553711	52984.144531
402.292969	52827.554688
401.032227	52694.156250
