#Wave		#Intensity
2001.221680	44553.292969
2000.251953	45114.753906
1999.282227	44520.457031
1998.312500	45144.105469
1997.342773	45103.656250
1996.372070	44780.179688
1995.402344	45027.804688
1994.431641	44666.894531
1993.460938	45142.261719
1992.490234	44901.597656
1991.518555	44921.285156
1990.547852	45173.664063
1989.576172	44840.550781
1988.604492	44977.792969
1987.632813	44962.433594
1986.661133	45132.109375
1985.689453	45521.718750
1984.716797	45108.843750
1983.745117	45235.914063
1982.772461	44983.144531
1981.799805	45052.730469
1980.827148	45249.675781
1979.853516	45356.644531
1978.880859	45054.085938
1977.907227	45285.875000
1976.933594	45165.636719
1975.959961	45302.488281
1974.986328	45177.300781
1974.011719	45528.644531
1973.038086	45079.195313
1972.063477	45181.046875
1971.088867	45462.382813
1970.114258	45706.226563
1969.138672	45394.144531
1968.164063	45398.667969
1967.188477	45268.640625
1966.212891	45210.898438
1965.237305	45444.601563
1964.261719	45772.855469
1963.286133	45914.246094
1962.309570	45791.699219
1961.333984	46005.214844
1960.357422	45915.042969
1959.380859	45929.406250
1958.404297	46247.269531
1957.426758	46405.828125
1956.450195	46340.511719
1955.472656	46011.652344
1954.495117	46411.308594
1953.517578	46055.207031
1952.540039	45572.488281
1951.561523	46506.214844
1950.583008	46172.636719
1949.605469	46569.421875
1948.626953	46216.082031
1947.647461	46178.195313
1946.668945	46544.976563
1945.690430	45995.730469
1944.710938	45751.921875
1943.731445	46041.660156
1942.751953	45904.597656
1941.772461	46174.363281
1940.791992	45799.250000
1939.812500	45957.355469
1938.832031	46110.449219
1937.851563	46273.398438
1936.871094	45940.652344
1935.890625	46242.328125
1934.909180	46036.042969
1933.928711	45597.003906
1932.947266	46086.781250
1931.965820	46148.039063
1930.984375	45850.312500
1930.002930	46025.441406
1929.020508	46433.128906
1928.038086	46189.937500
1927.056641	46184.320313
1926.074219	46025.347656
1925.090820	46417.910156
1924.108398	46048.781250
1923.125000	46609.300781
1922.142578	45993.097656
1921.159180	45975.152344
1920.175781	46233.941406
1919.191406	46191.253906
1918.208008	46210.328125
1917.223633	46476.343750
1916.240234	46515.109375
1915.255859	46302.054688
1914.271484	46259.382813
1913.286133	46618.972656
1912.301758	46309.781250
1911.316406	46126.511719
1910.331055	46002.496094
1909.345703	46512.300781
1908.360352	46871.523438
1907.375000	46306.167969
1906.388672	46566.707031
1905.402344	46657.113281
1904.416016	46193.105469
1903.429688	46500.328125
1902.443359	46598.082031
1901.457031	46597.292969
1900.469727	46559.574219
1899.482422	46945.281250
1898.495117	46299.566406
1897.507813	46320.972656
1896.520508	46337.449219
1895.532227	47736.441406
1894.543945	46803.265625
1893.556641	46517.167969
1892.568359	46504.085938
1891.579102	46176.347656
1890.590820	46640.148438
1889.601563	46921.937500
1888.613281	46962.839844
1887.624023	46478.023438
1886.634766	46808.808594
1885.644531	46795.679688
1884.655273	46792.371094
1883.665039	47022.273438
1882.674805	47242.277344
1881.684570	47172.632813
1880.694336	47166.800781
1879.704102	46930.378906
1878.712891	46924.585938
1877.722656	47007.078125
1876.731445	46535.429688
1875.740234	47098.425781
1874.748047	47126.917969
1873.756836	47179.902344
1872.764648	46691.394531
1871.773438	46646.445313
1870.781250	47397.511719
1869.788086	47166.339844
1868.795898	47363.714844
1867.803711	47411.695313
1866.810547	47006.867188
1865.817383	47165.007813
1864.824219	47188.523438
1863.831055	47236.492188
1862.837891	47225.742188
1861.843750	47667.386719
1860.849609	47693.238281
1859.855469	47616.406250
1858.861328	47615.367188
1857.867188	48046.851563
1856.872070	47481.351563
1855.877930	47822.316406
1854.882813	47699.117188
1853.887695	47678.519531
1852.892578	48231.679688
1851.896484	48176.816406
1850.901367	48280.609375
1849.905273	47989.054688
1848.909180	48102.601563
1847.913086	48584.449219
1846.916992	48473.468750
1845.919922	47911.402344
1844.923828	48239.425781
1843.926758	48579.519531
1842.929688	48848.812500
1841.932617	49110.699219
1840.935547	48549.003906
1839.937500	48978.925781
1838.939453	49109.128906
1837.942383	48684.089844
1836.943359	48892.203125
1835.945313	49097.808594
1834.947266	49463.964844
1833.948242	48973.457031
1832.949219	49320.039063
1831.951172	49352.707031
1830.951172	49648.027344
1829.952148	49697.644531
1828.953125	49312.054688
1827.953125	49553.742188
1826.953125	49812.355469
1825.953125	49733.113281
1824.953125	49197.156250
1823.952148	49496.980469
1822.952148	49779.699219
1821.951172	50035.605469
1820.950195	49453.835938
1819.949219	49782.523438
1818.948242	49975.187500
1817.946289	49937.265625
1816.945313	50391.847656
1815.943359	50043.378906
1814.941406	49588.320313
1813.939453	49858.433594
1812.936523	50038.746094
1811.934570	50279.593750
1810.931641	50551.855469
1809.928711	50785.253906
1808.925781	50245.742188
1807.921875	50362.839844
1806.918945	50567.082031
1805.915039	50633.230469
1804.912109	50515.359375
1803.908203	51128.527344
1802.903320	50843.621094
1801.899414	50972.574219
1800.894531	50738.597656
1799.890625	50765.933594
1798.885742	51071.371094
1797.880859	50847.164063
1796.875000	51645.652344
1795.870117	50691.453125
1794.864258	51574.265625
1793.858398	51480.601563
1792.852539	51787.992188
1791.846680	51443.113281
1790.840820	51752.812500
1789.833984	51449.109375
1788.828125	51640.402344
1787.821289	51896.796875
1786.814453	52314.785156
1785.806641	52252.472656
1784.799805	51538.824219
1783.791992	52318.449219
1782.784180	52198.281250
1781.776367	52623.074219
1780.768555	52628.250000
1779.760742	52676.804688
1778.751953	52421.699219
1777.743164	52682.300781
1776.735352	52783.816406
1775.725586	52762.453125
1774.716797	53001.175781
1773.708008	52543.976563
1772.698242	52977.644531
1771.688477	52580.781250
1770.678711	53358.406250
1769.668945	53180.558594
1768.659180	52945.039063
1767.648438	53212.281250
1766.637695	53318.312500
1765.626953	53467.578125
1764.616211	53611.980469
1763.605469	53350.144531
1762.593750	53102.816406
1761.583008	53264.019531
1760.571289	53643.765625
1759.559570	53747.167969
1758.547852	53845.734375
1757.535156	54405.238281
1756.523438	53992.335938
1755.510742	53975.593750
1754.498047	54273.210938
1753.485352	54450.757813
1752.472656	54925.691406
1751.458984	54796.062500
1750.445313	55074.128906
1749.432617	55424.023438
1748.417969	55150.542969
1747.404297	55303.765625
1746.390625	55210.117188
1745.375977	55217.121094
1744.361328	55674.464844
1743.346680	55983.152344
1742.332031	56363.570313
1741.317383	56571.468750
1740.302734	56073.140625
1739.287109	57056.441406
1738.271484	57098.992188
1737.255859	57600.875000
1736.240234	57667.230469
1735.223633	58317.113281
1734.208008	58254.187500
1733.191406	58898.949219
1732.174805	58843.109375
1731.158203	59174.457031
1730.140625	59842.601563
1729.124023	60178.425781
1728.106445	60411.414063
1727.088867	60909.414063
1726.071289	61263.968750
1725.053711	61869.066406
1724.035156	61199.312500
1723.017578	62443.796875
1721.999023	62921.894531
1720.980469	62495.644531
1719.961914	62673.011719
1718.942383	63367.828125
1717.923828	63051.402344
1716.904297	63540.875000
1715.884766	63729.843750
1714.865234	63618.460938
1713.844727	63521.414063
1712.825195	63703.128906
1711.804688	63915.742188
1710.784180	63356.679688
1709.763672	63445.460938
1708.743164	63755.605469
1707.722656	63651.480469
1706.701172	63711.593750
1705.679688	63241.085938
1704.658203	63267.941406
1703.636719	63175.859375
1702.615234	63476.195313
1701.592773	63063.117188
1700.571289	62807.082031
1699.548828	63435.316406
1698.526367	63320.125000
1697.502930	63204.828125
1696.480469	63089.636719
1695.457031	62974.339844
1694.433594	62859.039063
1693.410156	62375.406250
1692.386719	62264.640625
1691.363281	62581.136719
1690.338867	62551.054688
1689.314453	62475.902344
1688.290039	62329.605469
1687.265625	62612.648438
1686.241211	62362.035156
1685.215820	62671.050781
1684.191406	62415.769531
1683.166016	63137.054688
1682.140625	62531.062500
1681.115234	63086.222656
1680.088867	63162.675781
1679.062500	62675.414063
1678.037109	63403.109375
1677.010742	62743.140625
1675.983398	63406.644531
1674.957031	63544.492188
1673.930664	63627.867188
1672.903320	63216.738281
1671.875977	63924.621094
1670.848633	63669.671875
1669.820313	64710.628906
1668.792969	64361.058594
1667.764648	64174.710938
1666.736328	64428.011719
1665.708008	64369.312500
1664.679688	64249.207031
1663.651367	64962.964844
1662.622070	65324.578125
1661.592773	65433.398438
1660.563477	65563.429688
1659.534180	65846.835938
1658.504883	65743.101563
1657.474609	65658.273438
1656.444336	65981.609375
1655.415039	65667.968750
1654.383789	66425.117188
1653.353516	66401.531250
1652.323242	66479.312500
1651.291992	66656.070313
1650.260742	66672.500000
1649.229492	67395.804688
1648.198242	67650.031250
1647.166016	67520.234375
1646.134766	68132.312500
1645.102539	68438.062500
1644.070313	68282.296875
1643.038086	68762.085938
1642.004883	69317.015625
1640.972656	69297.625000
1639.939453	69482.914063
1638.906250	69531.710938
1637.873047	70281.281250
1636.839844	70525.070313
1635.805664	71523.375000
1634.772461	71447.187500
1633.738281	71709.429688
1632.704102	71701.375000
1631.668945	72827.953125
1630.634766	72972.359375
1629.599609	73241.171875
1628.565430	73474.671875
1627.530273	73973.343750
1626.494141	74894.304688
1625.458984	74479.710938
1624.422852	74977.929688
1623.387695	76071.796875
1622.351563	76691.515625
1621.315430	77264.101563
1620.278320	78106.109375
1619.242188	80396.484375
1618.205078	81568.085938
1617.167969	83374.304688
1616.130859	84683.187500
1615.093750	87490.765625
1614.055664	89170.828125
1613.018555	90646.562500
1611.980469	91946.179688
1610.942383	93320.234375
1609.904297	93408.937500
1608.865234	92589.695313
1607.827148	91859.640625
1606.788086	90916.992188
1605.749023	88945.640625
1604.709961	87718.562500
1603.669922	85589.500000
1602.630859	84931.445313
1601.590820	83308.437500
1600.550781	82569.234375
1599.510742	82180.734375
1598.470703	81166.367188
1597.429688	81035.140625
1596.389648	80602.734375
1595.348633	80784.476563
1594.307617	80174.875000
1593.265625	79850.203125
1592.224609	80155.625000
1591.182617	79947.710938
1590.140625	80852.445313
1589.098633	79699.992188
1588.056641	80375.945313
1587.014648	80028.257813
1585.971680	79692.335938
1584.928711	80894.585938
1583.886719	80341.937500
1582.842773	80569.882813
1581.799805	80641.687500
1580.755859	80466.625000
1579.712891	80701.398438
1578.668945	81082.750000
1577.625000	81945.742188
1576.580078	81458.726563
1575.536133	82621.476563
1574.491211	82453.210938
1573.446289	83285.093750
1572.401367	83572.531250
1571.356445	83787.796875
1570.311523	83540.382813
1569.265625	84401.679688
1568.219727	83889.335938
1567.173828	83667.585938
1566.127930	83311.187500
1565.082031	83514.632813
1564.035156	83070.140625
1562.988281	83083.171875
1561.941406	82859.421875
1560.894531	82988.523438
1559.847656	82848.398438
1558.799805	82590.007813
1557.751953	83354.640625
1556.704102	82889.835938
1555.656250	82506.351563
1554.608398	83108.296875
1553.560547	82910.335938
1552.511719	83203.757813
1551.462891	82723.156250
1550.414063	82740.812500
1549.365234	82519.875000
1548.315430	82583.875000
1547.265625	82842.343750
1546.216797	82795.132813
1545.166992	82909.953125
1544.116211	82892.828125
1543.066406	82901.148438
1542.015625	82978.867188
1540.965820	82728.117188
1539.915039	82357.195313
1538.863281	82640.742188
1537.812500	81886.210938
1536.760742	81966.343750
1535.709961	82369.960938
1534.658203	81266.992188
1533.605469	81869.250000
1532.553711	81164.023438
1531.501953	80849.304688
1530.449219	79862.828125
1529.396484	80700.359375
1528.343750	80048.914063
1527.290039	80138.437500
1526.237305	79385.804688
1525.183594	79733.765625
1524.129883	79408.140625
1523.076172	79324.757813
1522.022461	78840.234375
1520.968750	78849.179688
1519.914063	77738.031250
1518.859375	77721.820313
1517.804688	77111.203125
1516.750000	76837.109375
1515.694336	76563.109375
1514.639648	76328.351563
1513.583984	75778.273438
1512.528320	76024.812500
1511.472656	75279.359375
1510.416016	75751.390625
1509.360352	75620.500000
1508.303711	75395.343750
1507.247070	74800.007813
1506.190430	74724.531250
1505.132813	73989.281250
1504.076172	74440.335938
1503.018555	74576.382813
1501.960938	74714.671875
1500.903320	73747.914063
1499.844727	73640.531250
1498.787109	73441.328125
1497.728516	73207.750000
1496.669922	73070.671875
1495.611328	73092.007813
1494.552734	72617.656250
1493.493164	72372.906250
1492.434570	72442.523438
1491.375000	72289.632813
1490.315430	72735.312500
1489.254883	72130.742188
1488.195313	71354.460938
1487.134766	71997.171875
1486.074219	71613.039063
1485.013672	71678.093750
1483.953125	71536.968750
1482.892578	71036.304688
1481.831055	70638.867188
1480.769531	70713.203125
1479.708008	70911.125000
1478.646484	70069.906250
1477.583984	70434.906250
1476.522461	70783.757813
1475.459961	70126.000000
1474.397461	70250.648438
1473.334961	70185.453125
1472.271484	70602.671875
1471.208984	70039.132813
1470.145508	70689.328125
1469.082031	70457.289063
1468.018555	71372.187500
1466.954102	70802.046875
1465.890625	70819.031250
1464.826172	70710.421875
1463.761719	70604.132813
1462.697266	71022.859375
1461.631836	71003.265625
1460.567383	70990.523438
1459.501953	71215.039063
1458.436523	71482.804688
1457.371094	71216.835938
1456.305664	71158.453125
1455.239258	71275.617188
1454.172852	70948.289063
1453.107422	71236.351563
1452.040039	71296.468750
1450.973633	71274.554688
1449.907227	71535.070313
1448.839844	71182.921875
1447.772461	71176.968750
1446.705078	71517.023438
1445.637695	71627.078125
1444.569336	71445.820313
1443.500977	71537.648438
1442.432617	71606.687500
1441.364258	71643.851563
1440.295898	71503.640625
1439.227539	71536.265625
1438.158203	72178.070313
1437.088867	71660.554688
1436.019531	72156.671875
1434.950195	71893.796875
1433.879883	72373.789063
1432.810547	72406.203125
1431.740234	72502.179688
1430.669922	72561.789063
1429.598633	72133.367188
1428.528320	73166.609375
1427.457031	71916.835938
1426.386719	71751.906250
1425.314453	72036.140625
1424.243164	71755.585938
1423.171875	71441.117188
1422.099609	71240.109375
1421.027344	71084.507813
1419.955078	70693.265625
1418.882813	70562.734375
1417.810547	70563.632813
1416.737305	70376.539063
1415.664063	70814.523438
1414.590820	70027.445313
1413.517578	70012.585938
1412.444336	70287.429688
1411.370117	69806.359375
1410.295898	70128.648438
1409.221680	70032.328125
1408.147461	70096.625000
1407.073242	70495.562500
1405.998047	70797.132813
1404.922852	69997.750000
1403.847656	70694.804688
1402.772461	70035.820313
1401.697266	70296.578125
1400.621094	70471.406250
1399.544922	70106.406250
1398.468750	70107.328125
1397.392578	70674.914063
1396.316406	70723.132813
1395.239258	70541.132813
1394.162109	71264.015625
1393.084961	71235.390625
1392.007813	71396.242188
1390.930664	71234.539063
1389.852539	72051.460938
1388.774414	72223.343750
1387.696289	72494.328125
1386.618164	73558.468750
1385.540039	72905.320313
1384.460938	73374.273438
1383.382813	73442.132813
1382.303711	73868.023438
1381.223633	74181.187500
1380.144531	74555.007813
1379.064453	75113.257813
1377.985352	75158.226563
1376.905273	74854.437500
1375.825195	75122.132813
1374.744141	75036.617188
1373.664063	74966.867188
1372.583008	74514.937500
1371.501953	74045.179688
1370.420898	73649.757813
1369.338867	73499.406250
1368.257813	72976.156250
1367.175781	72904.593750
1366.093750	72572.531250
1365.011719	71766.796875
1363.929688	71726.914063
1362.846680	71157.304688
1361.763672	70778.656250
1360.680664	70869.101563
1359.597656	70477.179688
1358.514648	70621.468750
1357.430664	70178.148438
1356.346680	69817.937500
1355.262695	69661.867188
1354.178711	69931.710938
1353.094727	69542.601563
1352.009766	69406.812500
1350.925781	69604.867188
1349.840820	69439.992188
1348.755859	69136.335938
1347.669922	69457.460938
1346.584961	69568.046875
1345.499023	69615.914063
1344.413086	69126.703125
1343.327148	69089.609375
1342.240234	69544.656250
1341.154297	69449.343750
1340.067383	69521.773438
1338.980469	68666.335938
1337.893555	69503.367188
1336.805664	69388.000000
1335.718750	69429.093750
1334.630859	69695.820313
1333.542969	69837.351563
1332.455078	69650.539063
1331.367188	69403.492188
1330.278320	69844.156250
1329.189453	70438.664063
1328.100586	70356.750000
1327.011719	70212.390625
1325.922852	70103.765625
1324.833008	70936.453125
1323.743164	70622.570313
1322.653320	70469.335938
1321.563477	70683.984375
1320.473633	70871.796875
1319.382813	70306.320313
1318.291992	71189.296875
1317.201172	71430.382813
1316.110352	71190.281250
1315.019531	71008.164063
1313.927734	71378.273438
1312.835938	71692.593750
1311.744141	71681.851563
1310.652344	71691.140625
1309.560547	71729.343750
1308.467773	71371.578125
1307.375000	71916.898438
1306.282227	72090.671875
1305.189453	72426.679688
1304.095703	72398.015625
1303.002930	72778.281250
1301.909180	72138.500000
1300.815430	72805.265625
1299.721680	72945.351563
1298.626953	72943.250000
1297.533203	73001.101563
1296.438477	73240.968750
1295.343750	73682.734375
1294.248047	73906.851563
1293.153320	73968.914063
1292.057617	74210.632813
1290.961914	74753.921875
1289.866211	74421.046875
1288.770508	74298.929688
1287.674805	74981.546875
1286.578125	74779.578125
1285.481445	74828.078125
1284.384766	74692.664063
1283.288086	74661.414063
1282.190430	74357.750000
1281.092773	74452.781250
1279.996094	74302.023438
1278.897461	74481.148438
1277.799805	74095.828125
1276.702148	74297.046875
1275.603516	73575.609375
1274.504883	73741.453125
1273.406250	73294.609375
1272.307617	73765.578125
1271.208008	73217.195313
1270.108398	73113.296875
1269.008789	73214.960938
1267.909180	73535.335938
1266.809570	72466.007813
1265.708984	72773.148438
1264.609375	72521.445313
1263.508789	71693.546875
1262.407227	72084.531250
1261.306641	71588.085938
1260.206055	72027.492188
1259.104492	71273.078125
1258.002930	71805.031250
1256.901367	71253.843750
1255.798828	70954.242188
1254.697266	71759.343750
1253.594727	71402.437500
1252.492188	71354.218750
1251.389648	71079.046875
1250.286133	71044.117188
1249.183594	70352.765625
1248.080078	69987.617188
1246.976563	70785.242188
1245.872070	70129.531250
1244.768555	70543.835938
1243.664063	70874.351563
1242.560547	69820.695313
1241.455078	70063.226563
1240.350586	69920.726563
1239.246094	70059.773438
1238.140625	70275.726563
1237.035156	70691.656250
1235.929688	70309.554688
1234.824219	70760.476563
1233.717773	70374.101563
1232.612305	70956.656250
1231.505859	70019.078125
1230.399414	71334.945313
1229.291992	70494.242188
1228.185547	70246.546875
1227.078125	70519.109375
1225.970703	70490.937500
1224.863281	70535.171875
1223.755859	71165.078125
1222.647461	70869.226563
1221.539063	70775.210938
1220.430664	69975.273438
1219.322266	70705.648438
1218.213867	70548.148438
1217.104492	70432.335938
1215.995117	70360.375000
1214.885742	70231.492188
1213.776367	70052.281250
1212.666992	69973.859375
1211.556641	70858.718750
1210.446289	70635.703125
1209.335938	70885.468750
1208.225586	70288.375000
1207.115234	70678.117188
1206.003906	70201.562500
1204.892578	70888.585938
1203.781250	70287.539063
1202.669922	70419.031250
1201.557617	70904.546875
1200.446289	70968.132813
1199.333984	70909.335938
1198.221680	70828.710938
1197.108398	71285.398438
1195.996094	71536.648438
1194.882813	71392.632813
1193.769531	71848.953125
1192.656250	71453.945313
1191.542969	72401.046875
1190.428711	72187.156250
1189.314453	72117.304688
1188.200195	71371.398438
1187.085938	72623.085938
1185.971680	72335.171875
1184.856445	72396.109375
1183.741211	72539.835938
1182.625977	72574.554688
1181.510742	72587.484375
1180.395508	72678.812500
1179.279297	72534.914063
1178.163086	73131.343750
1177.046875	72798.015625
1175.930664	73331.062500
1174.813477	73036.984375
1173.697266	73669.859375
1172.580078	73580.304688
1171.462891	73906.187500
1170.344727	73805.734375
1169.227539	74257.546875
1168.109375	74361.398438
1166.991211	73537.187500
1165.873047	73764.984375
1164.754883	73857.992188
1163.635742	72662.875000
1162.516602	72895.039063
1161.397461	72649.414063
1160.278320	72673.070313
1159.159180	72479.664063
1158.039063	72794.148438
1156.918945	73156.242188
1155.798828	72216.578125
1154.678711	72207.742188
1153.558594	72346.375000
1152.437500	71932.062500
1151.316406	72372.007813
1150.195313	72319.796875
1149.074219	71914.375000
1147.952148	71909.921875
1146.831055	72204.406250
1145.708984	72134.914063
1144.586914	71987.500000
1143.463867	71619.296875
1142.341797	72173.359375
1141.218750	72277.054688
1140.095703	72162.164063
1138.972656	71900.195313
1137.849609	72481.914063
1136.725586	72072.914063
1135.601563	71884.609375
1134.477539	71867.164063
1133.353516	71374.195313
1132.229492	71337.390625
1131.104492	70555.156250
1129.979492	70667.570313
1128.854492	70587.710938
1127.729492	70009.023438
1126.603516	70037.257813
1125.478516	70188.531250
1124.352539	69204.460938
1123.226563	69129.242188
1122.099609	69625.789063
1120.973633	69503.054688
1119.846680	68774.320313
1118.719727	68511.617188
1117.592773	67981.664063
1116.465820	68331.375000
1115.337891	68081.820313
1114.209961	68172.804688
1113.082031	67852.265625
1111.954102	67327.218750
1110.826172	66966.031250
1109.697266	66841.820313
1108.568359	66698.281250
1107.439453	66593.531250
1106.310547	66097.148438
1105.180664	65930.148438
1104.051758	66135.367188
1102.921875	66334.054688
1101.791992	66358.476563
1100.661133	66845.156250
1099.531250	66357.851563
1098.400391	65866.429688
1097.269531	65968.273438
1096.138672	66272.031250
1095.006836	65654.140625
1093.875977	65556.226563
1092.744141	65434.714844
1091.612305	64780.816406
1090.480469	64803.304688
1089.347656	64068.203125
1088.215820	64356.878906
1087.083008	64576.796875
1085.950195	64421.265625
1084.816406	64184.296875
1083.683594	64324.781250
1082.549805	63661.300781
1081.416016	63598.203125
1080.282227	63477.269531
1079.148438	63555.632813
1078.013672	63488.296875
1076.878906	63817.218750
1075.744141	63186.664063
1074.609375	63483.398438
1073.474609	63593.785156
1072.338867	63038.519531
1071.203125	62838.664063
1070.067383	63839.113281
1068.931641	63891.589844
1067.794922	63146.320313
1066.659180	62747.722656
1065.522461	63204.421875
1064.385742	62820.917969
1063.248047	63121.421875
1062.111328	63680.355469
1060.973633	63390.960938
1059.835938	63221.285156
1058.698242	63130.679688
1057.559570	63544.003906
1056.421875	63028.550781
1055.283203	63249.640625
1054.144531	62681.078125
1053.005859	63365.132813
1051.866211	63074.066406
1050.726563	63437.871094
1049.587891	63415.574219
1048.447266	63143.839844
1047.307617	63496.765625
1046.167969	63240.027344
1045.027344	63624.765625
1043.886719	62824.824219
1042.746094	63533.261719
1041.604492	63261.785156
1040.463867	63015.957031
1039.322266	62921.367188
1038.180664	62905.566406
1037.038086	63413.277344
1035.896484	63444.195313
1034.753906	63236.835938
1033.611328	63289.039063
1032.468750	63241.269531
1031.326172	63133.984375
1030.182617	62982.093750
1029.040039	62860.011719
1027.896484	62871.847656
1026.751953	63334.085938
1025.608398	63239.613281
1024.463867	63467.992188
1023.319336	63420.238281
1022.174805	63334.285156
1021.030273	62906.613281
1019.885742	63096.671875
1018.740234	63186.933594
1017.594727	63618.714844
1016.449219	62815.863281
1015.303711	63103.339844
1014.157227	63182.917969
1013.010742	62910.558594
1011.864258	62735.796875
1010.717773	62912.871094
1009.571289	62706.382813
1008.423828	62315.671875
1007.276367	62488.484375
1006.128906	63097.445313
1004.981445	62660.292969
1003.833008	63647.902344
1002.684570	63646.785156
1001.536133	64337.601563
1000.387695	64514.062500
999.239258	65045.816406
998.089844	65359.542969
996.941406	65053.613281
995.791992	65153.695313
994.641602	65253.738281
993.492188	64890.929688
992.341797	64762.781250
991.191406	64480.468750
990.041016	64343.988281
988.890625	63939.367188
987.739258	63906.488281
986.588867	63987.613281
985.437500	64005.386719
984.285156	63474.503906
983.133789	64064.113281
981.981445	63387.859375
980.829102	63572.332031
979.676758	63305.484375
978.524414	63481.464844
977.372070	63286.394531
976.218750	63034.492188
975.065430	63037.636719
973.912109	62853.281250
972.757813	63656.847656
971.604492	62924.902344
970.450195	62999.640625
969.295898	63057.507813
968.141602	63542.617188
966.986328	63202.632813
965.832031	62814.378906
964.676758	62903.777344
963.521484	62906.914063
962.365234	63303.269531
961.209961	62660.878906
960.053711	62987.761719
958.897461	63060.218750
957.741211	63029.687500
956.584961	63066.394531
955.427734	63153.492188
954.270508	62782.734375
953.113281	62964.335938
951.956055	63068.195313
950.797852	62997.796875
949.639648	63177.152344
948.481445	62693.414063
947.323242	62761.570313
946.165039	62431.195313
945.005859	62478.398438
943.847656	61886.109375
942.687500	62178.652344
941.528320	62712.105469
940.369141	62331.734375
939.208984	62406.136719
938.048828	61749.460938
936.888672	61880.480469
935.728516	61764.367188
934.567383	62079.562500
933.406250	62051.363281
932.245117	61970.851563
931.083984	62015.910156
929.922852	62362.195313
928.760742	61900.992188
927.598633	62123.781250
926.436523	62271.218750
925.274414	62504.304688
924.111328	62722.675781
922.948242	62125.984375
921.785156	62626.390625
920.622070	62337.003906
919.458984	63010.527344
918.294922	62504.003906
917.130859	63051.976563
915.966797	63157.222656
914.802734	62957.730469
913.637695	63002.441406
912.472656	63093.027344
911.307617	63312.898438
910.142578	63639.039063
908.977539	64206.925781
907.811523	64503.593750
906.645508	63903.906250
905.479492	64150.500000
904.313477	64161.566406
903.146484	63960.144531
901.980469	63852.515625
900.813477	63824.054688
899.646484	63691.503906
898.478516	63821.277344
897.311523	64109.171875
896.143555	63577.117188
894.975586	63296.988281
893.806641	63603.531250
892.638672	64059.691406
891.469727	64151.808594
890.300781	63917.503906
889.131836	63662.496094
887.962891	63397.191406
886.792969	63427.019531
885.623047	63379.972656
884.453125	63216.628906
883.283203	63715.773438
882.112305	63463.144531
880.942383	63395.355469
879.771484	63630.601563
878.600586	63674.855469
877.428711	63822.820313
876.257813	63989.394531
875.085938	64597.644531
873.914063	64627.160156
872.741211	64764.460938
871.569336	64495.453125
870.396484	64203.742188
869.223633	64260.230469
868.050781	64525.925781
866.877930	64124.593750
865.704102	64839.578125
864.530273	64676.429688
863.356445	64856.964844
862.182617	65896.343750
861.007813	65629.617188
859.833984	66374.679688
858.659180	66469.953125
857.484375	66457.632813
856.308594	66317.125000
855.133789	65971.992188
853.958008	65538.101563
852.782227	65397.824219
851.605469	65794.820313
850.429688	65342.601563
849.252930	66005.898438
848.076172	65374.136719
846.899414	65591.203125
845.722656	65756.570313
844.544922	66056.039063
843.367188	66613.328125
842.189453	66413.226563
841.011719	67001.187500
839.833008	67267.187500
838.655273	67091.812500
837.476563	67691.671875
836.296875	68390.250000
835.118164	68810.351563
833.938477	68772.859375
832.758789	68226.539063
831.579102	67237.570313
830.399414	66895.601563
829.219727	66582.585938
828.039063	65528.589844
826.858398	64913.378906
825.677734	64382.765625
824.496094	64239.144531
823.315430	63912.492188
822.133789	63686.738281
820.952148	63512.468750
819.769531	63523.292969
818.587891	63281.285156
817.405273	62990.035156
816.222656	63029.710938
815.040039	63063.203125
813.856445	62743.394531
812.673828	62464.773438
811.490234	62559.941406
810.305664	61977.632813
809.122070	62358.140625
807.938477	62289.101563
806.753906	61727.671875
805.569336	61841.335938
804.383789	61068.949219
803.199219	61525.128906
802.013672	61478.847656
800.828125	61547.367188
799.642578	61115.796875
798.457031	61159.765625
797.270508	61289.753906
796.083984	61112.453125
794.897461	60994.605469
793.710938	60405.867188
792.523438	60425.343750
791.336914	60508.261719
790.149414	60204.378906
788.961914	60291.394531
787.773438	60214.722656
786.585938	59207.500000
785.397461	59861.066406
784.208984	59561.660156
783.019531	59111.105469
781.831055	59237.039063
780.641602	58948.125000
779.452148	59045.437500
778.262695	59136.582031
777.072266	58800.871094
775.882813	58579.625000
774.692383	58621.800781
773.501953	58819.082031
772.310547	58612.230469
771.120117	58703.335938
769.928711	58606.734375
768.737305	59232.164063
767.544922	58362.652344
766.353516	59222.343750
765.161133	59515.042969
763.968750	59177.878906
762.776367	59633.394531
761.583984	60088.910156
760.390625	59920.878906
759.197266	60178.539063
758.003906	60041.093750
756.810547	60325.093750
755.616211	60600.843750
754.421875	60705.550781
753.227539	60533.507813
752.033203	60884.324219
750.838867	60842.472656
749.643555	60540.351563
748.448242	60356.257813
747.252930	60088.890625
746.057617	60175.246094
744.861328	59790.152344
743.665039	59762.753906
742.468750	59140.226563
741.272461	59066.250000
740.075195	58846.101563
738.878906	58467.691406
737.681641	58773.421875
736.484375	58847.695313
735.286133	58717.015625
734.087891	58736.496094
732.890625	58932.414063
731.691406	58359.726563
730.493164	58474.542969
729.294922	58883.234375
728.095703	58710.117188
726.896484	58727.535156
725.696289	58305.320313
724.497070	58322.800781
723.296875	58378.750000
722.096680	58280.792969
720.896484	58674.792969
719.696289	58783.261719
718.495117	58302.808594
717.293945	58726.925781
716.092773	58309.367188
714.891602	58225.675781
713.689453	58934.679688
712.487305	58579.980469
711.285156	58793.417969
710.083008	58883.488281
708.880859	59129.113281
707.677734	58619.074219
706.474609	58593.988281
705.271484	58476.015625
704.068359	59151.585938
702.864258	58524.828125
701.660156	58429.125000
700.456055	58545.343750
699.251953	59272.847656
698.046875	58868.414063
696.841797	59278.937500
695.636719	59348.519531
694.431641	59317.269531
693.226563	59884.691406
692.020508	59827.148438
690.814453	60079.925781
689.608398	60068.695313
688.402344	59878.207031
687.195313	59919.371094
685.988281	60572.609375
684.781250	60412.316406
683.574219	60523.796875
682.366211	60727.796875
681.158203	60579.632813
679.950195	60861.992188
678.742188	60794.296875
677.534180	60909.609375
676.325195	60777.589844
675.116211	60748.128906
673.907227	61283.402344
672.697266	61683.847656
671.488281	61172.082031
670.278320	61078.285156
669.068359	61020.667969
667.858398	60934.960938
666.647461	60977.757813
665.436523	60326.097656
664.225586	60387.046875
663.014648	60002.570313
661.802734	59570.093750
660.591797	59492.761719
659.379883	59255.039063
658.167969	59506.574219
656.955078	59118.601563
655.743164	59271.863281
654.530273	59212.675781
653.317383	58905.101563
652.103516	58339.257813
650.890625	58728.839844
649.676758	58715.839844
648.462891	58738.871094
647.249023	58533.730469
646.034180	58508.757813
644.819336	58689.863281
643.604492	58434.828125
642.389648	58387.882813
641.174805	58276.960938
639.958984	58833.808594
638.743164	58630.898438
637.527344	58254.195313
636.311523	58842.695313
635.094727	58577.957031
633.877930	58924.496094
632.661133	58280.421875
631.444336	58511.078125
630.226563	58334.425781
629.008789	58441.242188
627.791016	58021.218750
626.573242	57906.593750
625.355469	58212.890625
624.136719	58068.351563
622.917969	58183.078125
621.699219	57978.789063
620.480469	57872.242188
619.260742	57691.996094
618.041016	57940.187500
616.821289	58156.414063
615.601563	57872.640625
614.380859	57748.273438
613.160156	57715.535156
611.939453	57780.347656
610.718750	58060.070313
609.497070	57748.710938
608.276367	57990.531250
607.054688	57705.152344
605.832031	58096.035156
604.610352	57446.875000
603.387695	57986.753906
602.165039	57705.554688
600.942383	58020.621094
599.719727	57656.066406
598.496094	58080.273438
597.272461	57723.785156
596.048828	58123.988281
594.825195	58331.457031
593.600586	57320.074219
592.375977	57672.488281
591.151367	57683.476563
589.926758	57527.820313
588.701172	57431.718750
587.476563	57349.535156
586.250977	57199.964844
585.024414	57228.863281
583.798828	57083.332031
582.572266	57857.324219
581.345703	57291.699219
580.119141	57387.894531
578.892578	57573.175781
577.665039	57520.769531
576.437500	57137.757813
575.209961	57744.582031
573.982422	57510.097656
572.753906	57263.824219
571.525391	57528.031250
570.296875	57303.597656
569.068359	57793.132813
567.838867	57390.785156
566.610352	57712.089844
565.380859	57260.492188
564.150391	57530.316406
562.920898	57912.648438
561.690430	57976.812500
560.459961	58076.496094
559.229492	57725.945313
557.999023	57616.371094
556.767578	57735.796875
555.536133	57383.527344
554.304688	57550.300781
553.073242	57434.914063
551.840820	57731.781250
550.608398	57736.687500
549.375977	57497.113281
548.143555	57695.234375
546.910156	57388.742188
545.676758	57742.472656
544.443359	57286.355469
543.209961	57316.929688
541.975586	57719.695313
540.742188	57354.406250
539.507813	57556.210938
538.272461	57661.492188
537.038086	57739.183594
535.802734	57783.394531
534.567383	57658.410156
533.332031	57948.460938
532.096680	57593.421875
530.860352	57932.515625
529.624023	57988.429688
528.387695	57452.769531
527.151367	58202.355469
525.914063	58069.582031
524.676758	57864.183594
523.439453	58149.804688
522.202148	57861.996094
520.963867	57739.191406
519.725586	58073.734375
518.487305	57707.605469
517.249023	57930.191406
516.009766	58003.609375
514.771484	57976.980469
513.532227	58036.632813
512.291992	57619.867188
511.052734	57965.734375
509.812500	57837.210938
508.572266	57963.453125
507.332031	58007.367188
506.090820	58049.300781
504.850586	58057.925781
503.609375	58442.460938
502.368164	58204.355469
501.125977	57919.371094
499.884766	58205.863281
498.642578	58476.597656
497.400391	58625.949219
496.157227	58753.730469
494.915039	58701.574219
493.671875	58573.195313
492.428711	58333.449219
491.184570	58885.234375
489.941406	58909.281250
488.697266	59099.359375
487.453125	59230.769531
486.208984	58799.746094
484.963867	59161.535156
483.718750	59097.652344
482.473633	58807.406250
481.228516	59104.589844
479.982422	59409.457031
478.737305	59378.722656
477.491211	59361.652344
476.244141	59637.042969
474.998047	59641.367188
473.750977	59242.238281
472.503906	59266.113281
471.256836	59613.390625
470.009766	59830.023438
468.761719	59594.742188
467.513672	59784.031250
466.265625	60306.148438
465.017578	60236.351563
463.768555	60324.207031
462.519531	60816.730469
461.270508	61001.707031
460.021484	61058.238281
458.771484	61513.390625
457.521484	61581.464844
456.271484	61818.625000
455.021484	61820.531250
453.770508	61975.941406
452.519531	62273.109375
451.268555	62278.804688
450.017578	62830.203125
448.765625	63051.308594
447.514648	63695.527344
446.262695	64263.800781
445.009766	64515.550781
443.757813	64565.421875
442.504883	65185.574219
441.251953	64771.765625
439.999023	64592.738281
438.745117	64283.878906
437.492188	63296.714844
436.238281	62381.628906
434.983398	62338.808594
433.729492	61745.824219
432.474609	61780.613281
431.219727	61602.367188
429.964844	61441.609375
428.709961	61048.621094
427.454102	60829.960938
426.198242	60421.750000
424.942383	61251.882813
423.685547	60524.578125
422.429688	60567.253906
421.172852	60302.472656
419.916016	60528.824219
418.658203	60673.910156
417.401367	60936.816406
416.143555	60306.988281
414.885742	60270.437500
413.626953	60981.343750
412.369141	60272.683594
411.110352	61062.468750
409.851563	60531.640625
408.591797	60126.457031
407.333008	60458.507813
406.073242	60188.527344
404.813477	60352.632813
403.553711	60597.664063
402.292969	60196.691406
401.032227	60341.414063
