#Wave		#Intensity
2001.182617	33682.304688
2000.212891	33724.914063
1999.243164	33816.765625
1998.273438	33665.535156
1997.303711	33496.820313
1996.333008	33781.523438
1995.363281	33485.125000
1994.392578	33819.804688
1993.421875	33811.398438
1992.451172	33787.972656
1991.479492	33982.277344
1990.508789	33693.601563
1989.537109	33812.800781
1988.566406	33866.925781
1987.594727	33986.050781
1986.622070	33642.566406
1985.650391	33989.179688
1984.677734	33953.246094
1983.706055	34169.734375
1982.733398	34053.824219
1981.760742	33680.640625
1980.788086	33942.015625
1979.814453	34003.511719
1978.841797	34037.519531
1977.868164	33619.656250
1976.894531	33768.535156
1975.920898	33874.933594
1974.947266	33469.792969
1973.972656	34090.113281
1972.999023	34144.015625
1972.024414	33786.417969
1971.049805	33705.710938
1970.075195	34318.070313
1969.099609	33828.519531
1968.125000	33737.875000
1967.149414	34063.367188
1966.173828	33945.304688
1965.198242	33859.664063
1964.222656	33928.453125
1963.247070	33778.105469
1962.270508	34036.082031
1961.294922	34119.734375
1960.318359	33949.519531
1959.341797	34135.171875
1958.364258	34213.781250
1957.387695	34056.074219
1956.410156	34077.468750
1955.433594	33947.187500
1954.456055	33879.097656
1953.478516	33947.738281
1952.500000	34053.628906
1951.522461	33906.042969
1950.543945	34312.492188
1949.565430	34130.136719
1948.586914	34235.917969
1947.608398	34170.335938
1946.629883	34397.710938
1945.650391	34262.621094
1944.671875	34331.074219
1943.692383	34263.031250
1942.712891	34363.707031
1941.733398	34231.195313
1940.752930	34292.160156
1939.773438	34511.785156
1938.792969	34312.378906
1937.812500	33825.519531
1936.832031	34097.152344
1935.851563	34388.511719
1934.870117	34179.347656
1933.888672	34220.421875
1932.908203	34075.750000
1931.926758	34827.437500
1930.945313	34657.949219
1929.962891	34364.761719
1928.981445	34259.753906
1927.999023	34508.601563
1927.016602	34188.378906
1926.034180	34511.351563
1925.051758	34572.074219
1924.069336	34603.101563
1923.085938	34325.109375
1922.102539	34625.578125
1921.119141	34626.925781
1920.135742	34307.062500
1919.152344	34397.394531
1918.168945	34295.039063
1917.184570	34175.429688
1916.200195	34270.671875
1915.215820	34274.539063
1914.231445	34544.968750
1913.247070	34504.363281
1912.261719	34508.179688
1911.276367	34571.203125
1910.291992	34350.558594
1909.306641	34093.000000
1908.320313	34294.132813
1907.334961	34423.703125
1906.348633	34585.265625
1905.363281	34391.914063
1904.376953	34422.839844
1903.390625	34547.363281
1902.403320	34479.726563
1901.416992	34710.085938
1900.429688	34241.113281
1899.443359	34697.906250
1898.456055	34472.765625
1897.467773	34535.621094
1896.480469	34399.156250
1895.493164	34289.800781
1894.504883	34362.488281
1893.516602	34422.855469
1892.528320	34785.617188
1891.540039	34214.113281
1890.550781	34606.273438
1889.562500	34973.726563
1888.573242	34630.980469
1887.583984	34691.226563
1886.594727	34481.281250
1885.605469	34846.031250
1884.615234	34302.214844
1883.625000	34924.625000
1882.635742	34447.250000
1881.645508	34902.542969
1880.654297	34741.843750
1879.664063	34620.445313
1878.673828	34697.757813
1877.682617	34608.285156
1876.691406	34587.496094
1875.700195	34554.457031
1874.708984	34815.539063
1873.716797	34939.296875
1872.725586	34474.996094
1871.733398	34686.957031
1870.741211	34673.515625
1869.749023	35064.125000
1868.755859	34463.011719
1867.763672	34726.226563
1866.770508	34592.855469
1865.777344	34557.410156
1864.784180	34866.953125
1863.791016	34714.050781
1862.797852	34676.156250
1861.803711	34939.046875
1860.809570	35028.257813
1859.815430	35117.433594
1858.821289	34832.636719
1857.827148	34760.535156
1856.832031	34988.968750
1855.837891	35285.718750
1854.842773	35140.300781
1853.847656	35107.261719
1852.852539	34900.886719
1851.856445	35121.765625
1850.861328	35044.808594
1849.865234	34919.074219
1848.869141	35371.609375
1847.873047	35219.027344
1846.876953	35337.214844
1845.879883	35665.066406
1844.883789	35402.796875
1843.886719	35218.625000
1842.889648	35573.128906
1841.892578	35491.332031
1840.895508	35436.359375
1839.897461	35371.660156
1838.899414	35440.933594
1837.901367	35719.597656
1836.903320	35632.968750
1835.905273	35792.218750
1834.907227	35381.914063
1833.908203	35930.484375
1832.909180	35739.257813
1831.910156	35961.621094
1830.911133	35434.832031
1829.912109	35574.488281
1828.912109	36117.671875
1827.913086	35812.328125
1826.913086	35888.652344
1825.913086	35646.632813
1824.913086	35543.175781
1823.912109	36146.605469
1822.912109	36118.382813
1821.911133	36114.449219
1820.910156	36013.402344
1819.909180	36036.187500
1818.908203	35891.503906
1817.906250	35931.285156
1816.904297	36123.890625
1815.903320	36085.992188
1814.900391	35730.402344
1813.898438	36356.972656
1812.896484	35972.367188
1811.893555	36205.996094
1810.891602	36061.476563
1809.888672	36348.308594
1808.885742	36220.769531
1807.881836	36204.699219
1806.878906	35999.730469
1805.875000	36334.792969
1804.871094	36279.968750
1803.867188	36438.167969
1802.863281	36526.125000
1801.859375	36684.218750
1800.854492	36651.140625
1799.849609	36492.292969
1798.844727	36618.867188
1797.839844	36721.214844
1796.834961	36676.058594
1795.830078	36563.238281
1794.824219	36752.539063
1793.818359	36576.917969
1792.812500	36867.609375
1791.806641	37020.519531
1790.799805	37013.988281
1789.793945	36988.140625
1788.787109	36851.253906
1787.780273	37040.257813
1786.773438	36963.738281
1785.766602	37220.214844
1784.758789	37097.847656
1783.751953	37226.371094
1782.744141	37108.871094
1781.736328	37181.886719
1780.728516	37541.750000
1779.719727	37012.093750
1778.711914	37123.640625
1777.703125	37201.417969
1776.694336	37626.058594
1775.685547	37147.335938
1774.676758	37475.507813
1773.666992	37502.597656
1772.657227	37505.605469
1771.648438	37730.042969
1770.638672	37785.945313
1769.627930	37625.285156
1768.618164	37710.054688
1767.607422	37907.832031
1766.597656	37982.894531
1765.586914	38170.933594
1764.576172	37858.898438
1763.564453	37924.312500
1762.553711	38494.343750
1761.541992	38309.746094
1760.530273	38050.746094
1759.518555	38257.781250
1758.506836	38414.312500
1757.495117	38611.601563
1756.482422	39053.667969
1755.469727	38897.960938
1754.457031	38747.105469
1753.444336	38948.988281
1752.431641	38627.863281
1751.417969	38803.308594
1750.405273	39194.507813
1749.391602	39177.988281
1748.377930	39115.929688
1747.364258	39310.332031
1746.349609	39281.816406
1745.335938	39162.265625
1744.321289	39196.058594
1743.306641	39169.968750
1742.291992	39299.531250
1741.276367	39780.984375
1740.261719	39254.511719
1739.246094	39470.140625
1738.230469	39843.625000
1737.214844	39755.234375
1736.199219	39977.832031
1735.182617	39889.445313
1734.166992	40544.742188
1733.150391	40585.382813
1732.133789	40465.855469
1731.117188	40506.492188
1730.099609	40838.628906
1729.083008	40711.949219
1728.065430	41258.906250
1727.047852	41067.710938
1726.030273	41619.183594
1725.012695	41864.875000
1723.994141	41972.039063
1722.976563	42064.839844
1721.958008	42052.621094
1720.939453	42753.722656
1719.920898	42440.835938
1718.901367	42760.042969
1717.882813	42833.542969
1716.863281	43293.218750
1715.843750	43256.945313
1714.824219	43282.648438
1713.803711	43727.699219
1712.784180	43293.523438
1711.763672	43631.222656
1710.743164	43368.679688
1709.722656	44170.546875
1708.702148	43496.148438
1707.681641	43824.050781
1706.660156	43647.320313
1705.638672	43718.105469
1704.617188	43781.722656
1703.595703	43854.835938
1702.574219	44020.660156
1701.551758	43710.898438
1700.529297	43657.980469
1699.507813	43524.269531
1698.484375	43987.082031
1697.461914	44086.203125
1696.439453	43838.457031
1695.416016	43740.429688
1694.392578	44240.859375
1693.369141	44437.203125
1692.345703	44467.308594
1691.322266	44065.429688
1690.297852	44204.742188
1689.273438	44384.335938
1688.249023	44184.316406
1687.224609	44494.296875
1686.200195	44609.714844
1685.174805	44808.070313
1684.150391	44707.671875
1683.125000	44943.859375
1682.099609	45163.375000
1681.073242	44861.574219
1680.047852	45393.703125
1679.021484	45316.964844
1677.995117	45204.734375
1676.968750	45511.597656
1675.942383	45886.996094
1674.916016	45299.003906
1673.888672	46104.972656
1672.862305	45363.363281
1671.834961	45946.675781
1670.806641	45728.031250
1669.779297	45861.789063
1668.751953	46331.214844
1667.723633	45828.960938
1666.695313	46619.636719
1665.666992	46351.437500
1664.638672	46659.781250
1663.609375	46868.808594
1662.581055	46758.933594
1661.551758	46195.730469
1660.522461	46881.613281
1659.493164	47109.328125
1658.462891	47157.601563
1657.433594	47057.199219
1656.403320	46949.753906
1655.373047	46972.078125
1654.342773	46980.238281
1653.312500	47325.578125
1652.281250	47062.558594
1651.250977	47428.968750
1650.219727	47361.625000
1649.188477	47058.679688
1648.156250	47099.785156
1647.125000	47381.128906
1646.092773	47511.652344
1645.060547	47425.503906
1644.028320	47306.429688
1642.996094	46952.023438
1641.963867	47983.832031
1640.930664	47998.832031
1639.898438	47818.566406
1638.865234	47927.664063
1637.832031	48079.054688
1636.797852	48425.535156
1635.764648	48257.070313
1634.730469	48304.894531
1633.696289	48646.449219
1632.662109	48257.167969
1631.627930	48709.011719
1630.592773	48759.066406
1629.558594	48787.964844
1628.523438	48875.546875
1627.488281	48883.281250
1626.453125	49698.390625
1625.416992	49670.773438
1624.381836	49622.050781
1623.345703	49852.488281
1622.309570	52235.886719
1621.273438	52824.511719
1620.237305	53413.136719
1619.200195	54002.316406
1618.163086	54591.496094
1617.125977	55180.675781
1616.088867	55769.855469
1615.051758	56359.035156
1614.014648	56948.214844
1612.976563	57537.949219
1611.938477	58260.496094
1610.900391	58765.089844
1609.862305	58600.160156
1608.823242	58416.570313
1607.785156	57397.832031
1606.746094	57085.863281
1605.707031	55646.753906
1604.667969	54757.652344
1603.628906	54539.828125
1602.588867	53543.714844
1601.548828	52094.566406
1600.508789	52169.402344
1599.468750	51456.914063
1598.428711	51419.714844
1597.387695	51041.566406
1596.347656	50451.070313
1595.306641	49989.179688
1594.265625	50290.707031
1593.224609	49611.972656
1592.182617	49628.796875
1591.140625	49617.617188
1590.099609	49695.070313
1589.057617	49800.480469
1588.014648	49253.000000
1586.972656	48789.636719
1585.929688	49424.230469
1584.887695	48926.042969
1583.844727	49168.949219
1582.800781	49055.351563
1581.757813	49095.515625
1580.714844	49040.183594
1579.670898	49240.984375
1578.626953	49220.562500
1577.583008	49337.464844
1576.538086	49258.851563
1575.494141	49615.343750
1574.449219	48941.195313
1573.404297	49839.523438
1572.359375	50021.312500
1571.314453	50075.160156
1570.269531	49333.988281
1569.223633	49339.128906
1568.177734	49344.265625
1567.131836	48852.210938
1566.085938	48327.808594
1565.040039	48386.535156
1563.993164	48377.898438
1562.946289	48116.199219
1561.899414	47801.207031
1560.852539	47553.628906
1559.805664	47772.539063
1558.757813	47362.648438
1557.709961	47634.859375
1556.662109	47139.328125
1555.614258	47174.964844
1554.566406	47298.687500
1553.517578	47167.386719
1552.469727	47307.285156
1551.420898	47236.273438
1550.372070	47290.382813
1549.322266	47525.144531
1548.273438	47002.535156
1547.223633	46716.281250
1546.173828	47351.511719
1545.124023	46484.332031
1544.074219	46448.253906
1543.024414	47041.539063
1541.973633	46792.539063
1540.922852	47080.234375
1539.872070	47108.820313
1538.821289	46987.105469
1537.770508	47159.019531
1536.718750	47226.863281
1535.666992	47121.363281
1534.615234	46831.058594
1533.563477	47012.113281
1532.511719	46855.886719
1531.458984	46969.898438
1530.407227	46829.898438
1529.354492	46874.617188
1528.300781	46766.988281
1527.248047	47116.300781
1526.195313	46579.531250
1525.141602	46820.328125
1524.087891	46675.878906
1523.034180	46508.417969
1521.980469	46456.292969
1520.925781	46560.933594
1519.871094	46430.453125
1518.817383	46657.183594
1517.762695	46305.554688
1516.707031	46670.429688
1515.652344	45952.738281
1514.596680	45893.855469
1513.541016	46295.437500
1512.485352	45994.820313
1511.429688	46212.125000
1510.374023	46093.406250
1509.317383	46126.566406
1508.260742	45911.292969
1507.204102	45942.167969
1506.147461	45816.675781
1505.090820	45769.390625
1504.033203	45938.179688
1502.975586	45966.722656
1501.917969	45861.988281
1500.860352	45936.476563
1499.802734	45944.324219
1498.744141	45830.460938
1497.686523	45856.691406
1496.627930	45931.117188
1495.569336	46026.175781
1494.509766	46070.710938
1493.451172	45881.199219
1492.391602	46125.316406
1491.332031	45961.085938
1490.272461	46411.484375
1489.212891	45731.390625
1488.152344	45548.976563
1487.092773	45669.160156
1486.032227	45482.234375
1484.971680	45765.054688
1483.910156	45951.558594
1482.849609	46025.773438
1481.788086	45948.824219
1480.726563	45954.324219
1479.665039	45852.234375
1478.603516	46397.867188
1477.541992	46137.839844
1476.479492	46308.015625
1475.416992	46324.871094
1474.354492	46202.214844
1473.291992	46372.281250
1472.229492	46338.816406
1471.166016	46083.640625
1470.102539	45858.261719
1469.039063	46590.363281
1467.975586	46449.500000
1466.912109	46342.949219
1465.847656	46423.699219
1464.783203	46536.386719
1463.718750	47032.558594
1462.654297	47122.265625
1461.589844	47154.886719
1460.524414	46968.453125
1459.458984	46750.144531
1458.393555	47403.203125
1457.328125	47317.160156
1456.262695	46695.332031
1455.196289	47375.398438
1454.130859	47649.519531
1453.064453	47116.835938
1451.998047	47172.171875
1450.930664	47140.917969
1449.864258	47710.960938
1448.796875	47763.878906
1447.729492	47941.996094
1446.662109	48233.863281
1445.594727	48049.953125
1444.526367	48400.855469
1443.458008	48369.410156
1442.390625	48613.214844
1441.321289	48677.261719
1440.252930	49448.468750
1439.184570	49412.300781
1438.115234	49608.000000
1437.045898	50449.070313
1435.976563	50210.503906
1434.907227	50576.339844
1433.836914	50530.906250
1432.767578	51105.484375
1431.697266	51430.082031
1430.626953	51386.785156
1429.555664	50871.375000
1428.485352	50898.539063
1427.414063	51585.976563
1426.342773	51683.324219
1425.271484	51447.210938
1424.200195	52007.175781
1423.128906	52138.402344
1422.056641	52065.546875
1420.984375	52733.886719
1419.912109	52529.511719
1418.839844	52474.750000
1417.767578	52286.347656
1416.694336	52263.355469
1415.621094	52586.835938
1414.547852	51954.742188
1413.474609	51872.957031
1412.400391	51349.855469
1411.327148	51618.949219
1410.252930	51184.312500
1409.178711	51118.550781
1408.104492	51161.367188
1407.029297	51407.683594
1405.955078	51825.734375
1404.879883	51217.386719
1403.804688	52089.585938
1402.729492	52077.949219
1401.653320	52533.972656
1400.578125	52452.234375
1399.501953	52219.207031
1398.425781	52546.246094
1397.349609	52383.269531
1396.272461	52351.261719
1395.196289	52305.726563
1394.119141	52145.128906
1393.041992	52216.953125
1391.964844	52929.332031
1390.886719	52664.960938
1389.809570	52590.085938
1388.731445	52812.812500
1387.653320	53073.769531
1386.575195	53055.195313
1385.497070	53795.929688
1384.417969	53822.281250
1383.338867	54058.085938
1382.259766	53629.484375
1381.180664	53984.566406
1380.101563	54197.695313
1379.021484	53704.023438
1377.941406	53570.644531
1376.861328	53437.265625
1375.781250	53303.890625
1374.701172	53170.511719
1373.620117	53221.640625
1372.539063	53128.859375
1371.458008	52635.988281
1370.376953	52480.414063
1369.295898	52318.148438
1368.213867	52569.324219
1367.132813	52085.886719
1366.050781	52146.113281
1364.967773	52172.632813
1363.885742	52205.878906
1362.802734	52093.207031
1361.720703	52182.554688
1360.637695	52182.117188
1359.554688	51782.347656
1358.470703	51701.226563
1357.387695	51830.941406
1356.303711	51402.296875
1355.219727	51097.105469
1354.135742	51081.156250
1353.050781	50959.890625
1351.966797	51143.378906
1350.881836	50751.078125
1349.796875	50365.636719
1348.711914	50540.171875
1347.626953	50345.214844
1346.541016	50425.667969
1345.455078	50506.085938
1344.369141	50443.261719
1343.283203	50156.722656
1342.197266	50568.207031
1341.110352	50554.601563
1340.023438	50317.386719
1338.936523	50616.828125
1337.849609	51086.042969
1336.762695	51043.292969
1335.674805	50756.992188
1334.586914	50761.226563
1333.499023	50506.347656
1332.411133	51001.949219
1331.323242	50697.988281
1330.234375	51070.585938
1329.145508	51344.832031
1328.056641	51505.160156
1326.967773	52082.679688
1325.878906	51602.550781
1324.789063	51956.792969
1323.699219	52306.441406
1322.609375	52517.722656
1321.519531	52472.562500
1320.429688	52777.343750
1319.338867	52999.562500
1318.248047	53210.558594
1317.157227	54312.535156
1316.066406	54356.167969
1314.975586	54660.324219
1313.883789	53978.050781
1312.791992	54395.687500
1311.700195	54285.695313
1310.608398	55168.199219
1309.516602	54733.273438
1308.423828	54178.386719
1307.331055	54197.496094
1306.238281	54650.207031
1305.145508	54553.609375
1304.051758	54372.582031
1302.958984	54384.964844
1301.865234	54395.121094
1300.771484	54338.625000
1299.677734	55315.011719
1298.583008	55564.832031
1297.489258	55834.546875
1296.394531	56450.484375
1295.299805	57035.121094
1294.204102	56873.886719
1293.109375	57469.324219
1292.013672	56922.066406
1290.917969	56973.863281
1289.822266	56544.417969
1288.726563	56312.457031
1287.630859	55916.535156
1286.534180	55403.285156
1285.437500	55827.585938
1284.340820	54935.667969
1283.244141	54732.992188
1282.146484	54029.847656
1281.048828	54243.714844
1279.951172	53576.332031
1278.853516	53739.281250
1277.755859	53738.398438
1276.658203	53535.144531
1275.559570	53331.707031
1274.460938	53128.273438
1273.362305	52924.839844
1272.262695	52721.222656
1271.164063	52439.738281
1270.064453	52549.593750
1268.964844	51914.644531
1267.865234	52042.226563
1266.765625	52209.523438
1265.665039	52047.652344
1264.564453	51565.621094
1263.463867	51697.582031
1262.363281	51732.355469
1261.262695	51652.343750
1260.161133	51272.238281
1259.059570	51719.660156
1257.958008	51317.613281
1256.856445	51647.964844
1255.754883	51488.640625
1254.652344	51014.093750
1253.549805	51104.035156
1252.447266	50942.687500
1251.344727	50627.148438
1250.242188	51426.523438
1249.138672	51251.984375
1248.035156	50656.851563
1246.931641	50826.015625
1245.828125	51186.656250
1244.724609	51285.222656
1243.620117	50888.578125
1242.515625	50848.535156
1241.411133	51074.699219
1240.306641	51045.203125
1239.201172	51015.683594
1238.096680	50986.187500
1236.991211	50956.667969
1235.885742	50927.148438
1234.779297	50897.597656
1233.673828	50868.078125
1232.567383	50838.531250
1231.460938	50808.984375
1230.354492	51282.871094
1229.248047	51618.261719
1228.140625	51946.941406
1227.033203	52088.945313
1225.926758	51734.960938
1224.818359	51833.066406
1223.710938	52391.789063
1222.602539	52064.253906
1221.495117	51991.203125
1220.386719	51905.019531
1219.278320	52145.472656
1218.168945	51581.519531
1217.060547	51819.746094
1215.951172	51420.363281
1214.841797	51430.730469
1213.731445	51776.160156
1212.622070	51832.433594
1211.511719	51965.308594
1210.402344	52205.382813
1209.291992	51926.714844
1208.180664	52330.804688
1207.070313	52332.226563
1205.958984	52539.242188
1204.847656	52415.972656
1203.736328	52850.281250
1202.625000	52556.484375
1201.512695	52393.925781
1200.401367	53061.816406
1199.289063	53178.882813
1198.176758	53040.324219
1197.063477	53412.878906
1195.951172	53658.644531
1194.837891	53520.070313
1193.724609	53575.812500
1192.611328	53476.582031
1191.498047	54125.828125
1190.383789	53939.261719
1189.269531	53693.863281
1188.155273	53452.917969
1187.041016	53347.246094
1185.926758	53117.347656
1184.811523	52872.269531
1183.696289	52703.554688
1182.581055	53205.992188
1181.465820	53037.273438
1180.350586	52563.683594
1179.234375	52994.000000
1178.118164	52503.167969
1177.001953	52175.777344
1175.885742	52357.804688
1174.768555	52378.730469
1173.652344	52367.011719
1172.535156	52063.800781
1171.417969	51634.558594
1170.299805	52349.261719
1169.182617	52311.457031
1168.064453	51706.324219
1166.946289	51864.246094
1165.828125	52091.644531
1164.709961	51402.144531
1163.590820	52131.300781
1162.471680	51355.171875
1161.352539	51556.429688
1160.233398	51638.210938
1159.114258	51774.222656
1157.994141	51541.253906
1156.874023	51833.453125
1155.753906	51895.589844
1154.633789	51799.367188
1153.513672	51900.515625
1152.392578	51496.441406
1151.271484	51285.445313
1150.150391	52041.175781
1149.029297	51979.675781
1147.907227	51816.363281
1146.786133	52034.359375
1145.664063	52204.628906
1144.541992	52331.523438
1143.418945	52200.730469
1142.296875	52314.589844
1141.173828	52426.238281
1140.050781	52897.039063
1138.927734	53006.375000
1137.803711	52977.230469
1136.680664	53196.800781
1135.556641	53204.386719
1134.432617	53036.855469
1133.308594	52653.242188
1132.183594	53043.425781
1131.059570	52694.511719
1129.934570	52604.960938
1128.809570	52569.433594
1127.684570	53078.109375
1126.558594	52874.097656
1125.432617	53255.164063
1124.307617	52636.792969
1123.180664	52506.335938
1122.054688	52671.500000
1120.928711	52901.320313
1119.801758	52781.660156
1118.674805	52728.890625
1117.547852	52350.585938
1116.419922	52231.085938
1115.292969	52702.140625
1114.165039	52162.437500
1113.037109	52417.890625
1111.909180	52143.371094
1110.780273	52375.039063
1109.652344	52287.953125
1108.523438	52063.113281
1107.394531	52404.433594
1106.264648	52433.589844
1105.135742	52462.730469
1104.005859	52382.148438
1102.875977	52385.472656
1101.746094	52223.210938
1100.616211	52819.968750
1099.485352	52565.250000
1098.355469	52415.933594
1097.224609	52711.484375
1096.092773	52276.445313
1094.961914	52707.234375
1093.830078	52497.855469
1092.699219	52258.492188
1091.567383	52111.527344
1090.434570	52181.414063
1089.302734	52654.738281
1088.169922	52190.207031
1087.037109	52300.792969
1085.904297	52535.742188
1084.771484	52069.339844
1083.637695	52250.636719
1082.504883	52146.746094
1081.371094	52240.082031
1080.236328	52065.507813
1079.102539	52518.769531
1077.968750	52344.207031
1076.833984	52471.695313
1075.699219	52254.371094
1074.564453	52465.324219
1073.428711	52293.027344
1072.292969	52493.191406
1071.158203	52500.691406
1070.022461	52343.453125
1068.885742	52693.222656
1067.750000	52655.765625
1066.613281	52787.246094
1065.476563	52734.816406
1064.339844	52624.691406
1063.203125	53164.277344
1062.065430	53026.332031
1060.927734	52753.847656
1059.790039	52900.101563
1058.652344	52894.675781
1057.514648	52259.386719
1056.375977	52830.453125
1055.237305	52400.300781
1054.098633	52885.773438
1052.959961	52844.070313
1051.820313	53305.812500
1050.681641	52899.339844
1049.541992	52889.640625
1048.402344	52992.933594
1047.261719	52910.742188
1046.122070	52856.281250
1044.981445	53031.968750
1043.840820	53024.367188
1042.700195	52720.695313
1041.558594	53279.640625
1040.417969	53220.890625
1039.276367	53421.882813
1038.134766	52845.906250
1036.992188	52842.593750
1035.850586	52890.343750
1034.708008	52497.718750
1033.565430	52860.292969
1032.422852	52810.187500
1031.280273	52570.871094
1030.136719	52414.542969
1028.994141	52829.992188
1027.850586	52911.667969
1026.706055	52780.851563
1025.562500	52983.578125
1024.417969	52937.742188
1023.273438	52758.148438
1022.128906	52580.742188
1020.984375	52974.382813
1019.839844	52820.339844
1018.694336	53156.500000
1017.548828	53017.324219
1016.403320	53270.597656
1015.256836	53167.500000
1014.111328	53055.960938
1012.964844	53073.769531
1011.818359	53153.035156
1010.671875	53230.152344
1009.524414	53131.382813
1008.377930	52799.628906
1007.230469	52927.593750
1006.083008	53182.558594
1004.934570	53291.343750
1003.787109	53237.097656
1002.638672	53625.191406
1001.490234	53970.820313
1000.341797	54180.921875
999.193359	54393.058594
998.043945	54651.640625
996.894531	54603.527344
995.745117	54542.750000
994.595703	54169.167969
993.446289	54391.664063
992.295898	54514.773438
991.145508	54496.292969
989.995117	54591.875000
988.844727	54205.941406
987.693359	54607.679688
986.541992	54774.953125
985.390625	55615.429688
984.239258	54292.667969
983.087891	54772.144531
981.935547	55280.976563
980.783203	54931.253906
979.630859	55247.976563
978.478516	55216.726563
977.325195	55059.011719
976.172852	55405.035156
975.019531	55253.660156
973.865234	54965.406250
972.711914	55168.019531
971.557617	54983.070313
970.404297	54621.324219
969.250000	54710.207031
968.094727	54723.281250
966.940430	54450.156250
965.785156	54722.058594
964.629883	54707.773438
963.474609	54670.351563
962.319336	55177.570313
961.163086	54828.914063
960.007813	55020.605469
958.851563	54737.253906
957.694336	54842.738281
956.538086	54897.757813
955.380859	54961.156250
954.223633	54759.917969
953.066406	54812.816406
951.909180	55377.925781
950.751953	54767.421875
949.593750	55391.085938
948.435547	55244.492188
947.277344	54961.597656
946.118164	54735.429688
944.959961	54905.679688
943.800781	55033.929688
942.641602	54789.003906
941.482422	54986.386719
940.322266	55154.359375
939.162109	55368.355469
938.001953	54985.289063
936.841797	55662.074219
935.681641	55381.691406
934.520508	55185.148438
933.360352	55564.289063
932.198242	55206.640625
931.037109	55755.113281
929.875977	55512.613281
928.713867	55291.117188
927.551758	55711.699219
926.389648	55684.691406
925.227539	56006.789063
924.064453	55839.695313
922.901367	55612.062500
921.738281	55491.062500
920.575195	55357.574219
919.412109	55758.785156
918.248047	55875.867188
917.083984	56095.195313
915.919922	56404.199219
914.755859	56437.609375
913.590820	56034.910156
912.426758	56579.484375
911.261719	56938.218750
910.095703	57657.593750
908.930664	57834.597656
907.764648	58236.667969
906.598633	58152.960938
905.432617	57923.406250
904.266602	57583.511719
903.099609	57556.203125
901.933594	57420.605469
900.766602	57124.710938
899.599609	56951.757813
898.431641	56836.558594
897.264648	56721.453125
896.096680	56606.253906
894.928711	56491.054688
893.759766	56375.757813
892.591797	56260.558594
891.422852	56555.804688
890.253906	56724.128906
889.084961	56453.828125
887.916016	56609.636719
886.746094	56538.910156
885.576172	56605.312500
884.406250	56524.226563
883.236328	56185.671875
882.065430	56430.644531
880.895508	56602.875000
879.724609	56550.890625
878.552734	56648.328125
877.381836	56932.445313
876.209961	57305.648438
875.039063	57033.730469
873.866211	57309.316406
872.694336	57321.515625
871.522461	57619.738281
870.349609	57059.902344
869.176758	57664.707031
868.003906	57401.300781
866.830078	57757.273438
865.657227	57742.433594
864.483398	58079.574219
863.309570	57762.449219
862.135742	58871.437500
860.960938	58806.734375
859.786133	58758.597656
858.611328	58485.015625
857.436523	58947.781250
856.261719	58692.867188
855.085938	58214.769531
853.910156	58493.359375
852.734375	58279.992188
851.558594	58128.691406
850.382813	58582.730469
849.206055	58483.058594
848.029297	58352.445313
846.852539	58570.808594
845.674805	58888.171875
844.498047	59308.613281
843.320313	59419.367188
842.142578	60235.671875
840.963867	60069.796875
839.786133	61038.289063
838.607422	61503.292969
837.428711	62671.132813
836.250000	63261.390625
835.070313	62971.441406
833.891602	62663.054688
832.711914	62616.406250
831.532227	61649.085938
830.352539	62144.246094
829.171875	60794.402344
827.991211	60437.285156
826.810547	59619.261719
825.629883	59046.421875
824.449219	58963.453125
823.267578	58325.117188
822.085938	58067.492188
820.904297	57762.667969
819.722656	57741.664063
818.540039	57718.613281
817.357422	57091.359375
816.174805	57273.906250
814.992188	57255.054688
813.809570	57184.859375
812.625977	57278.972656
811.442383	56855.640625
810.258789	56588.476563
809.074219	57164.968750
807.890625	56969.664063
806.706055	57270.937500
805.521484	57153.632813
804.336914	57101.996094
803.151367	57343.605469
801.966797	56777.355469
800.781250	56848.796875
799.594727	56432.449219
798.409180	56530.562500
797.222656	56216.855469
796.037109	55952.421875
794.849609	55894.921875
793.663086	56195.750000
792.476563	55810.683594
791.289063	55978.375000
790.101563	55853.371094
788.914063	55439.925781
787.725586	55621.906250
786.538086	55584.972656
785.349609	55560.324219
784.161133	55122.699219
782.971680	55257.578125
781.783203	55682.605469
780.593750	55040.863281
779.404297	54844.718750
778.214844	54854.941406
777.024414	55044.867188
775.834961	55169.386719
774.644531	55122.375000
773.454102	54867.191406
772.262695	54691.687500
771.072266	54797.808594
769.880859	54881.445313
768.689453	55224.066406
767.497070	55354.488281
766.305664	55413.500000
765.113281	55533.640625
763.920898	55439.746094
762.728516	56038.671875
761.536133	55861.183594
760.342773	56052.429688
759.149414	55966.644531
757.956055	56754.371094
756.762695	56648.125000
755.568359	56739.339844
754.374023	56989.246094
753.179688	57222.781250
751.985352	56748.320313
750.791016	57136.378906
749.595703	56324.554688
748.400391	56580.394531
747.205078	56124.691406
746.009766	55868.320313
744.813477	56022.496094
743.617188	55756.078125
742.420898	55349.609375
741.224609	55520.031250
740.027344	54815.277344
738.830078	55393.773438
737.632813	55318.496094
736.435547	54831.300781
735.238281	54965.128906
734.040039	54098.839844
732.841797	54857.421875
731.643555	54545.054688
730.445313	54551.097656
729.246094	54855.113281
728.046875	54244.996094
726.847656	54484.105469
725.648438	54530.667969
724.449219	54105.265625
723.249023	54524.496094
722.048828	54210.613281
720.848633	54639.785156
719.647461	54597.203125
718.447266	54639.628906
717.246094	54077.089844
716.044922	54423.019531
714.842773	54698.031250
713.641602	54477.519531
712.439453	54032.679688
711.237305	54509.738281
710.035156	54897.691406
708.832031	54905.628906
707.629883	55378.207031
706.426758	54654.863281
705.223633	54775.921875
704.019531	54923.179688
702.815430	54993.667969
701.612305	55011.652344
700.408203	54900.480469
699.203125	55301.808594
697.999023	55551.699219
696.793945	55545.351563
695.588867	55442.218750
694.383789	55496.371094
693.177734	55558.566406
691.971680	56160.839844
690.766602	56259.148438
689.559570	56206.328125
688.353516	56066.914063
687.146484	56390.726563
685.939453	56666.093750
684.732422	56063.660156
683.525391	56000.847656
682.318359	55777.074219
681.110352	56074.468750
679.902344	56128.351563
678.693359	55518.527344
677.485352	55355.320313
676.276367	55815.406250
675.067383	55417.027344
673.858398	55694.042969
672.649414	55908.667969
671.439453	55526.558594
670.229492	56044.414063
669.019531	55700.574219
667.809570	56170.011719
666.598633	55635.566406
665.387695	55398.359375
664.176758	55528.457031
662.965820	55548.156250
661.754883	55184.718750
660.542969	54949.769531
659.331055	55320.464844
658.119141	55179.796875
656.906250	55383.937500
655.694336	54846.503906
654.481445	55261.011719
653.268555	55176.539063
652.054688	55398.546875
650.841797	55067.765625
649.627930	54997.386719
648.414063	55477.519531
647.200195	55617.234375
645.985352	55975.007813
644.770508	56038.542969
643.555664	56112.058594
642.340820	56271.535156
641.125977	56203.003906
639.910156	56444.367188
638.694336	56375.824219
637.478516	56149.429688
636.262695	56019.023438
635.045898	55998.535156
633.829102	55978.050781
632.612305	55787.835938
631.395508	55254.281250
630.177734	55409.601563
628.959961	55099.843750
627.742188	55041.621094
626.524414	54881.671875
625.306641	55076.832031
624.087891	55190.148438
622.869141	55159.855469
621.650391	54752.792969
620.430664	55077.375000
619.211914	54961.425781
617.992188	55056.710938
616.772461	54793.390625
615.551758	55067.921875
614.332031	54575.691406
613.111328	54878.027344
611.890625	55253.894531
610.669922	55118.144531
609.448242	55163.511719
608.226563	54775.164063
607.004883	55017.492188
605.783203	54863.980469
604.561523	55139.996094
603.338867	54996.449219
602.116211	54950.347656
600.893555	55136.761719
599.669922	54814.476563
598.447266	55255.105469
597.223633	55677.691406
596.000000	55573.906250
594.775391	55627.000000
593.551758	55866.652344
592.327148	55419.550781
591.102539	55405.167969
589.877930	55577.269531
588.652344	56064.679688
587.426758	56300.046875
586.201172	56156.625000
584.975586	56465.226563
583.750000	56636.957031
582.523438	56975.074219
581.296875	57215.980469
580.070313	57125.988281
578.842773	57408.363281
577.616211	57437.171875
576.388672	57798.562500
575.161133	58187.527344
573.932617	57935.148438
572.705078	57787.726563
571.476563	57719.488281
570.248047	57352.613281
569.018555	56873.156250
567.790039	57554.457031
566.560547	56863.621094
565.331055	56813.394531
564.101563	56364.031250
562.871094	56013.613281
561.641602	56194.675781
560.411133	55966.859375
559.179688	55204.031250
557.949219	55590.445313
556.717773	55623.406250
555.486328	55166.945313
554.254883	55205.886719
553.023438	55418.406250
551.791016	54755.136719
550.558594	54553.550781
549.326172	54673.402344
548.093750	54418.679688
546.860352	54936.613281
545.627930	54837.593750
544.393555	54783.925781
543.160156	54744.062500
541.926758	54572.261719
540.692383	54337.519531
539.458008	54591.074219
538.223633	54883.898438
536.988281	54417.015625
535.752930	54810.093750
534.517578	54416.179688
533.282227	54779.605469
532.046875	54649.332031
530.810547	55042.062500
529.574219	55082.792969
528.337891	55141.195313
527.101563	54865.539063
525.864258	55415.082031
524.626953	54990.199219
523.389648	54873.789063
522.152344	54741.710938
520.914063	54643.050781
519.675781	54783.871094
518.437500	55142.449219
517.199219	54714.160156
515.959961	54947.070313
514.721680	54854.335938
513.482422	55383.210938
512.242188	55068.894531
511.002930	55270.191406
509.762695	54769.835938
508.522461	55268.929688
507.282227	55160.550781
506.041016	55298.996094
504.800781	54932.160156
503.559570	55002.062500
502.318359	54979.937500
501.076172	54938.242188
499.833984	54620.664063
498.592773	55162.050781
497.349609	55059.703125
496.107422	55045.394531
494.864258	54976.339844
493.622070	55280.699219
492.377930	54994.667969
491.134766	55351.664063
489.891602	54794.148438
488.647461	55121.738281
487.403320	55277.335938
486.158203	55399.675781
484.914063	54865.988281
483.668945	55273.339844
482.423828	55577.097656
481.178711	54955.867188
479.932617	55499.519531
478.686523	55334.941406
477.440430	55513.644531
476.194336	55967.187500
474.948242	55726.582031
473.701172	56741.222656
472.454102	55843.867188
471.207031	56012.550781
469.958984	56031.175781
468.711914	55650.550781
467.463867	56520.144531
466.215820	56599.007813
464.966797	56487.085938
463.718750	56507.539063
462.469727	56942.414063
461.220703	56939.421875
459.970703	57638.554688
458.721680	57164.839844
457.471680	57542.867188
456.221680	57333.707031
454.970703	57758.195313
453.720703	58143.660156
452.469727	58907.808594
451.218750	58716.019531
449.966797	59378.781250
448.715820	59585.003906
447.463867	60297.820313
446.211914	60746.398438
444.959961	60874.617188
443.707031	62011.667969
442.454102	62048.421875
441.201172	61918.367188
439.948242	61163.976563
438.695313	60601.800781
437.441406	59382.742188
436.187500	59040.101563
434.933594	58031.054688
433.678711	57491.199219
432.424805	57449.316406
431.169922	57269.957031
429.914063	56581.457031
428.659180	56679.140625
427.403320	56794.199219
426.147461	56253.238281
424.891602	55917.550781
423.635742	56311.222656
422.378906	56188.378906
421.122070	56108.117188
419.865234	56064.617188
418.608398	55955.414063
417.350586	55314.820313
416.092773	55507.203125
414.834961	55693.710938
413.577148	55546.023438
412.318359	55661.003906
411.059570	55802.964844
409.800781	55809.753906
408.541992	55835.835938
407.282227	55890.847656
406.022461	56111.742188
404.762695	56120.382813
403.502930	55523.492188
402.242188	55672.984375
400.981445	55566.035156
