#Wave		#Intensity
2001.221680	40891.277344
2000.251953	40557.910156
1999.282227	41052.046875
1998.312500	41014.812500
1997.342773	40641.890625
1996.372070	40880.261719
1995.402344	40725.371094
1994.431641	41011.214844
1993.460938	40726.171875
1992.490234	41157.085938
1991.518555	40741.980469
1990.547852	40917.519531
1989.576172	40610.167969
1988.604492	41163.359375
1987.632813	41096.152344
1986.661133	41564.046875
1985.689453	41254.292969
1984.716797	41139.605469
1983.745117	41107.429688
1982.772461	41110.242188
1981.799805	41575.218750
1980.827148	41438.070313
1979.853516	41683.062500
1978.880859	40899.242188
1977.907227	41591.105469
1976.933594	41546.398438
1975.959961	41736.289063
1974.986328	41402.128906
1974.011719	41499.667969
1973.038086	41726.878906
1972.063477	41517.582031
1971.088867	41954.152344
1970.114258	41732.421875
1969.138672	41849.753906
1968.164063	41777.640625
1967.188477	41979.636719
1966.212891	41588.648438
1965.237305	41613.753906
1964.261719	42024.859375
1963.286133	42027.468750
1962.309570	42109.742188
1961.333984	41808.667969
1960.357422	41898.410156
1959.380859	41953.285156
1958.404297	41881.265625
1957.426758	42368.917969
1956.450195	42038.210938
1955.472656	42127.828125
1954.495117	41958.867188
1953.517578	42364.128906
1952.540039	42406.417969
1951.561523	42505.839844
1950.583008	42408.968750
1949.605469	42766.671875
1948.626953	42543.132813
1947.647461	42312.218750
1946.668945	42580.375000
1945.690430	42868.289063
1944.710938	42543.132813
1943.731445	42825.988281
1942.751953	42917.722656
1941.772461	42689.457031
1940.791992	42267.835938
1939.812500	42595.167969
1938.832031	42500.941406
1937.851563	42820.679688
1936.871094	42709.097656
1935.890625	43259.109375
1934.909180	42946.824219
1933.928711	43139.929688
1932.947266	43238.863281
1931.965820	42731.132813
1930.984375	43107.363281
1930.002930	42755.765625
1929.020508	42829.941406
1928.038086	43012.957031
1927.056641	42886.675781
1926.074219	43480.203125
1925.090820	43071.960938
1924.108398	43667.714844
1923.125000	43716.921875
1922.142578	43664.769531
1921.159180	43259.246094
1920.175781	43523.457031
1919.191406	43221.851563
1918.208008	43799.652344
1917.223633	43940.148438
1916.240234	43475.664063
1915.255859	43798.839844
1914.271484	44339.109375
1913.286133	43916.746094
1912.301758	43741.265625
1911.316406	43963.019531
1910.331055	43745.660156
1909.345703	43708.394531
1908.360352	44124.816406
1907.375000	44114.613281
1906.388672	43660.753906
1905.402344	44133.640625
1904.416016	44086.476563
1903.429688	44160.039063
1902.443359	44063.621094
1901.457031	43708.664063
1900.469727	44156.496094
1899.482422	44183.214844
1898.495117	43917.027344
1897.507813	44271.066406
1896.520508	44332.191406
1895.532227	44127.613281
1894.543945	44491.261719
1893.556641	44493.292969
1892.568359	44266.656250
1891.579102	44204.804688
1890.590820	44044.660156
1889.601563	44732.378906
1888.613281	44029.199219
1887.624023	44451.363281
1886.634766	44492.605469
1885.644531	44533.886719
1884.655273	44575.128906
1883.665039	44616.410156
1882.674805	44657.691406
1881.684570	44698.972656
1880.694336	44740.253906
1879.704102	44879.582031
1878.712891	44589.640625
1877.722656	44527.859375
1876.731445	45096.214844
1875.740234	44855.410156
1874.748047	44813.218750
1873.756836	45111.660156
1872.764648	44704.371094
1871.773438	45208.496094
1870.781250	44899.296875
1869.788086	45043.230469
1868.795898	44939.832031
1867.803711	45157.144531
1866.810547	45024.382813
1865.817383	45089.882813
1864.824219	44969.414063
1863.831055	45044.679688
1862.837891	45227.535156
1861.843750	44970.156250
1860.849609	45546.589844
1859.855469	45616.804688
1858.861328	45481.695313
1857.867188	45664.300781
1856.872070	45482.804688
1855.877930	45643.359375
1854.882813	45454.597656
1853.887695	45659.050781
1852.892578	45904.937500
1851.896484	45808.984375
1850.901367	45857.062500
1849.905273	46017.371094
1848.909180	45777.496094
1847.913086	45937.757813
1846.916992	45829.683594
1845.919922	46038.644531
1844.923828	46084.179688
1843.926758	46765.921875
1842.929688	46457.917969
1841.932617	46566.707031
1840.935547	46707.128906
1839.937500	46379.804688
1838.939453	46578.660156
1837.942383	46692.214844
1836.943359	46421.054688
1835.945313	46398.281250
1834.947266	46811.156250
1833.948242	46659.347656
1832.949219	46947.949219
1831.951172	46988.332031
1830.951172	46731.988281
1829.952148	47200.359375
1828.953125	46837.093750
1827.953125	47152.140625
1826.953125	47192.441406
1825.953125	47329.925781
1824.953125	47275.429688
1823.952148	47021.769531
1822.952148	47278.207031
1821.951172	47323.300781
1820.950195	46887.675781
1819.949219	47355.175781
1818.948242	47327.417969
1817.946289	47020.621094
1816.945313	47213.699219
1815.943359	47991.285156
1814.941406	47980.406250
1813.939453	48049.542969
1812.936523	47837.429688
1811.934570	47516.312500
1810.931641	47963.554688
1809.928711	47896.949219
1808.925781	47949.070313
1807.921875	48039.929688
1806.918945	47566.476563
1805.915039	48381.355469
1804.912109	48159.785156
1803.908203	48485.324219
1802.903320	48500.976563
1801.899414	48485.164063
1800.894531	48345.976563
1799.890625	48516.441406
1798.885742	48652.988281
1797.880859	48625.066406
1796.875000	48273.199219
1795.870117	48893.132813
1794.864258	49399.257813
1793.858398	49376.046875
1792.852539	48768.210938
1791.846680	49146.070313
1790.840820	49221.925781
1789.833984	49787.902344
1788.828125	49520.808594
1787.821289	49738.957031
1786.814453	49718.113281
1785.806641	49989.226563
1784.799805	49374.890625
1783.791992	49867.867188
1782.784180	49897.652344
1781.776367	50047.980469
1780.768555	50159.679688
1779.760742	50013.437500
1778.751953	49934.722656
1777.743164	50000.601563
1776.735352	50427.804688
1775.725586	50751.285156
1774.716797	50703.792969
1773.708008	50545.558594
1772.698242	50707.550781
1771.688477	50727.480469
1770.678711	50846.062500
1769.668945	50647.003906
1768.659180	51116.777344
1767.648438	50908.117188
1766.637695	51033.789063
1765.626953	51193.078125
1764.616211	51539.812500
1763.605469	51881.613281
1762.593750	51101.066406
1761.583008	51716.722656
1760.571289	51488.980469
1759.559570	51616.785156
1758.547852	52138.363281
1757.535156	51524.113281
1756.523438	52292.773438
1755.510742	52084.324219
1754.498047	51943.136719
1753.485352	52504.972656
1752.472656	52193.441406
1751.458984	52750.234375
1750.445313	52673.765625
1749.432617	53028.878906
1748.417969	52794.171875
1747.404297	52684.175781
1746.390625	53055.867188
1745.375977	53314.820313
1744.361328	53626.378906
1743.346680	53995.304688
1742.332031	53877.996094
1741.317383	53866.074219
1740.302734	54107.886719
1739.287109	54852.207031
1738.271484	54739.609375
1737.255859	55117.503906
1736.240234	55471.339844
1735.223633	55497.398438
1734.208008	56307.757813
1733.191406	56763.996094
1732.174805	57327.632813
1731.158203	56959.000000
1730.140625	57773.292969
1729.124023	58065.207031
1728.106445	58357.402344
1727.088867	58649.597656
1726.071289	58941.792969
1725.053711	59233.988281
1724.035156	59526.460938
1723.017578	59818.656250
1721.999023	60111.132813
1720.980469	60403.609375
1719.961914	60696.082031
1718.942383	60988.839844
1717.923828	61281.316406
1716.904297	61574.070313
1715.884766	61069.765625
1714.865234	61218.621094
1713.844727	60809.859375
1712.825195	61154.050781
1711.804688	61286.132813
1710.784180	61456.265625
1709.763672	61076.316406
1708.743164	60736.968750
1707.722656	61057.054688
1706.701172	60960.562500
1705.679688	60595.234375
1704.658203	60517.886719
1703.636719	60169.410156
1702.615234	60629.613281
1701.592773	60214.660156
1700.571289	60135.046875
1699.548828	60157.664063
1698.526367	60498.707031
1697.502930	60202.863281
1696.480469	59733.703125
1695.457031	60050.882813
1694.433594	59814.636719
1693.410156	60115.066406
1692.386719	59605.890625
1691.363281	59970.328125
1690.338867	59580.003906
1689.314453	59334.546875
1688.290039	59805.582031
1687.265625	59728.562500
1686.241211	59748.796875
1685.215820	59465.539063
1684.191406	59817.679688
1683.166016	59385.187500
1682.140625	60097.406250
1681.115234	60091.480469
1680.088867	60282.167969
1679.062500	59859.367188
1678.037109	60398.121094
1677.010742	60247.714844
1675.983398	60544.750000
1674.957031	60427.503906
1673.930664	60942.097656
1672.903320	61018.820313
1671.875977	60929.925781
1670.848633	60947.492188
1669.820313	60738.042969
1668.792969	61625.660156
1667.764648	61366.519531
1666.736328	61161.828125
1665.708008	61172.230469
1664.679688	61555.914063
1663.651367	61176.492188
1662.622070	61706.453125
1661.592773	61943.429688
1660.563477	61670.371094
1659.534180	61827.007813
1658.504883	62415.472656
1657.474609	62267.527344
1656.444336	62419.246094
1655.415039	62118.031250
1654.383789	62382.917969
1653.353516	62452.003906
1652.323242	62344.250000
1651.291992	62689.089844
1650.260742	62899.476563
1649.229492	63156.910156
1648.198242	63115.058594
1647.166016	63417.109375
1646.134766	64166.500000
1645.102539	63851.355469
1644.070313	63682.273438
1643.038086	63588.574219
1642.004883	63887.906250
1640.972656	64130.660156
1639.939453	64754.425781
1638.906250	64818.179688
1637.873047	65034.761719
1636.839844	64999.683594
1635.805664	65674.562500
1634.772461	66107.101563
1633.738281	66208.140625
1632.704102	66591.093750
1631.668945	66762.476563
1630.634766	67056.007813
1629.599609	67349.812500
1628.565430	67643.335938
1627.530273	67937.148438
1626.494141	68231.226563
1625.458984	68525.031250
1624.422852	68819.117188
1623.387695	69428.507813
1622.351563	70417.625000
1621.315430	71216.453125
1620.278320	72453.414063
1619.242188	73296.125000
1618.205078	75823.656250
1617.167969	76780.281250
1616.130859	79020.460938
1615.093750	82178.078125
1614.055664	84360.281250
1613.018555	86382.468750
1611.980469	87710.937500
1610.942383	89680.312500
1609.904297	89383.492188
1608.865234	88808.328125
1607.827148	88355.015625
1606.788086	86753.351563
1605.749023	84270.562500
1604.709961	81426.226563
1603.669922	79221.132813
1602.630859	77951.804688
1601.590820	76166.445313
1600.550781	74358.343750
1599.510742	73627.882813
1598.470703	72075.476563
1597.429688	71583.882813
1596.389648	70884.640625
1595.348633	70103.945313
1594.307617	70252.507813
1593.265625	69689.226563
1592.224609	69462.148438
1591.182617	68787.226563
1590.140625	68492.734375
1589.098633	68937.601563
1588.056641	68612.875000
1587.014648	67954.898438
1585.971680	68739.914063
1584.928711	68722.992188
1583.886719	68582.593750
1582.842773	68456.210938
1581.799805	68667.601563
1580.755859	68583.164063
1579.712891	69460.343750
1578.668945	69240.765625
1577.625000	69270.312500
1576.580078	69630.281250
1575.536133	69773.750000
1574.491211	70354.484375
1573.446289	70497.765625
1572.401367	71678.117188
1571.356445	71418.875000
1570.311523	71822.226563
1569.265625	71384.093750
1568.219727	71494.507813
1567.173828	71135.570313
1566.127930	70697.781250
1565.082031	70192.796875
1564.035156	69676.375000
1562.988281	70035.398438
1561.941406	69605.070313
1560.894531	69186.500000
1559.847656	69371.382813
1558.799805	69182.671875
1557.751953	69300.218750
1556.704102	69501.203125
1555.656250	69096.921875
1554.608398	69541.296875
1553.560547	69248.406250
1552.511719	69025.140625
1551.462891	69411.351563
1550.414063	69412.851563
1549.365234	69428.250000
1548.315430	69130.992188
1547.265625	69665.093750
1546.216797	69842.476563
1545.166992	69445.765625
1544.116211	69454.187500
1543.066406	69115.531250
1542.015625	69781.000000
1540.965820	69537.226563
1539.915039	69399.921875
1538.863281	69364.398438
1537.812500	68695.468750
1536.760742	68796.437500
1535.709961	69003.679688
1534.658203	67891.546875
1533.605469	68477.718750
1532.553711	68557.859375
1531.501953	67400.210938
1530.449219	67221.921875
1529.396484	67106.023438
1528.343750	66588.562500
1527.290039	66641.265625
1526.237305	66696.257813
1525.183594	66112.242188
1524.129883	65286.269531
1523.076172	65265.367188
1522.022461	65009.304688
1520.968750	65527.851563
1519.914063	65188.859375
1518.859375	65045.847656
1517.804688	64582.648438
1516.750000	64900.488281
1515.694336	65061.601563
1514.639648	65082.195313
1513.583984	64623.914063
1512.528320	65116.445313
1511.472656	64906.867188
1510.416016	64386.726563
1509.360352	64163.546875
1508.303711	64913.417969
1507.247070	64041.683594
1506.190430	64731.519531
1505.132813	64575.097656
1504.076172	64418.726563
1503.018555	64519.796875
1501.960938	64202.648438
1500.903320	64145.203125
1499.844727	63825.929688
1498.787109	63927.023438
1497.728516	64588.320313
1496.669922	64388.507813
1495.611328	63745.781250
1494.552734	63647.156250
1493.493164	63660.992188
1492.434570	64037.273438
1491.375000	63872.125000
1490.315430	63716.210938
1489.254883	63482.390625
1488.195313	63381.613281
1487.134766	63461.929688
1486.074219	64163.226563
1485.013672	63753.066406
1483.953125	63718.734375
1482.892578	63469.117188
1481.831055	63581.394531
1480.769531	63180.781250
1479.708008	63357.156250
1478.646484	63554.066406
1477.583984	63480.886719
1476.522461	62920.417969
1475.459961	64002.531250
1474.397461	63769.210938
1473.334961	63734.906250
1472.271484	63110.769531
1471.208984	63362.316406
1470.145508	63357.808594
1469.082031	63787.441406
1468.018555	63707.460938
1466.954102	63967.843750
1465.890625	63887.855469
1464.826172	64339.910156
1463.761719	64008.753906
1462.697266	64659.199219
1461.631836	64134.117188
1460.567383	64298.300781
1459.501953	64229.726563
1458.436523	64480.500000
1457.371094	65235.160156
1456.305664	64703.597656
1455.239258	64327.238281
1454.172852	64557.289063
1453.107422	65206.558594
1452.040039	64798.402344
1450.973633	64784.492188
1449.907227	65203.324219
1448.839844	65323.691406
1447.772461	65225.441406
1446.705078	65425.429688
1445.637695	65664.039063
1444.569336	65734.164063
1443.500977	65977.171875
1442.432617	66174.593750
1441.364258	66142.234375
1440.295898	66828.445313
1439.227539	65779.718750
1438.158203	66586.218750
1437.088867	66703.796875
1436.019531	66750.890625
1434.950195	67086.492188
1433.879883	67269.781250
1432.810547	67294.023438
1431.740234	67781.476563
1430.669922	67576.320313
1429.598633	67589.140625
1428.528320	68362.210938
1427.457031	67628.375000
1426.386719	67913.398438
1425.314453	68003.257813
1424.243164	67698.484375
1423.171875	67400.617188
1422.099609	67168.601563
1421.027344	66757.601563
1419.955078	67026.601563
1418.882813	66910.320313
1417.810547	66898.281250
1416.737305	67139.921875
1415.664063	66978.382813
1414.590820	66552.000000
1413.517578	66775.453125
1412.444336	66872.078125
1411.370117	67271.898438
1410.295898	67074.265625
1409.221680	67159.460938
1408.147461	66349.000000
1407.073242	67300.367188
1405.998047	66682.335938
1404.922852	67314.570313
1403.847656	67074.187500
1402.772461	67333.273438
1401.697266	67056.812500
1400.621094	67444.554688
1399.544922	67290.132813
1398.468750	67386.398438
1397.392578	67566.164063
1396.316406	67637.515625
1395.239258	67905.179688
1394.162109	68019.304688
1393.084961	68701.906250
1392.007813	68975.992188
1390.930664	69166.531250
1389.852539	69214.953125
1388.774414	70431.117188
1387.696289	70950.359375
1386.618164	70951.101563
1385.540039	71168.140625
1384.460938	71536.031250
1383.382813	72561.468750
1382.303711	72773.585938
1381.223633	72782.984375
1380.144531	72997.234375
1379.064453	73605.273438
1377.985352	73501.992188
1376.905273	72944.265625
1375.825195	73734.187500
1374.744141	73113.640625
1373.664063	72974.531250
1372.583008	73053.554688
1371.501953	72262.609375
1370.420898	71543.875000
1369.338867	71389.406250
1368.257813	71163.101563
1367.175781	71181.710938
1366.093750	70573.718750
1365.011719	70578.953125
1363.929688	70018.437500
1362.846680	70315.562500
1361.763672	70114.359375
1360.680664	69866.109375
1359.597656	69759.281250
1358.514648	68829.296875
1357.430664	69435.843750
1356.346680	68849.304688
1355.262695	68901.890625
1354.178711	68734.796875
1353.094727	68171.109375
1352.009766	68445.601563
1350.925781	68063.617188
1349.840820	67677.281250
1348.755859	67747.921875
1347.669922	67583.445313
1346.584961	67213.070313
1345.499023	66983.828125
1344.413086	67195.507813
1343.327148	66975.304688
1342.240234	67092.953125
1341.154297	67011.500000
1340.067383	67006.109375
1338.980469	66768.195313
1337.893555	66905.898438
1336.805664	66925.101563
1335.718750	66901.843750
1334.630859	66621.656250
1333.542969	66480.070313
1332.455078	66564.085938
1331.367188	66784.281250
1330.278320	66647.195313
1329.189453	66755.687500
1328.100586	67000.265625
1327.011719	67072.945313
1325.922852	66987.203125
1324.833008	66578.070313
1323.743164	66822.492188
1322.653320	66848.320313
1321.563477	67032.406250
1320.473633	67011.375000
1319.382813	66649.390625
1318.291992	66915.843750
1317.201172	67309.179688
1316.110352	67457.375000
1315.019531	67313.789063
1313.927734	67956.195313
1312.835938	67327.281250
1311.744141	67335.140625
1310.652344	67992.757813
1309.560547	68165.125000
1308.467773	68239.546875
1307.375000	67555.539063
1306.282227	67240.898438
1305.189453	66915.250000
1304.095703	67352.156250
1303.002930	67497.765625
1301.909180	67505.546875
1300.815430	67222.289063
1299.721680	67858.726563
1298.626953	67551.070313
1297.533203	67443.367188
1296.438477	68590.007813
1295.343750	67731.914063
1294.248047	67704.117188
1293.153320	68563.859375
1292.057617	68733.351563
1290.961914	68496.890625
1289.866211	68810.476563
1288.770508	69092.898438
1287.674805	69324.242188
1286.578125	69032.414063
1285.481445	69192.757813
1284.384766	68752.609375
1283.288086	68443.320313
1282.190430	69188.382813
1281.092773	68701.968750
1279.996094	68102.812500
1278.897461	68462.351563
1277.799805	68337.078125
1276.702148	67632.085938
1275.603516	67907.437500
1274.504883	67815.500000
1273.406250	67203.867188
1272.307617	66581.398438
1271.208008	66584.804688
1270.108398	66418.007813
1269.008789	65935.234375
1267.909180	65841.523438
1266.809570	65977.601563
1265.708984	65702.796875
1264.609375	65805.718750
1263.508789	65303.609375
1262.407227	65689.132813
1261.306641	64887.046875
1260.206055	64091.867188
1259.104492	64217.039063
1258.002930	64697.324219
1256.901367	64162.863281
1255.798828	63730.035156
1254.697266	63632.484375
1253.594727	63548.195313
1252.492188	63234.718750
1251.389648	63201.207031
1250.286133	62960.605469
1249.183594	62905.125000
1248.080078	62468.648438
1246.976563	62395.652344
1245.872070	62452.578125
1244.768555	61910.753906
1243.664063	62093.187500
1242.560547	62077.511719
1241.455078	61670.242188
1240.350586	62409.109375
1239.246094	61867.769531
1238.140625	61544.308594
1237.035156	61955.226563
1235.929688	61842.867188
1234.824219	61306.410156
1233.717773	61352.402344
1232.612305	61154.531250
1231.505859	61428.953125
1230.399414	61343.128906
1229.291992	61013.625000
1228.185547	60905.949219
1227.078125	61050.714844
1225.970703	60826.765625
1224.863281	60306.703125
1223.755859	60519.492188
1222.647461	60541.394531
1221.539063	59936.140625
1220.430664	60383.460938
1219.322266	60273.843750
1218.213867	59986.746094
1217.104492	60315.480469
1215.995117	60175.253906
1214.885742	59465.570313
1213.776367	59851.152344
1212.666992	60219.078125
1211.556641	59258.003906
1210.446289	59960.785156
1209.335938	59269.277344
1208.225586	59823.011719
1207.115234	59669.937500
1206.003906	59963.109375
1204.892578	59987.191406
1203.781250	60201.484375
1202.669922	60000.343750
1201.557617	59978.500000
1200.446289	60105.257813
1199.333984	60411.125000
1198.221680	60033.144531
1197.108398	60334.542969
1195.996094	60546.296875
1194.882813	60528.726563
1193.769531	61432.328125
1192.656250	60877.714844
1191.542969	61104.480469
1190.428711	61350.792969
1189.314453	61195.660156
1188.200195	60990.421875
1187.085938	60905.179688
1185.971680	61129.539063
1184.856445	61371.253906
1183.741211	61024.464844
1182.625977	61253.031250
1181.510742	61122.058594
1180.395508	61326.558594
1179.279297	61831.503906
1178.163086	61049.472656
1177.046875	61569.519531
1175.930664	61569.187500
1174.813477	61690.710938
1173.697266	61694.703125
1172.580078	61220.117188
1171.462891	61052.367188
1170.344727	60858.582031
1169.227539	61414.941406
1168.109375	60538.597656
1166.991211	60005.964844
1165.873047	60281.855469
1164.754883	60236.105469
1163.635742	59514.832031
1162.516602	59990.457031
1161.397461	59708.097656
1160.278320	59721.093750
1159.159180	59608.187500
1158.039063	59534.382813
1156.918945	59905.406250
1155.798828	59631.988281
1154.678711	59586.406250
1153.558594	59228.566406
1152.437500	59287.144531
1151.316406	59033.535156
1150.195313	58461.410156
1149.074219	59508.246094
1147.952148	59378.222656
1146.831055	59250.414063
1145.708984	59295.914063
1144.586914	59376.042969
1143.463867	59694.292969
1142.341797	60021.082031
1141.218750	60408.347656
1140.095703	60765.175781
1138.972656	61009.375000
1137.849609	61606.054688
1136.725586	61536.417969
1135.601563	61138.136719
1134.477539	61580.968750
1133.353516	60683.519531
1132.229492	60702.695313
1131.104492	60877.429688
1129.979492	60505.542969
1128.854492	60647.847656
1127.729492	60351.714844
1126.603516	59971.484375
1125.478516	60733.351563
1124.352539	60404.984375
1123.226563	60169.523438
1122.099609	60059.285156
1120.973633	60005.167969
1119.846680	59923.031250
1118.719727	59858.175781
1117.592773	59441.914063
1116.465820	59329.742188
1115.337891	59430.968750
1114.209961	59086.117188
1113.082031	58818.945313
1111.954102	58532.484375
1110.826172	58579.929688
1109.697266	58069.679688
1108.568359	58209.757813
1107.439453	58463.863281
1106.310547	57732.246094
1105.180664	58106.832031
1104.051758	57831.605469
1102.921875	58066.222656
1101.791992	57857.761719
1100.661133	57881.582031
1099.531250	58212.792969
1098.400391	58354.742188
1097.269531	57647.832031
1096.138672	57718.925781
1095.006836	57725.550781
1093.875977	57435.789063
1092.744141	57174.046875
1091.612305	57408.332031
1090.480469	57258.304688
1089.347656	56483.804688
1088.215820	56357.597656
1087.083008	56094.132813
1085.950195	56287.636719
1084.816406	55790.519531
1083.683594	56273.464844
1082.549805	56218.140625
1081.416016	56109.253906
1080.282227	55629.667969
1079.148438	55900.160156
1078.013672	55797.812500
1076.878906	55738.332031
1075.744141	55415.476563
1074.609375	55334.675781
1073.474609	55883.242188
1072.338867	55815.222656
1071.203125	55511.839844
1070.067383	55777.656250
1068.931641	55609.148438
1067.794922	55126.316406
1066.659180	55323.628906
1065.522461	55570.035156
1064.385742	55352.515625
1063.248047	55410.761719
1062.111328	54774.550781
1060.973633	54792.281250
1059.835938	55170.976563
1058.698242	55216.390625
1057.559570	54883.859375
1056.421875	54664.593750
1055.283203	54707.929688
1054.144531	55178.042969
1053.005859	55214.863281
1051.866211	55066.082031
1050.726563	54906.691406
1049.587891	55227.144531
1048.447266	55466.460938
1047.307617	55057.671875
1046.167969	55183.972656
1045.027344	55263.347656
1043.886719	55538.687500
1042.746094	54983.203125
1041.604492	55068.953125
1040.463867	54856.566406
1039.322266	55361.691406
1038.180664	55068.441406
1037.038086	54917.882813
1035.896484	55152.492188
1034.753906	54533.953125
1033.611328	54438.867188
1032.468750	54530.949219
1031.326172	55137.523438
1030.182617	54753.265625
1029.040039	54560.433594
1027.896484	55039.160156
1026.751953	54585.015625
1025.608398	54959.472656
1024.463867	54624.437500
1023.319336	54518.851563
1022.174805	54629.855469
1021.030273	54598.593750
1019.885742	54456.984375
1018.740234	54387.570313
1017.594727	54591.847656
1016.449219	54535.156250
1015.303711	54022.531250
1014.157227	54324.289063
1013.010742	54604.738281
1011.864258	53835.914063
1010.717773	54408.781250
1009.571289	54119.109375
1008.423828	54081.625000
1007.276367	54188.171875
1006.128906	54065.980469
1004.981445	54301.636719
1003.833008	54784.867188
1002.684570	54753.632813
1001.536133	54889.570313
1000.387695	54703.878906
999.239258	54960.343750
998.089844	55134.226563
996.941406	54701.195313
995.791992	54813.753906
994.641602	54547.914063
993.492188	54476.597656
992.341797	54219.367188
991.191406	54203.054688
990.041016	53897.382813
988.890625	54451.304688
987.739258	54329.382813
986.588867	54184.285156
985.437500	54657.636719
984.285156	54027.183594
983.133789	54017.242188
981.981445	54479.808594
980.829102	53727.402344
979.676758	53930.488281
978.524414	54049.164063
977.372070	53870.582031
976.218750	54077.734375
975.065430	54442.839844
973.912109	54009.371094
972.757813	54475.453125
971.604492	54056.871094
970.450195	54672.257813
969.295898	54449.570313
968.141602	54243.800781
966.986328	54290.628906
965.832031	54482.609375
964.676758	54234.867188
963.521484	53991.417969
962.365234	54259.042969
961.209961	53660.367188
960.053711	53845.968750
958.897461	54445.527344
957.741211	54164.429688
956.584961	54131.339844
955.427734	54073.050781
954.270508	54359.199219
953.113281	53983.828125
951.956055	54295.078125
950.797852	54077.273438
949.639648	53515.378906
948.481445	54204.207031
947.323242	53940.378906
946.165039	54238.750000
945.005859	53759.019531
943.847656	53684.109375
942.687500	53443.621094
941.528320	53649.636719
940.369141	53725.656250
939.208984	53640.324219
938.048828	53932.066406
936.888672	53739.910156
935.728516	53625.300781
934.567383	53881.285156
933.406250	54015.769531
932.245117	53947.203125
931.083984	53930.972656
929.922852	54222.265625
928.760742	54042.839844
927.598633	54129.058594
926.436523	54296.789063
925.274414	54249.136719
924.111328	54420.960938
922.948242	54496.589844
921.785156	54348.632813
920.622070	54541.222656
919.458984	54572.921875
918.294922	54771.656250
917.130859	54462.996094
915.966797	54204.539063
914.802734	54724.621094
913.637695	54597.664063
912.472656	54810.800781
911.307617	55224.097656
910.142578	55710.226563
908.977539	55531.046875
907.811523	55604.171875
906.645508	55841.925781
905.479492	55481.515625
904.313477	55423.339844
903.146484	55315.191406
901.980469	55344.539063
900.813477	54630.476563
899.646484	54943.082031
898.478516	54959.988281
897.311523	54804.144531
896.143555	54452.757813
894.975586	54532.148438
893.806641	54438.863281
892.638672	54071.097656
891.469727	53969.609375
890.300781	54076.046875
889.131836	53804.152344
887.962891	53979.156250
886.792969	54179.019531
885.623047	53890.632813
884.453125	53664.660156
883.283203	53704.570313
882.112305	53758.996094
880.942383	53844.535156
879.771484	53973.628906
878.600586	54127.566406
877.428711	54459.871094
876.257813	53945.742188
875.085938	54406.531250
873.914063	54240.949219
872.741211	54817.601563
871.569336	54506.906250
870.396484	54413.921875
869.223633	54584.109375
868.050781	54431.062500
866.877930	54420.984375
865.704102	54938.968750
864.530273	54961.921875
863.356445	55413.363281
862.182617	55363.777344
861.007813	56249.523438
859.833984	55889.460938
858.659180	55947.367188
857.484375	56178.976563
856.308594	55614.410156
855.133789	55626.847656
853.958008	55124.593750
852.782227	54746.523438
851.605469	54523.558594
850.429688	54422.554688
849.252930	54621.082031
848.076172	54462.273438
846.899414	54128.019531
845.722656	54169.593750
844.544922	54813.816406
843.367188	54729.367188
842.189453	55109.156250
841.011719	55307.281250
839.833008	55138.218750
838.655273	55674.429688
837.476563	56099.109375
836.296875	56101.074219
835.118164	56020.597656
833.938477	56366.671875
832.758789	56234.667969
831.579102	55847.308594
830.399414	55612.480469
829.219727	54788.871094
828.039063	53967.628906
826.858398	53288.699219
825.677734	53406.398438
824.496094	52478.871094
823.315430	52465.019531
822.133789	52327.765625
820.952148	52149.437500
819.769531	51701.851563
818.587891	51895.750000
817.405273	51327.117188
816.222656	51159.371094
815.040039	51092.351563
813.856445	50581.687500
812.673828	50607.207031
811.490234	50696.363281
810.305664	50448.820313
809.122070	50657.011719
807.938477	50335.683594
806.753906	50076.027344
805.569336	50563.144531
804.383789	49954.875000
803.199219	50244.976563
802.013672	49788.703125
800.828125	49826.593750
799.642578	49868.570313
798.457031	49756.851563
797.270508	49393.187500
796.083984	49402.441406
794.897461	49172.085938
793.710938	49402.507813
792.523438	48693.203125
791.336914	48481.519531
790.149414	48423.394531
788.961914	48692.644531
787.773438	48395.160156
786.585938	47876.898438
785.397461	48401.703125
784.208984	48300.699219
783.019531	47952.394531
781.831055	47941.433594
780.641602	48179.757813
779.452148	47798.980469
778.262695	47724.726563
777.072266	47670.917969
775.882813	47359.859375
774.692383	47398.000000
773.501953	47438.167969
772.310547	47596.675781
771.120117	47098.144531
769.928711	47656.476563
768.737305	47408.980469
767.544922	47757.007813
766.353516	47570.746094
765.161133	47565.964844
763.968750	47410.371094
762.776367	47792.773438
761.583984	48042.605469
760.390625	47990.882813
759.197266	48028.789063
758.003906	48007.625000
756.810547	48310.152344
755.616211	48634.953125
754.421875	48461.062500
753.227539	48474.414063
752.033203	48534.550781
750.838867	48159.414063
749.643555	48203.312500
748.448242	47984.921875
747.252930	47904.835938
746.057617	47357.343750
744.861328	47277.398438
743.665039	47248.269531
742.468750	46823.070313
741.272461	46895.574219
740.075195	46892.925781
738.878906	46305.617188
737.681641	46325.398438
736.484375	46282.265625
735.286133	46135.667969
734.087891	46254.863281
732.890625	46211.757813
731.691406	46164.613281
730.493164	46379.019531
729.294922	45673.070313
728.095703	45881.402344
726.896484	45743.164063
725.696289	45414.535156
724.497070	45114.390625
723.296875	45261.910156
722.096680	45407.343750
720.896484	45293.605469
719.696289	45611.019531
718.495117	45381.929688
717.293945	45680.996094
716.092773	45458.042969
714.891602	45552.707031
713.689453	45157.976563
712.487305	45620.613281
711.285156	45215.910156
710.083008	45274.160156
708.880859	44982.820313
707.677734	45065.332031
706.474609	45402.312500
705.271484	45121.203125
704.068359	44991.632813
702.864258	44967.078125
701.660156	44886.019531
700.456055	44992.656250
699.251953	44836.968750
698.046875	44998.039063
696.841797	44687.105469
695.636719	44946.945313
694.431641	44884.113281
693.226563	44980.542969
692.020508	44611.390625
690.814453	44679.621094
689.608398	44888.843750
688.402344	44807.945313
687.195313	45236.566406
685.988281	45048.914063
684.781250	44664.046875
683.574219	44997.855469
682.366211	45043.773438
681.158203	44948.839844
679.950195	45071.183594
678.742188	45117.058594
677.534180	45092.535156
676.325195	44850.890625
675.116211	44844.511719
673.907227	44934.597656
672.697266	45129.128906
671.488281	44919.792969
670.278320	45140.367188
669.068359	44921.058594
667.858398	44733.960938
666.647461	44819.937500
665.436523	44372.003906
664.225586	44203.164063
663.014648	44170.816406
661.802734	44212.699219
660.591797	44296.675781
659.379883	44109.921875
658.167969	43955.316406
656.955078	44353.984375
655.743164	44171.328125
654.530273	44010.777344
653.317383	44232.914063
652.103516	43804.015625
650.890625	44006.078125
649.676758	43937.773438
648.462891	43763.390625
647.249023	43797.222656
646.034180	43921.089844
644.819336	44062.910156
643.604492	44096.664063
642.389648	44110.398438
641.174805	43798.203125
639.958984	44183.832031
638.743164	43883.726563
637.527344	43825.539063
636.311523	43983.164063
635.094727	44102.773438
633.877930	44150.429688
632.661133	44112.199219
631.444336	43808.437500
630.226563	43818.191406
629.008789	43632.347656
627.791016	43636.136719
626.573242	43665.863281
625.355469	43603.816406
624.136719	43390.222656
622.917969	43439.910156
621.699219	43830.472656
620.480469	43395.710938
619.260742	43903.707031
618.041016	43602.582031
616.821289	43249.773438
615.601563	43865.058594
614.380859	43508.347656
613.160156	43693.304688
611.939453	43310.875000
610.718750	43209.207031
609.497070	43519.468750
608.276367	43905.210938
607.054688	43501.144531
605.832031	43365.699219
604.610352	43301.882813
603.387695	43246.042969
602.165039	43613.578125
600.942383	43422.562500
599.719727	43477.988281
598.496094	42899.707031
597.272461	43479.531250
596.048828	43183.437500
594.825195	43502.906250
593.600586	43472.898438
592.375977	42936.828125
591.151367	43143.058594
589.926758	43019.890625
588.701172	43521.558594
587.476563	43027.519531
586.250977	43544.859375
585.024414	43134.253906
583.798828	43036.960938
582.572266	43187.398438
581.345703	42919.738281
580.119141	43248.417969
578.892578	43141.261719
577.665039	42802.468750
576.437500	43435.863281
575.209961	42810.128906
573.982422	43160.277344
572.753906	43221.414063
571.525391	42831.480469
570.296875	43023.191406
569.068359	43062.558594
567.838867	43101.910156
566.610352	42921.820313
565.380859	43212.183594
564.150391	43249.503906
562.920898	42808.695313
561.690430	42867.800781
560.459961	42934.777344
559.229492	43009.628906
557.999023	42681.718750
556.767578	42715.136719
555.536133	43054.417969
554.304688	43038.421875
553.073242	42560.820313
551.840820	42923.601563
550.608398	43114.687500
549.375977	42743.800781
548.143555	42278.429688
546.910156	42694.199219
545.676758	42562.019531
544.443359	42299.859375
543.209961	42693.714844
541.975586	42967.292969
540.742188	42766.238281
539.507813	42714.871094
538.272461	43055.203125
537.038086	43001.828125
535.802734	42582.519531
534.567383	42704.324219
533.332031	42904.753906
532.096680	43136.566406
530.860352	42599.578125
529.624023	42467.714844
528.387695	42493.117188
527.151367	42650.160156
525.914063	42836.605469
524.676758	42844.242188
523.439453	42547.488281
522.202148	42606.222656
520.963867	42643.335938
519.725586	42429.214844
518.487305	42456.531250
517.249023	42056.136719
516.009766	42075.667969
514.771484	42181.480469
513.532227	42079.402344
512.291992	42540.011719
511.052734	42435.941406
509.812500	42261.359375
508.572266	42339.593750
507.332031	42280.671875
506.090820	41810.460938
504.850586	42362.625000
503.609375	42472.101563
502.368164	42172.417969
501.125977	42090.085938
499.884766	42549.804688
498.642578	41874.644531
497.400391	42285.324219
496.157227	42292.988281
494.915039	42509.859375
493.671875	42404.085938
492.428711	42220.167969
491.184570	42431.058594
489.941406	42467.984375
488.697266	42120.062500
487.453125	42891.382813
486.208984	42617.710938
484.963867	42728.750000
483.718750	42096.050781
482.473633	42486.218750
481.228516	42794.289063
479.982422	42483.820313
478.737305	42705.949219
477.491211	42606.218750
476.244141	42900.378906
474.998047	42615.457031
473.750977	43047.878906
472.503906	43464.542969
471.256836	43014.066406
470.009766	42966.976563
468.761719	43161.394531
467.513672	43519.300781
466.265625	43514.964844
465.017578	43415.250000
463.768555	43607.484375
462.519531	43787.968750
461.270508	43732.996094
460.021484	43843.367188
458.771484	43934.246094
457.521484	43976.484375
456.271484	44222.808594
455.021484	44498.187500
453.770508	44421.757813
452.519531	44599.855469
451.268555	44688.535156
450.017578	44790.769531
448.765625	45749.234375
447.514648	46150.187500
446.262695	46694.609375
445.009766	46697.414063
443.757813	46888.410156
442.504883	46844.613281
441.251953	47018.050781
439.999023	46287.808594
438.745117	45784.671875
437.492188	45411.589844
436.238281	45246.011719
434.983398	44815.039063
433.729492	44341.613281
432.474609	44261.546875
431.219727	43819.382813
429.964844	43621.335938
428.709961	43454.335938
427.454102	43819.636719
426.198242	43244.363281
424.942383	43178.125000
423.685547	43179.613281
422.429688	43045.722656
421.172852	43252.187500
419.916016	42971.406250
418.658203	42864.683594
417.401367	43044.007813
416.143555	43178.820313
414.885742	43104.953125
413.626953	43185.621094
412.369141	43051.917969
411.110352	43319.832031
409.851563	43330.917969
408.591797	43042.863281
407.333008	43329.917969
406.073242	43136.496094
404.813477	43103.234375
403.553711	43218.476563
402.292969	43032.894531
401.032227	43051.714844
