#Wave		#Intensity
2001.182617	37943.351563
2000.212891	37938.335938
1999.243164	37931.714844
1998.273438	37890.015625
1997.303711	38128.906250
1996.333008	37904.335938
1995.363281	37992.882813
1994.392578	37683.281250
1993.421875	38004.652344
1992.451172	38158.207031
1991.479492	38181.574219
1990.508789	38232.453125
1989.537109	38430.917969
1988.566406	38134.058594
1987.594727	38074.882813
1986.622070	38443.289063
1985.650391	38141.578125
1984.677734	38317.378906
1983.706055	38110.761719
1982.733398	37889.218750
1981.760742	37987.523438
1980.788086	38310.589844
1979.814453	38089.128906
1978.841797	38277.226563
1977.868164	38295.503906
1976.894531	38353.707031
1975.920898	38464.296875
1974.947266	38402.679688
1973.972656	38513.218750
1972.999023	38142.324219
1972.024414	38429.929688
1971.049805	38086.605469
1970.075195	38638.367188
1969.099609	37938.691406
1968.125000	38290.917969
1967.149414	38513.457031
1966.173828	38424.511719
1965.198242	38813.828125
1964.222656	38286.558594
1963.247070	38551.261719
1962.270508	38467.347656
1961.294922	38234.117188
1960.318359	38640.535156
1959.341797	38551.667969
1958.364258	38766.332031
1957.387695	38600.363281
1956.410156	38598.585938
1955.433594	38544.589844
1954.456055	38637.285156
1953.478516	39055.554688
1952.500000	38700.804688
1951.522461	38708.941406
1950.543945	39136.910156
1949.565430	38983.519531
1948.586914	39018.914063
1947.608398	39039.394531
1946.629883	38781.828125
1945.650391	38561.582031
1944.671875	38830.292969
1943.692383	38763.949219
1942.712891	39389.761719
1941.733398	39114.988281
1940.752930	38976.703125
1939.773438	38377.285156
1938.792969	39012.636719
1937.812500	38790.167969
1936.832031	39043.582031
1935.851563	38917.812500
1934.870117	39262.773438
1933.888672	39384.695313
1932.908203	39055.859375
1931.926758	39311.476563
1930.945313	39190.714844
1929.962891	38889.308594
1928.981445	38704.316406
1927.999023	39048.878906
1927.016602	39279.527344
1926.034180	39374.054688
1925.051758	39369.628906
1924.069336	39098.167969
1923.085938	39187.730469
1922.102539	39111.656250
1921.119141	39038.078125
1920.135742	39004.054688
1919.152344	39404.832031
1918.168945	39222.558594
1917.184570	39326.808594
1916.200195	39650.769531
1915.215820	39431.515625
1914.231445	39298.726563
1913.247070	39156.109375
1912.261719	38998.734375
1911.276367	39250.921875
1910.291992	39305.703125
1909.306641	39464.035156
1908.320313	39533.546875
1907.334961	39689.316406
1906.348633	39867.210938
1905.363281	39382.140625
1904.376953	39754.671875
1903.390625	39348.617188
1902.403320	39427.921875
1901.416992	39337.277344
1900.429688	39586.437500
1899.443359	39133.921875
1898.456055	39343.648438
1897.467773	39710.796875
1896.480469	39782.558594
1895.493164	40028.957031
1894.504883	39638.242188
1893.516602	39832.933594
1892.528320	40202.125000
1891.540039	39460.046875
1890.550781	40256.832031
1889.562500	40104.777344
1888.573242	39770.960938
1887.583984	39749.238281
1886.594727	40017.343750
1885.605469	39894.902344
1884.615234	40140.785156
1883.625000	40060.093750
1882.635742	40016.242188
1881.645508	40149.093750
1880.654297	40105.238281
1879.664063	40350.863281
1878.673828	39772.304688
1877.682617	40277.835938
1876.691406	40292.828125
1875.700195	39802.832031
1874.708984	40629.156250
1873.716797	40519.097656
1872.725586	40918.691406
1871.733398	40911.500000
1870.741211	40490.394531
1869.749023	40522.460938
1868.755859	40064.843750
1867.763672	40447.023438
1866.770508	40567.183594
1865.777344	40780.289063
1864.784180	40753.550781
1863.791016	40964.097656
1862.797852	40795.476563
1861.803711	41030.394531
1860.809570	40720.011719
1859.815430	40751.964844
1858.821289	40942.769531
1857.827148	40869.589844
1856.832031	40833.085938
1855.837891	41035.984375
1854.842773	41436.636719
1853.847656	41087.484375
1852.852539	41094.906250
1851.856445	41517.304688
1850.861328	41309.871094
1849.865234	40807.246094
1848.869141	41334.375000
1847.873047	41490.539063
1846.876953	41800.296875
1845.879883	41366.210938
1844.883789	41761.210938
1843.886719	41600.292969
1842.889648	41512.546875
1841.892578	41902.429688
1840.895508	42126.507813
1839.897461	41571.019531
1838.899414	41834.039063
1837.901367	42165.144531
1836.903320	42028.691406
1835.905273	42444.839844
1834.907227	41957.917969
1833.908203	42622.128906
1832.909180	41789.875000
1831.910156	42490.367188
1830.911133	42531.527344
1829.912109	42626.164063
1828.912109	42514.117188
1827.913086	42103.125000
1826.913086	42691.140625
1825.913086	42353.156250
1824.913086	42515.761719
1823.912109	42041.894531
1822.912109	42437.640625
1821.911133	42403.457031
1820.910156	42405.695313
1819.909180	42420.074219
1818.908203	42708.683594
1817.906250	42667.187500
1816.904297	42829.492188
1815.903320	43314.347656
1814.900391	42707.691406
1813.898438	42627.421875
1812.896484	43085.382813
1811.893555	42714.203125
1810.891602	43138.054688
1809.888672	42958.414063
1808.885742	42924.195313
1807.881836	43117.671875
1806.878906	43202.097656
1805.875000	43317.968750
1804.871094	43545.164063
1803.867188	43481.812500
1802.863281	44096.105469
1801.859375	43623.757813
1800.854492	43710.414063
1799.849609	43441.476563
1798.844727	43445.906250
1797.839844	43493.859375
1796.834961	43909.250000
1795.830078	43746.812500
1794.824219	44091.929688
1793.818359	43902.933594
1792.812500	44243.062500
1791.806641	44083.089844
1790.799805	43766.199219
1789.793945	44055.464844
1788.787109	43992.164063
1787.780273	44146.117188
1786.773438	44012.839844
1785.766602	44330.804688
1784.758789	44405.000000
1783.751953	44696.250000
1782.744141	44531.609375
1781.736328	44762.449219
1780.728516	44855.796875
1779.719727	44486.339844
1778.711914	44765.257813
1777.703125	44591.101563
1776.694336	44583.230469
1775.685547	44924.601563
1774.676758	44776.996094
1773.666992	45132.652344
1772.657227	45187.273438
1771.648438	44721.988281
1770.638672	45556.343750
1769.627930	45389.500000
1768.618164	45653.316406
1767.607422	45796.777344
1766.597656	45649.210938
1765.586914	45189.136719
1764.576172	45541.738281
1763.564453	45937.472656
1762.553711	45770.753906
1761.541992	45553.640625
1760.530273	45999.605469
1759.518555	46647.160156
1758.506836	46470.820313
1757.495117	46575.453125
1756.482422	47030.515625
1755.469727	46388.585938
1754.457031	46927.503906
1753.444336	46643.296875
1752.431641	46999.671875
1751.417969	46648.394531
1750.405273	47210.859375
1749.391602	47049.070313
1748.377930	47232.519531
1747.364258	47837.718750
1746.349609	47467.421875
1745.335938	47823.195313
1744.321289	47745.269531
1743.306641	47760.777344
1742.291992	47807.402344
1741.276367	48268.199219
1740.261719	48274.023438
1739.246094	48227.191406
1738.230469	48048.765625
1737.214844	48229.269531
1736.199219	48648.906250
1735.182617	49010.996094
1734.166992	49124.273438
1733.150391	48909.976563
1732.133789	49429.582031
1731.117188	49915.546875
1730.099609	50224.511719
1729.083008	50229.957031
1728.065430	50574.585938
1727.047852	50954.910156
1726.030273	50907.687500
1725.012695	51044.304688
1723.994141	51932.757813
1722.976563	51797.078125
1721.958008	52055.152344
1720.939453	52377.542969
1719.920898	52642.574219
1718.901367	52948.046875
1717.882813	52848.062500
1716.863281	53224.910156
1715.843750	52922.304688
1714.824219	53406.242188
1713.803711	53351.511719
1712.784180	53327.765625
1711.763672	53768.492188
1710.743164	53080.253906
1709.722656	53620.867188
1708.702148	53323.312500
1707.681641	53511.421875
1706.660156	54058.804688
1705.638672	53651.875000
1704.617188	53573.378906
1703.595703	53794.597656
1702.574219	53483.046875
1701.551758	53766.019531
1700.529297	53361.867188
1699.507813	53216.929688
1698.484375	53454.640625
1697.461914	53784.929688
1696.439453	53411.933594
1695.416016	53568.722656
1694.392578	53568.722656
1693.369141	53435.761719
1692.345703	53694.535156
1691.322266	53725.359375
1690.297852	53718.207031
1689.273438	53843.917969
1688.249023	53153.550781
1687.224609	53945.777344
1686.200195	53765.472656
1685.174805	53917.156250
1684.150391	54253.687500
1683.125000	54222.730469
1682.099609	54457.183594
1681.073242	54080.289063
1680.047852	54371.535156
1679.021484	54335.832031
1677.995117	54645.867188
1676.968750	54685.890625
1675.942383	55341.347656
1674.916016	54993.085938
1673.888672	55283.843750
1672.862305	55274.031250
1671.834961	55422.707031
1670.806641	55947.367188
1669.779297	55873.589844
1668.751953	55587.058594
1667.723633	55664.648438
1666.695313	56299.960938
1665.666992	55911.890625
1664.638672	56152.390625
1663.609375	56444.765625
1662.581055	56640.210938
1661.551758	56368.050781
1660.522461	56499.687500
1659.493164	56756.378906
1658.462891	56902.058594
1657.433594	56887.230469
1656.403320	57396.140625
1655.373047	57034.488281
1654.342773	57371.031250
1653.312500	57464.582031
1652.281250	57362.429688
1651.250977	57592.656250
1650.219727	58501.515625
1649.188477	58234.289063
1648.156250	57934.175781
1647.125000	58446.773438
1646.092773	58436.386719
1645.060547	58159.933594
1644.028320	58709.878906
1642.996094	58680.613281
1641.963867	58281.882813
1640.930664	58779.746094
1639.898438	59510.320313
1638.865234	59050.496094
1637.832031	59594.980469
1636.797852	59313.992188
1635.764648	59705.429688
1634.730469	59859.335938
1633.696289	59813.441406
1632.662109	60401.933594
1631.627930	60156.277344
1630.592773	60735.097656
1629.558594	60952.078125
1628.523438	61373.242188
1627.488281	61543.074219
1626.453125	62787.785156
1625.416992	62724.988281
1624.381836	63176.027344
1623.345703	64032.722656
1622.309570	64541.996094
1621.273438	65304.339844
1620.237305	66922.164063
1619.200195	67700.210938
1618.163086	68520.171875
1617.125977	70176.390625
1616.088867	71754.695313
1615.051758	73065.398438
1614.014648	74696.492188
1612.976563	76083.468750
1611.938477	77034.492188
1610.900391	77318.054688
1609.862305	77931.500000
1608.823242	77096.296875
1607.785156	75940.882813
1606.746094	75270.070313
1605.707031	73750.546875
1604.667969	71520.726563
1603.628906	70710.773438
1602.588867	69419.601563
1601.548828	68334.539063
1600.508789	67696.148438
1599.468750	67219.187500
1598.428711	66300.929688
1597.387695	65987.851563
1596.347656	65205.562500
1595.306641	65284.988281
1594.265625	65240.675781
1593.224609	64855.656250
1592.182617	64958.425781
1591.140625	64382.292969
1590.099609	63470.492188
1589.057617	63676.054688
1588.014648	63639.054688
1586.972656	63238.398438
1585.929688	63157.199219
1584.887695	63127.292969
1583.844727	63260.492188
1582.800781	63381.996094
1581.757813	63100.511719
1580.714844	63012.410156
1579.670898	63080.332031
1578.626953	63143.574219
1577.583008	63593.148438
1576.538086	63556.203125
1575.494141	63872.921875
1574.449219	64105.777344
1573.404297	64343.199219
1572.359375	64468.914063
1571.314453	64852.656250
1570.269531	64378.496094
1569.223633	64920.152344
1568.177734	65057.285156
1567.131836	64292.921875
1566.085938	64077.031250
1565.040039	63589.484375
1563.993164	63448.097656
1562.946289	63255.679688
1561.899414	63144.574219
1560.852539	62327.976563
1559.805664	62244.914063
1558.757813	61885.800781
1557.709961	61712.378906
1556.662109	61634.105469
1555.614258	62297.851563
1554.566406	61855.515625
1553.517578	61457.375000
1552.469727	61761.578125
1551.420898	60967.367188
1550.372070	61246.062500
1549.322266	61499.175781
1548.273438	60860.593750
1547.223633	61109.046875
1546.173828	61091.183594
1545.124023	61503.839844
1544.074219	61293.828125
1543.024414	61204.207031
1541.973633	60545.527344
1540.922852	60932.531250
1539.872070	60362.007813
1538.821289	60529.250000
1537.770508	60939.164063
1536.718750	60387.425781
1535.666992	60510.660156
1534.615234	60278.035156
1533.563477	60336.562500
1532.511719	59900.796875
1531.458984	59770.003906
1530.407227	59773.171875
1529.354492	60074.117188
1528.300781	60061.062500
1527.248047	59902.636719
1526.195313	59601.218750
1525.141602	59650.535156
1524.087891	59506.093750
1523.034180	59292.527344
1521.980469	58544.152344
1520.925781	59584.808594
1519.871094	59569.539063
1518.817383	58786.941406
1517.762695	59154.257813
1516.707031	58325.945313
1515.652344	58631.023438
1514.596680	58767.898438
1513.541016	58980.695313
1512.485352	58509.777344
1511.429688	58013.707031
1510.374023	58599.281250
1509.317383	58710.718750
1508.260742	58695.609375
1507.204102	58319.437500
1506.147461	58279.105469
1505.090820	58654.890625
1504.033203	58901.820313
1502.975586	58560.343750
1501.917969	58405.101563
1500.860352	58851.800781
1499.802734	58714.933594
1498.744141	58449.507813
1497.686523	58232.394531
1496.627930	58295.421875
1495.569336	57793.800781
1494.509766	58556.800781
1493.451172	58521.070313
1492.391602	58728.511719
1491.332031	58568.906250
1490.272461	58209.847656
1489.212891	58758.851563
1488.152344	58752.906250
1487.092773	58792.796875
1486.032227	58452.281250
1484.971680	58698.406250
1483.910156	58154.152344
1482.849609	58631.558594
1481.788086	58735.542969
1480.726563	59116.511719
1479.665039	58870.136719
1478.603516	59127.355469
1477.541992	58997.761719
1476.479492	59460.765625
1475.416992	59557.609375
1474.354492	58897.417969
1473.291992	59357.894531
1472.229492	59459.269531
1471.166016	59012.019531
1470.102539	58841.457031
1469.039063	59150.796875
1467.975586	59115.054688
1466.912109	59481.332031
1465.847656	59986.781250
1464.783203	59624.386719
1463.718750	60280.296875
1462.654297	59815.261719
1461.589844	60096.636719
1460.524414	60320.863281
1459.458984	60006.625000
1458.393555	60260.437500
1457.328125	60126.472656
1456.262695	60309.484375
1455.196289	60549.417969
1454.130859	60397.234375
1453.064453	60643.898438
1451.998047	60621.617188
1450.930664	60392.042969
1449.864258	60515.574219
1448.796875	61014.796875
1447.729492	61365.843750
1446.662109	60658.253906
1445.594727	61507.671875
1444.526367	61180.320313
1443.458008	61421.871094
1442.390625	62020.464844
1441.321289	62077.550781
1440.252930	62550.742188
1439.184570	62216.664063
1438.115234	62525.992188
1437.045898	63389.738281
1435.976563	62905.714844
1434.907227	64073.507813
1433.836914	63410.085938
1432.767578	63952.824219
1431.697266	64107.085938
1430.626953	64511.015625
1429.555664	64217.960938
1428.485352	65277.582031
1427.414063	64927.761719
1426.342773	65803.109375
1425.271484	65818.500000
1424.200195	66047.046875
1423.128906	66250.570313
1422.056641	66444.953125
1420.984375	66677.789063
1419.912109	65999.546875
1418.839844	67265.562500
1417.767578	66558.000000
1416.694336	66398.804688
1415.621094	66260.046875
1414.547852	66393.031250
1413.474609	65862.695313
1412.400391	65434.398438
1411.327148	64949.679688
1410.252930	65562.437500
1409.178711	64564.371094
1408.104492	64837.722656
1407.029297	64733.339844
1405.955078	64789.515625
1404.879883	65250.289063
1403.804688	65206.902344
1402.729492	65077.664063
1401.653320	65874.750000
1400.578125	65865.148438
1399.501953	65821.671875
1398.425781	66033.367188
1397.349609	65849.898438
1396.272461	65860.609375
1395.196289	66295.593750
1394.119141	66455.140625
1393.041992	67356.843750
1391.964844	67074.039063
1390.886719	68083.554688
1389.809570	68326.078125
1388.731445	69064.468750
1387.653320	68914.531250
1386.575195	69298.742188
1385.497070	69585.921875
1384.417969	68825.476563
1383.338867	69013.531250
1382.259766	69244.304688
1381.180664	69335.390625
1380.101563	69311.640625
1379.021484	68835.500000
1377.941406	68807.343750
1376.861328	68988.429688
1375.781250	68233.664063
1374.701172	68929.820313
1373.620117	69016.335938
1372.539063	68378.875000
1371.458008	67651.718750
1370.376953	68005.859375
1369.295898	67593.617188
1368.213867	68059.960938
1367.132813	67802.851563
1366.050781	67862.484375
1364.967773	68517.140625
1363.885742	67954.750000
1362.802734	68395.906250
1361.720703	69077.031250
1360.637695	68452.007813
1359.554688	68607.906250
1358.470703	68297.210938
1357.387695	68625.757813
1356.303711	68976.609375
1355.219727	68000.195313
1354.135742	67882.578125
1353.050781	67249.570313
1351.966797	66630.242188
1350.881836	66752.625000
1349.796875	66265.742188
1348.711914	65989.531250
1347.626953	65673.125000
1346.541016	65885.117188
1345.455078	65320.402344
1344.369141	65299.656250
1343.283203	65495.937500
1342.197266	65195.542969
1341.110352	65543.851563
1340.023438	65534.250000
1338.936523	65274.246094
1337.849609	65620.109375
1336.762695	65728.937500
1335.674805	65451.156250
1334.586914	65334.332031
1333.499023	65076.816406
1332.411133	65469.289063
1331.323242	65971.023438
1330.234375	65608.601563
1329.145508	65911.468750
1328.056641	66299.031250
1326.967773	66206.718750
1325.878906	66484.773438
1324.789063	67063.828125
1323.699219	66975.882813
1322.609375	67646.054688
1321.519531	68367.257813
1320.429688	68682.539063
1319.338867	69430.031250
1318.248047	70039.101563
1317.157227	70962.054688
1316.066406	71947.031250
1314.975586	72372.710938
1313.883789	73840.210938
1312.791992	74285.421875
1311.700195	73711.125000
1310.608398	73748.968750
1309.516602	73355.179688
1308.423828	72879.226563
1307.331055	72561.351563
1306.238281	71316.328125
1305.145508	70763.179688
1304.051758	70512.531250
1302.958984	70310.867188
1301.865234	69751.523438
1300.771484	69901.078125
1299.677734	69866.210938
1298.583008	70508.710938
1297.489258	70193.968750
1296.394531	70774.007813
1295.299805	71555.812500
1294.204102	71114.554688
1293.109375	71132.742188
1292.013672	71312.859375
1290.917969	71013.828125
1289.822266	71198.335938
1288.726563	71059.054688
1287.630859	70363.414063
1286.534180	70069.187500
1285.437500	69721.882813
1284.340820	69726.976563
1283.244141	69577.000000
1282.146484	69495.742188
1281.048828	68730.257813
1279.951172	68790.867188
1278.853516	68616.812500
1277.755859	67623.937500
1276.658203	67773.210938
1275.559570	66962.257813
1274.460938	67602.656250
1273.362305	67428.960938
1272.262695	67089.484375
1271.164063	66763.390625
1270.064453	66130.171875
1268.964844	65917.078125
1267.865234	66196.789063
1266.765625	65683.304688
1265.665039	65768.585938
1264.564453	65341.480469
1263.463867	65378.207031
1262.363281	65116.894531
1261.262695	65195.582031
1260.161133	65080.039063
1259.059570	64461.480469
1257.958008	65096.136719
1256.856445	64647.625000
1255.754883	64265.429688
1254.652344	64655.039063
1253.549805	64067.964844
1252.447266	64259.105469
1251.344727	64084.382813
1250.242188	64134.441406
1249.138672	64334.269531
1248.035156	63769.796875
1246.931641	63819.878906
1245.828125	64312.457031
1244.724609	63532.570313
1243.620117	63895.171875
1242.515625	64200.425781
1241.411133	63880.773438
1240.306641	64236.503906
1239.201172	64266.625000
1238.096680	64428.660156
1236.991211	63772.835938
1235.885742	64082.160156
1234.779297	64760.562500
1233.673828	63847.957031
1232.567383	63717.734375
1231.460938	63565.589844
1230.354492	63767.054688
1229.248047	63426.132813
1228.140625	63829.500000
1227.033203	63800.343750
1225.926758	63742.667969
1224.818359	63816.652344
1223.710938	63546.210938
1222.602539	63995.234375
1221.495117	63700.734375
1220.386719	63520.343750
1219.278320	63495.644531
1218.168945	63836.949219
1217.060547	63108.824219
1215.951172	62749.011719
1214.841797	63090.261719
1213.731445	62899.210938
1212.622070	62885.582031
1211.511719	62998.933594
1210.402344	62639.457031
1209.291992	62739.675781
1208.180664	63391.234375
1207.070313	63020.933594
1205.958984	63302.558594
1204.847656	63531.593750
1203.736328	63620.613281
1202.625000	64162.105469
1201.512695	63372.347656
1200.401367	64661.031250
1199.289063	64354.312500
1198.176758	64148.187500
1197.063477	64483.777344
1195.951172	65308.378906
1194.837891	65132.750000
1193.724609	65544.367188
1192.611328	65619.734375
1191.498047	65657.976563
1190.383789	65619.843750
1189.269531	65313.429688
1188.155273	64407.386719
1187.041016	64613.707031
1185.926758	64530.000000
1184.811523	64027.824219
1183.696289	64401.894531
1182.581055	63801.871094
1181.465820	64082.167969
1180.350586	64025.269531
1179.234375	63968.316406
1178.118164	63911.367188
1177.001953	63854.417969
1175.885742	63797.468750
1174.768555	63807.605469
1173.652344	62840.847656
1172.535156	63569.003906
1171.417969	63148.535156
1170.299805	63037.000000
1169.182617	63416.855469
1168.064453	63216.183594
1166.946289	62928.648438
1165.828125	62678.156250
1164.709961	63142.515625
1163.590820	62783.464844
1162.471680	62591.765625
1161.352539	63157.929688
1160.233398	63074.773438
1159.114258	63158.777344
1157.994141	63082.156250
1156.874023	63068.484375
1155.753906	63059.152344
1154.633789	62880.640625
1153.513672	62593.761719
1152.392578	62697.257813
1151.271484	62863.578125
1150.150391	62852.113281
1149.029297	62396.414063
1147.907227	62926.679688
1146.786133	62943.359375
1145.664063	62923.210938
1144.541992	62920.390625
1143.418945	63069.117188
1142.296875	62923.402344
1141.173828	63411.855469
1140.050781	63848.195313
1138.927734	64089.664063
1137.803711	63660.496094
1136.680664	64066.265625
1135.556641	64080.515625
1134.432617	63895.867188
1133.308594	64353.242188
1132.183594	64177.250000
1131.059570	63510.843750
1129.934570	63685.031250
1128.809570	63459.574219
1127.684570	63912.273438
1126.558594	63265.824219
1125.432617	63465.820313
1124.307617	63449.914063
1123.180664	63302.371094
1122.054688	63862.550781
1120.928711	62919.003906
1119.801758	63099.457031
1118.674805	62975.796875
1117.547852	62757.320313
1116.419922	62702.742188
1115.292969	62529.644531
1114.165039	62328.597656
1113.037109	62750.234375
1111.909180	62743.070313
1110.780273	62970.648438
1109.652344	62278.730469
1108.523438	62172.621094
1107.394531	62172.015625
1106.264648	62304.832031
1105.135742	62078.281250
1104.005859	62292.804688
1102.875977	62455.632813
1101.746094	61859.292969
1100.616211	62688.640625
1099.485352	62567.542969
1098.355469	62541.054688
1097.224609	62718.714844
1096.092773	62533.214844
1094.961914	62876.207031
1093.830078	62168.855469
1092.699219	62131.710938
1091.567383	62281.359375
1090.434570	62078.921875
1089.302734	62031.078125
1088.169922	61687.140625
1087.037109	61826.023438
1085.904297	61818.996094
1084.771484	61588.937500
1083.637695	62036.507813
1082.504883	62119.476563
1081.371094	61835.898438
1080.236328	62032.445313
1079.102539	61883.960938
1077.968750	62412.457031
1076.833984	61799.187500
1075.699219	62126.210938
1074.564453	62221.882813
1073.428711	62737.074219
1072.292969	62265.437500
1071.158203	62279.707031
1070.022461	62045.796875
1068.885742	62562.773438
1067.750000	61913.996094
1066.613281	62428.664063
1065.476563	62064.476563
1064.339844	62232.648438
1063.203125	62428.542969
1062.065430	62280.351563
1060.927734	62247.574219
1059.790039	62714.609375
1058.652344	62327.261719
1057.514648	62849.621094
1056.375977	62611.816406
1055.237305	62384.769531
1054.098633	62356.257813
1052.959961	62344.824219
1051.820313	62220.335938
1050.681641	62441.398438
1049.541992	62380.902344
1048.402344	62158.394531
1047.261719	62660.710938
1046.122070	63173.496094
1044.981445	62842.285156
1043.840820	62694.410156
1042.700195	62601.964844
1041.558594	63105.855469
1040.417969	62091.394531
1039.276367	62791.042969
1038.134766	62462.378906
1036.992188	62842.484375
1035.850586	62328.816406
1034.708008	62491.816406
1033.565430	62829.160156
1032.422852	62279.617188
1031.280273	62291.570313
1030.136719	62488.457031
1028.994141	62647.015625
1027.850586	62899.007813
1026.706055	62762.109375
1025.562500	62493.558594
1024.417969	62401.378906
1023.273438	62296.488281
1022.128906	62745.742188
1020.984375	62634.457031
1019.839844	62701.472656
1018.694336	62916.992188
1017.548828	62557.515625
1016.403320	62319.070313
1015.256836	63130.445313
1014.111328	62872.890625
1012.964844	62308.046875
1011.818359	62487.351563
1010.671875	62986.578125
1009.524414	62294.890625
1008.377930	62330.042969
1007.230469	62644.750000
1006.083008	62715.820313
1004.934570	62852.496094
1003.787109	63264.296875
1002.638672	63601.871094
1001.490234	63257.964844
1000.341797	64337.992188
999.193359	63966.574219
998.043945	63859.644531
996.894531	64439.945313
995.745117	64265.312500
994.595703	64557.859375
993.446289	64330.433594
992.295898	64314.371094
991.145508	63746.953125
989.995117	63978.121094
988.844727	64038.148438
987.693359	63739.222656
986.541992	63725.382813
985.390625	63724.210938
984.239258	63737.804688
983.087891	63749.285156
981.935547	63918.960938
980.783203	63683.640625
979.630859	63800.542969
978.478516	63660.199219
977.325195	63836.078125
976.172852	63706.308594
975.019531	63692.472656
973.865234	63476.394531
972.711914	63839.628906
971.557617	63511.984375
970.404297	63281.316406
969.250000	63579.117188
968.094727	63630.546875
966.940430	63846.097656
965.785156	63367.257813
964.629883	63458.660156
963.474609	63446.968750
962.319336	63418.457031
961.163086	64014.371094
960.007813	63979.453125
958.851563	63931.937500
957.694336	63539.828125
956.538086	63805.433594
955.380859	63835.683594
954.223633	63849.117188
953.066406	63873.042969
951.909180	63827.679688
950.751953	63773.937500
949.593750	63613.183594
948.435547	63133.566406
947.277344	63306.527344
946.118164	63498.300781
944.959961	63524.339844
943.800781	62940.250000
942.641602	63620.394531
941.482422	63843.394531
940.322266	63366.429688
939.162109	63235.320313
938.001953	63684.484375
936.841797	63624.566406
935.681641	63918.539063
934.520508	63354.058594
933.360352	63589.359375
932.198242	63468.800781
931.037109	63664.230469
929.875977	64031.128906
928.713867	64054.871094
927.551758	64597.214844
926.389648	64564.382813
925.227539	64303.703125
924.064453	64005.496094
922.901367	64384.445313
921.738281	64251.382813
920.575195	64199.828125
919.412109	64795.730469
918.248047	64746.175781
917.083984	65089.132813
915.919922	65219.050781
914.755859	65052.570313
913.590820	65259.644531
912.426758	65441.605469
911.261719	65633.929688
910.095703	66516.445313
908.930664	66525.007813
907.764648	66669.062500
906.598633	66602.554688
905.432617	66125.539063
904.266602	66196.664063
903.099609	65994.867188
901.933594	65928.515625
900.766602	65764.320313
899.599609	64913.136719
898.431641	65560.992188
897.264648	65694.554688
896.096680	64974.941406
894.928711	65168.890625
893.759766	64701.312500
892.591797	64924.347656
891.422852	64698.179688
890.253906	64393.093750
889.084961	64929.906250
887.916016	64786.976563
886.746094	65389.996094
885.576172	64999.824219
884.406250	64854.875000
883.236328	64832.496094
882.065430	64893.164063
880.895508	64970.417969
879.724609	64999.906250
878.552734	65483.808594
877.381836	65432.273438
876.209961	65523.875000
875.039063	65791.718750
873.866211	65760.882813
872.694336	66165.406250
871.522461	65854.679688
870.349609	65635.257813
869.176758	66132.804688
868.003906	65946.546875
866.830078	65855.632813
865.657227	66224.468750
864.483398	66885.093750
863.309570	66949.296875
862.135742	67568.140625
860.960938	67764.625000
859.786133	67567.937500
858.611328	67743.656250
857.436523	67412.617188
856.261719	67406.328125
855.085938	67474.468750
853.910156	67116.781250
852.734375	66903.882813
851.558594	66893.554688
850.382813	66736.546875
849.206055	66951.382813
848.029297	66951.359375
846.852539	67135.093750
845.674805	67118.523438
844.498047	67343.429688
843.320313	67347.453125
842.142578	67941.531250
840.963867	68879.867188
839.786133	69296.070313
838.607422	70233.804688
837.428711	70622.796875
836.250000	70995.148438
835.070313	71763.039063
833.891602	71053.289063
832.711914	71048.351563
831.532227	70431.679688
830.352539	70023.218750
829.171875	69376.078125
827.991211	68930.906250
826.810547	68041.328125
825.629883	67049.195313
824.449219	66750.765625
823.267578	66294.062500
822.085938	66567.632813
820.904297	66442.179688
819.722656	65551.984375
818.540039	65533.648438
817.357422	65860.578125
816.174805	65669.585938
814.992188	65034.921875
813.809570	65228.246094
812.625977	65542.656250
811.442383	64805.699219
810.258789	65292.500000
809.074219	65114.125000
807.890625	64207.328125
806.706055	65071.472656
805.521484	65260.414063
804.336914	65551.828125
803.151367	65084.425781
801.966797	65035.429688
800.781250	64545.746094
799.594727	64496.863281
798.409180	63896.808594
797.222656	63852.152344
796.037109	63387.621094
794.849609	63093.230469
793.663086	63157.261719
792.476563	62746.332031
791.289063	62607.769531
790.101563	62720.957031
788.914063	62316.464844
787.725586	61967.355469
786.538086	61765.628906
785.349609	62332.832031
784.161133	61969.589844
782.971680	61645.320313
781.783203	61327.300781
780.593750	61352.671875
779.404297	61210.511719
778.214844	60947.890625
777.024414	61134.644531
775.834961	60620.984375
774.644531	61042.488281
773.454102	60829.066406
772.262695	60462.671875
771.072266	61034.937500
769.880859	60717.593750
768.689453	61028.539063
767.497070	60817.343750
766.305664	60418.656250
765.113281	60896.621094
763.920898	61129.843750
762.728516	61499.496094
761.536133	61754.925781
760.342773	61959.332031
759.149414	62454.878906
757.956055	62021.773438
756.762695	62107.937500
755.568359	62124.867188
754.374023	62422.609375
753.179688	62488.292969
751.985352	62289.507813
750.791016	61901.644531
749.595703	61904.343750
748.400391	61941.605469
747.205078	61438.148438
746.009766	61170.628906
744.813477	60706.109375
743.617188	60646.035156
742.420898	60252.871094
741.224609	60570.628906
740.027344	59903.515625
738.830078	59843.625000
737.632813	59530.050781
736.435547	58962.925781
735.238281	59128.445313
734.040039	59151.906250
732.841797	58893.441406
731.643555	59519.179688
730.445313	59043.804688
729.246094	59115.898438
728.046875	59311.589844
726.847656	58862.855469
725.648438	58750.578125
724.449219	58719.363281
723.249023	58117.070313
722.048828	58438.285156
720.848633	58480.015625
719.647461	58347.664063
718.447266	58808.277344
717.246094	58469.535156
716.044922	58329.160156
714.842773	58560.972656
713.641602	58467.132813
712.439453	58589.652344
711.237305	58706.058594
710.035156	58701.164063
708.832031	58421.460938
707.629883	58663.082031
706.426758	59407.546875
705.223633	59162.195313
704.019531	58995.675781
702.815430	58819.121094
701.612305	59078.593750
700.408203	58647.820313
699.203125	59034.328125
697.999023	58785.269531
696.793945	58673.445313
695.588867	59120.218750
694.383789	59107.152344
693.177734	59213.019531
691.971680	59147.539063
690.766602	59125.761719
689.559570	59103.949219
688.353516	59082.152344
687.146484	59379.222656
685.939453	58675.500000
684.732422	58773.234375
683.525391	58639.472656
682.318359	58678.816406
681.110352	58537.070313
679.902344	58536.179688
678.693359	57777.078125
677.485352	58930.523438
676.276367	58326.425781
675.067383	58448.179688
673.858398	58895.453125
672.649414	57596.476563
671.439453	58367.171875
670.229492	58239.753906
669.019531	58596.351563
667.809570	57956.949219
666.598633	57922.015625
665.387695	57812.828125
664.176758	57729.769531
662.965820	57313.695313
661.754883	57317.007813
660.542969	57889.890625
659.331055	57554.214844
658.119141	57709.839844
656.906250	57518.636719
655.694336	57012.871094
654.481445	57709.488281
653.268555	57360.125000
652.054688	57743.957031
650.841797	57252.531250
649.627930	57782.390625
648.414063	58346.082031
647.200195	58469.246094
645.985352	58686.410156
644.770508	58743.437500
643.555664	59108.488281
642.340820	59535.394531
641.125977	59722.191406
639.910156	59415.125000
638.694336	59401.988281
637.478516	59085.097656
636.262695	58970.125000
635.045898	58529.574219
633.829102	58378.792969
632.612305	58050.339844
631.395508	57616.191406
630.177734	57553.488281
628.959961	57161.500000
627.742188	57122.843750
626.524414	56609.382813
625.306641	57067.511719
624.087891	57158.519531
622.869141	56655.296875
621.650391	56550.972656
620.430664	56516.449219
619.211914	56788.824219
617.992188	57081.015625
616.772461	56598.191406
615.551758	57051.632813
614.332031	56457.476563
613.111328	56685.792969
611.890625	56221.304688
610.669922	56726.210938
609.448242	56371.328125
608.226563	56605.445313
607.004883	56485.421875
605.783203	56359.472656
604.561523	56559.652344
603.338867	56105.722656
602.116211	56419.164063
600.893555	56299.273438
599.669922	56672.156250
598.447266	56105.308594
597.223633	56484.039063
596.000000	56481.375000
594.775391	56393.335938
593.551758	56448.246094
592.327148	56205.445313
591.102539	56559.980469
589.877930	56485.871094
588.652344	56457.406250
587.426758	56764.089844
586.201172	56787.128906
584.975586	56387.917969
583.750000	56819.300781
582.523438	57076.136719
581.296875	57386.367188
580.070313	57066.562500
578.842773	57384.597656
577.616211	57296.582031
576.388672	57396.675781
575.161133	57310.667969
573.932617	57327.593750
572.705078	57049.699219
571.476563	57003.363281
570.248047	57645.339844
569.018555	57411.039063
567.790039	56807.097656
566.560547	56988.160156
565.331055	57208.675781
564.101563	57393.539063
562.871094	56604.332031
561.641602	56411.957031
560.411133	56176.199219
559.179688	56305.820313
557.949219	56237.972656
556.717773	56144.488281
555.486328	56060.902344
554.254883	55636.011719
553.023438	55824.777344
551.791016	55739.078125
550.558594	55653.375000
549.326172	55567.675781
548.093750	55481.972656
546.860352	55396.203125
545.627930	55310.503906
544.393555	55325.695313
543.160156	55524.062500
541.926758	55401.351563
540.692383	55770.925781
539.458008	55734.828125
538.223633	55716.457031
536.988281	55467.847656
535.752930	55723.003906
534.517578	55513.828125
533.282227	55548.601563
532.046875	55697.406250
530.810547	56036.855469
529.574219	56266.101563
528.337891	56373.410156
527.101563	56128.960938
525.864258	55992.652344
524.626953	56390.636719
523.389648	55973.503906
522.152344	56047.375000
520.914063	55887.613281
519.675781	55213.695313
518.437500	55956.800781
517.199219	55540.128906
515.959961	55621.847656
514.721680	56170.289063
513.482422	55483.214844
512.242188	55819.746094
511.002930	55813.132813
509.762695	55739.890625
508.522461	55915.511719
507.282227	55946.097656
506.041016	55761.222656
504.800781	55543.125000
503.559570	55597.253906
502.318359	55594.585938
501.076172	55464.707031
499.833984	55845.585938
498.592773	55752.875000
497.349609	55969.246094
496.107422	56042.769531
494.864258	55658.730469
493.622070	55820.250000
492.377930	55844.890625
491.134766	56141.148438
489.891602	55876.550781
488.647461	55815.207031
487.403320	55832.003906
486.158203	55973.765625
484.914063	56500.078125
483.668945	55341.656250
482.423828	56625.097656
481.178711	56352.933594
479.932617	56597.843750
478.686523	56487.671875
477.440430	56900.167969
476.194336	56684.691406
474.948242	56738.304688
473.701172	56749.019531
472.454102	56523.941406
471.207031	56807.441406
469.958984	57310.941406
468.711914	56548.359375
467.463867	56923.203125
466.215820	56750.855469
464.966797	56948.390625
463.718750	57729.660156
462.469727	57327.660156
461.220703	57768.128906
459.970703	57628.832031
458.721680	58034.070313
457.471680	58161.128906
456.221680	58041.265625
454.970703	58172.156250
453.720703	58332.140625
452.469727	58892.269531
451.218750	58902.488281
449.966797	59264.203125
448.715820	59439.382813
447.463867	60431.765625
446.211914	60771.628906
444.959961	61575.148438
443.707031	61930.183594
442.454102	62197.785156
441.201172	61379.203125
439.948242	61336.554688
438.695313	60400.179688
437.441406	59735.519531
436.187500	58916.074219
434.933594	58296.507813
433.678711	57971.632813
432.424805	57633.316406
431.169922	57091.796875
429.914063	56858.324219
428.659180	56667.523438
427.403320	56898.710938
426.147461	56661.527344
424.891602	56294.812500
423.635742	56547.203125
422.378906	56161.304688
421.122070	56255.070313
419.865234	56441.589844
418.608398	56119.703125
417.350586	55923.546875
416.092773	55982.496094
414.834961	55355.660156
413.577148	55936.160156
412.318359	55946.792969
411.059570	56295.277344
409.800781	56263.367188
408.541992	55901.453125
407.282227	55933.296875
406.022461	55988.277344
404.762695	55771.269531
403.502930	56038.382813
402.242188	56434.570313
400.981445	56015.187500
