#Wave		#Intensity
2001.221680	37627.792969
2000.251953	37803.250000
1999.282227	37551.054688
1998.312500	37865.222656
1997.342773	37798.488281
1996.372070	37741.792969
1995.402344	38216.035156
1994.431641	37505.769531
1993.460938	37454.156250
1992.490234	37850.601563
1991.518555	37463.601563
1990.547852	37802.355469
1989.576172	37505.554688
1988.604492	37651.582031
1987.632813	37945.105469
1986.661133	38035.992188
1985.689453	37984.347656
1984.716797	37802.746094
1983.745117	37758.656250
1982.772461	37774.546875
1981.799805	38107.703125
1980.827148	37771.339844
1979.853516	37844.656250
1978.880859	38117.695313
1977.907227	38240.851563
1976.933594	37989.554688
1975.959961	38047.800781
1974.986328	38313.125000
1974.011719	37607.906250
1973.038086	38087.718750
1972.063477	38058.617188
1971.088867	38368.625000
1970.114258	38346.960938
1969.138672	38773.957031
1968.164063	38159.105469
1967.188477	38025.359375
1966.212891	38506.992188
1965.237305	37857.632813
1964.261719	38167.289063
1963.286133	38065.996094
1962.309570	38178.835938
1961.333984	38296.609375
1960.357422	38003.718750
1959.380859	38479.781250
1958.404297	38184.472656
1957.426758	38095.710938
1956.450195	38770.449219
1955.472656	38214.164063
1954.495117	38137.867188
1953.517578	38158.539063
1952.540039	38199.078125
1951.561523	38383.714844
1950.583008	38295.019531
1949.605469	38496.960938
1948.626953	38336.250000
1947.647461	38361.820313
1946.668945	38161.468750
1945.690430	38537.031250
1944.710938	38455.835938
1943.731445	38590.535156
1942.751953	38400.199219
1941.772461	38706.000000
1940.791992	38384.273438
1939.812500	38451.937500
1938.832031	38249.359375
1937.851563	38639.242188
1936.871094	38672.128906
1935.890625	38412.625000
1934.909180	38809.699219
1933.928711	38503.199219
1932.947266	38979.363281
1931.965820	38432.765625
1930.984375	38426.031250
1930.002930	39023.238281
1929.020508	38751.605469
1928.038086	38546.875000
1927.056641	38342.214844
1926.074219	38657.039063
1925.090820	38553.820313
1924.108398	38826.460938
1923.125000	39071.812500
1922.142578	38852.402344
1921.159180	38628.121094
1920.175781	38492.871094
1919.191406	38777.628906
1918.208008	38452.207031
1917.223633	38885.042969
1916.240234	38893.039063
1915.255859	38809.695313
1914.271484	38533.855469
1913.286133	38687.503906
1912.301758	38942.261719
1911.316406	38609.796875
1910.331055	38948.335938
1909.345703	38633.250000
1908.360352	38754.687500
1907.375000	38905.664063
1906.388672	38903.769531
1905.402344	38394.222656
1904.416016	38899.976563
1903.429688	38767.515625
1902.443359	39144.949219
1901.457031	39310.464844
1900.469727	38951.476563
1899.482422	38735.394531
1898.495117	39282.394531
1897.507813	39046.640625
1896.520508	38877.398438
1895.532227	39330.597656
1894.543945	39407.320313
1893.556641	39575.003906
1892.568359	39462.332031
1891.579102	39543.906250
1890.590820	39509.925781
1889.601563	39158.953125
1888.613281	39378.121094
1887.624023	39388.406250
1886.634766	39162.894531
1885.644531	39455.613281
1884.655273	39441.320313
1883.665039	39228.187500
1882.674805	39569.824219
1881.684570	39381.281250
1880.694336	39121.652344
1879.704102	39097.609375
1878.712891	39358.082031
1877.722656	39383.050781
1876.731445	39150.566406
1875.740234	39170.652344
1874.748047	39352.496094
1873.756836	39264.714844
1872.764648	39441.574219
1871.773438	39170.078125
1870.781250	39368.933594
1869.788086	39229.781250
1868.795898	39426.101563
1867.803711	39025.054688
1866.810547	39451.406250
1865.817383	39341.695313
1864.824219	39087.667969
1863.831055	39406.144531
1862.837891	39245.132813
1861.843750	39211.335938
1860.849609	39661.644531
1859.855469	39564.226563
1858.861328	39508.386719
1857.867188	39161.773438
1856.872070	39462.734375
1855.877930	39326.328125
1854.882813	39236.371094
1853.887695	39395.523438
1852.892578	39308.023438
1851.896484	39508.601563
1850.901367	39777.445313
1849.905273	39633.796875
1848.909180	39729.292969
1847.913086	39766.214844
1846.916992	39571.421875
1845.919922	40013.140625
1844.923828	39620.886719
1843.926758	40189.199219
1842.929688	39792.175781
1841.932617	39982.550781
1840.935547	39897.550781
1839.937500	39907.582031
1838.939453	40295.105469
1837.942383	40117.562500
1836.943359	40237.101563
1835.945313	39913.570313
1834.947266	40339.757813
1833.948242	39901.953125
1832.949219	40483.695313
1831.951172	40016.828125
1830.951172	39939.250000
1829.952148	40265.351563
1828.953125	40114.820313
1827.953125	40017.820313
1826.953125	40365.601563
1825.953125	40390.082031
1824.953125	40562.750000
1823.952148	40038.218750
1822.952148	40436.746094
1821.951172	40810.851563
1820.950195	40505.046875
1819.949219	40209.054688
1818.948242	40388.843750
1817.946289	40534.597656
1816.945313	40871.957031
1815.943359	40658.578125
1814.941406	40551.980469
1813.939453	41049.187500
1812.936523	41029.832031
1811.934570	40719.609375
1810.931641	40814.218750
1809.928711	41189.871094
1808.925781	40797.410156
1807.921875	41248.019531
1806.918945	41051.847656
1805.915039	40911.437500
1804.912109	41921.019531
1803.908203	41734.507813
1802.903320	41407.699219
1801.899414	41531.058594
1800.894531	41722.113281
1799.890625	41131.824219
1798.885742	41593.734375
1797.880859	41804.015625
1796.875000	41801.476563
1795.870117	42214.679688
1794.864258	41813.316406
1793.858398	42141.796875
1792.852539	42134.363281
1791.846680	42339.484375
1790.840820	42324.769531
1789.833984	42063.773438
1788.828125	42336.390625
1787.821289	42546.152344
1786.814453	42608.628906
1785.806641	42499.769531
1784.799805	42504.332031
1783.791992	42286.988281
1782.784180	42554.441406
1781.776367	42537.285156
1780.768555	42626.207031
1779.760742	42881.402344
1778.751953	42796.714844
1777.743164	43307.187500
1776.735352	42897.238281
1775.725586	42692.160156
1774.716797	42829.113281
1773.708008	42956.382813
1772.698242	42833.246094
1771.688477	43167.457031
1770.678711	43352.351563
1769.668945	43440.933594
1768.659180	43897.542969
1767.648438	43509.773438
1766.637695	43538.156250
1765.626953	43357.355469
1764.616211	43767.972656
1763.605469	43344.437500
1762.593750	44146.609375
1761.583008	43730.363281
1760.571289	43710.625000
1759.559570	43748.535156
1758.547852	43824.851563
1757.535156	43985.171875
1756.523438	43972.593750
1755.510742	44449.640625
1754.498047	43954.652344
1753.485352	44491.511719
1752.472656	44262.953125
1751.458984	44075.250000
1750.445313	44242.507813
1749.432617	44759.750000
1748.417969	45267.214844
1747.404297	44727.144531
1746.390625	44740.800781
1745.375977	45156.953125
1744.361328	45165.738281
1743.346680	45061.949219
1742.332031	45010.875000
1741.317383	45390.765625
1740.302734	45629.292969
1739.287109	45530.273438
1738.271484	45644.257813
1737.255859	45861.074219
1736.240234	46618.410156
1735.223633	46100.750000
1734.208008	46757.343750
1733.191406	47236.785156
1732.174805	46712.113281
1731.158203	47095.792969
1730.140625	47414.820313
1729.124023	47492.433594
1728.106445	47882.933594
1727.088867	47989.089844
1726.071289	48701.714844
1725.053711	48564.171875
1724.035156	48567.511719
1723.017578	48582.777344
1721.999023	49006.062500
1720.980469	49565.179688
1719.961914	49811.628906
1718.942383	49449.847656
1717.923828	49793.988281
1716.904297	50028.335938
1715.884766	49843.089844
1714.865234	49553.050781
1713.844727	49434.667969
1712.825195	50538.453125
1711.804688	49988.808594
1710.784180	49691.792969
1709.763672	49559.175781
1708.743164	49976.527344
1707.722656	49777.257813
1706.701172	49142.554688
1705.679688	49281.363281
1704.658203	49636.609375
1703.636719	49746.738281
1702.615234	49476.332031
1701.592773	49103.777344
1700.571289	49318.535156
1699.548828	48988.921875
1698.526367	49265.406250
1697.502930	49278.054688
1696.480469	49335.835938
1695.457031	49132.324219
1694.433594	48938.386719
1693.410156	49008.058594
1692.386719	48942.398438
1691.363281	49341.953125
1690.338867	49224.042969
1689.314453	48757.394531
1688.290039	49156.765625
1687.265625	49022.343750
1686.241211	49272.125000
1685.215820	49256.273438
1684.191406	49380.285156
1683.166016	49170.066406
1682.140625	49203.996094
1681.115234	49481.945313
1680.088867	48978.078125
1679.062500	49225.175781
1678.037109	49280.375000
1677.010742	49363.964844
1675.983398	49677.136719
1674.957031	50016.230469
1673.930664	49758.890625
1672.903320	49407.003906
1671.875977	49109.644531
1670.848633	49793.886719
1669.820313	50376.207031
1668.792969	50140.296875
1667.764648	50320.500000
1666.736328	50422.640625
1665.708008	50666.523438
1664.679688	50272.433594
1663.651367	50438.304688
1662.622070	50802.492188
1661.592773	50769.859375
1660.563477	50852.914063
1659.534180	50747.101563
1658.504883	50910.371094
1657.474609	50950.875000
1656.444336	51196.617188
1655.415039	51378.582031
1654.383789	51720.843750
1653.353516	51289.585938
1652.323242	51502.078125
1651.291992	51441.070313
1650.260742	51915.046875
1649.229492	52035.414063
1648.198242	52094.484375
1647.166016	52311.343750
1646.134766	52356.210938
1645.102539	52422.250000
1644.070313	52843.742188
1643.038086	53375.707031
1642.004883	52568.441406
1640.972656	53213.199219
1639.939453	52897.914063
1638.906250	53523.566406
1637.873047	53457.609375
1636.839844	54184.035156
1635.805664	54063.914063
1634.772461	53936.777344
1633.738281	54801.375000
1632.704102	54258.277344
1631.668945	55019.140625
1630.634766	55124.441406
1629.599609	55081.757813
1628.565430	55238.656250
1627.530273	55698.324219
1626.494141	56096.800781
1625.458984	56342.597656
1624.422852	56564.847656
1623.387695	57547.054688
1622.351563	57806.531250
1621.315430	58713.121094
1620.278320	59558.429688
1619.242188	60368.273438
1618.205078	61473.128906
1617.167969	62720.535156
1616.130859	64773.441406
1615.093750	66108.820313
1614.055664	67905.109375
1613.018555	69316.718750
1611.980469	70533.507813
1610.942383	71237.234375
1609.904297	71283.054688
1608.865234	70399.898438
1607.827148	69753.343750
1606.788086	68634.515625
1605.749023	67483.335938
1604.709961	66119.789063
1603.669922	64836.207031
1602.630859	63345.046875
1601.590820	63013.585938
1600.550781	61885.453125
1599.510742	61594.082031
1598.470703	60844.996094
1597.429688	61042.000000
1596.389648	60739.253906
1595.348633	60198.488281
1594.307617	59898.328125
1593.265625	59651.945313
1592.224609	59487.316406
1591.182617	59658.675781
1590.140625	59307.500000
1589.098633	59404.203125
1588.056641	59148.789063
1587.014648	59245.480469
1585.971680	58899.281250
1584.928711	59177.746094
1583.886719	59300.000000
1582.842773	58974.933594
1581.799805	58740.820313
1580.755859	59314.851563
1579.712891	59055.144531
1578.668945	59631.238281
1577.625000	60006.960938
1576.580078	59733.300781
1575.536133	59476.019531
1574.491211	59872.496094
1573.446289	59826.925781
1572.401367	59832.531250
1571.356445	60419.375000
1570.311523	60520.171875
1569.265625	60748.757813
1568.219727	60117.476563
1567.173828	59360.960938
1566.127930	59473.480469
1565.082031	59448.929688
1564.035156	59561.386719
1562.988281	59049.273438
1561.941406	59010.875000
1560.894531	59165.121094
1559.847656	59096.546875
1558.799805	58659.109375
1557.751953	58787.812500
1556.704102	58765.718750
1555.656250	59114.632813
1554.608398	58436.386719
1553.560547	58824.636719
1552.511719	58853.527344
1551.462891	58877.769531
1550.414063	58751.417969
1549.365234	58907.695313
1548.315430	59059.281250
1547.265625	58627.316406
1546.216797	58765.003906
1545.166992	58275.375000
1544.116211	58387.617188
1543.066406	58636.328125
1542.015625	58355.179688
1540.965820	58354.003906
1539.915039	58357.449219
1538.863281	57792.101563
1537.812500	57915.851563
1536.760742	58716.773438
1535.709961	58105.441406
1534.658203	57815.480469
1533.605469	57232.246094
1532.553711	57113.457031
1531.501953	57364.191406
1530.449219	56700.531250
1529.396484	56923.542969
1528.343750	56885.664063
1527.290039	56695.496094
1526.237305	56366.964844
1525.183594	56423.777344
1524.129883	56146.148438
1523.076172	56027.722656
1522.022461	55715.675781
1520.968750	55765.640625
1519.914063	56115.195313
1518.859375	55897.769531
1517.804688	55456.937500
1516.750000	55177.507813
1515.694336	55572.972656
1514.639648	55749.542969
1513.583984	55573.800781
1512.528320	55639.816406
1511.472656	55459.550781
1510.416016	55438.117188
1509.360352	55043.996094
1508.303711	54942.132813
1507.247070	54771.312500
1506.190430	55055.824219
1505.132813	55183.902344
1504.076172	55208.496094
1503.018555	54890.664063
1501.960938	54779.734375
1500.903320	55148.976563
1499.844727	54946.160156
1498.787109	55060.328125
1497.728516	54650.949219
1496.669922	54912.046875
1495.611328	55443.886719
1494.552734	54917.617188
1493.493164	54614.089844
1492.434570	55127.339844
1491.375000	54672.503906
1490.315430	54529.703125
1489.254883	54772.132813
1488.195313	54441.386719
1487.134766	54527.890625
1486.074219	54323.335938
1485.013672	54446.484375
1483.953125	54290.121094
1482.892578	54509.417969
1481.831055	54710.316406
1480.769531	54657.007813
1479.708008	54452.636719
1478.646484	54305.550781
1477.583984	54478.875000
1476.522461	54395.894531
1475.459961	54255.753906
1474.397461	54314.636719
1473.334961	54231.722656
1472.271484	54539.777344
1471.208984	54207.695313
1470.145508	54168.261719
1469.082031	54690.945313
1468.018555	54589.750000
1466.954102	54577.671875
1465.890625	54417.152344
1464.826172	54927.988281
1463.761719	54888.453125
1462.697266	54903.710938
1461.631836	55183.687500
1460.567383	54833.808594
1459.501953	54849.062500
1458.436523	55135.730469
1457.371094	55308.269531
1456.305664	55435.144531
1455.239258	55251.941406
1454.172852	55075.636719
1453.107422	55505.562500
1452.040039	54948.773438
1450.973633	55506.132813
1449.907227	55211.464844
1448.839844	55212.933594
1447.772461	55382.886719
1446.705078	55448.058594
1445.637695	55417.613281
1444.569336	55628.390625
1443.500977	55770.832031
1442.432617	55510.589844
1441.364258	55671.195313
1440.295898	56177.375000
1439.227539	55994.492188
1438.158203	55988.976563
1437.088867	56281.183594
1436.019531	56750.523438
1434.950195	56819.843750
1433.879883	56789.187500
1432.810547	57242.277344
1431.740234	57059.417969
1430.669922	57124.078125
1429.598633	57604.097656
1428.528320	57194.320313
1427.457031	57292.949219
1426.386719	57584.375000
1425.314453	57240.593750
1424.243164	57314.210938
1423.171875	57764.187500
1422.099609	57561.101563
1421.027344	57439.687500
1419.955078	57610.652344
1418.882813	57351.054688
1417.810547	57315.820313
1416.737305	57502.558594
1415.664063	56939.667969
1414.590820	56877.347656
1413.517578	57423.992188
1412.444336	57160.167969
1411.370117	56640.726563
1410.295898	56655.421875
1409.221680	56941.562500
1408.147461	56569.445313
1407.073242	56724.335938
1405.998047	56607.863281
1404.922852	56640.625000
1403.847656	56501.605469
1402.772461	56493.691406
1401.697266	56921.816406
1400.621094	56843.804688
1399.544922	56781.625000
1398.468750	56816.562500
1397.392578	56770.207031
1396.316406	57434.894531
1395.239258	58167.039063
1394.162109	57569.898438
1393.084961	58053.593750
1392.007813	58354.410156
1390.930664	59045.261719
1389.852539	59420.191406
1388.774414	59824.292969
1387.696289	59707.578125
1386.618164	59931.191406
1385.540039	59918.136719
1384.460938	60461.515625
1383.382813	61175.875000
1382.303711	60682.937500
1381.223633	61077.277344
1380.144531	61372.421875
1379.064453	61444.636719
1377.985352	60758.464844
1376.905273	61138.996094
1375.825195	61271.945313
1374.744141	60833.570313
1373.664063	60802.363281
1372.583008	61049.953125
1371.501953	60526.429688
1370.420898	59625.515625
1369.338867	60237.199219
1368.257813	59554.582031
1367.175781	59813.394531
1366.093750	59083.933594
1365.011719	59589.730469
1363.929688	58833.625000
1362.846680	59516.605469
1361.763672	59032.335938
1360.680664	59115.925781
1359.597656	59589.839844
1358.514648	59496.093750
1357.430664	59353.042969
1356.346680	59127.082031
1355.262695	58816.007813
1354.178711	58451.253906
1353.094727	58182.988281
1352.009766	57854.324219
1350.925781	57700.507813
1349.840820	57475.070313
1348.755859	57240.757813
1347.669922	56984.136719
1346.584961	57034.289063
1345.499023	56623.359375
1344.413086	56566.144531
1343.327148	56623.050781
1342.240234	56715.722656
1341.154297	56168.707031
1340.067383	56299.441406
1338.980469	56029.925781
1337.893555	56053.335938
1336.805664	56514.781250
1335.718750	56466.585938
1334.630859	56798.203125
1333.542969	56332.261719
1332.455078	56487.351563
1331.367188	56637.914063
1330.278320	56533.914063
1329.189453	56588.429688
1328.100586	56435.371094
1327.011719	56465.335938
1325.922852	56493.054688
1324.833008	57288.050781
1323.743164	57304.457031
1322.653320	57648.621094
1321.563477	57852.207031
1320.473633	58650.832031
1319.382813	58954.445313
1318.291992	58930.417969
1317.201172	58890.800781
1316.110352	60363.515625
1315.019531	60323.648438
1313.927734	60793.656250
1312.835938	60459.878906
1311.744141	60555.777344
1310.652344	60720.617188
1309.560547	60582.816406
1308.467773	60598.550781
1307.375000	60216.167969
1306.282227	59682.718750
1305.189453	59293.964844
1304.095703	59149.867188
1303.002930	58899.136719
1301.909180	58792.933594
1300.815430	58433.496094
1299.721680	58727.226563
1298.626953	58501.175781
1297.533203	58346.257813
1296.438477	58628.742188
1295.343750	58862.285156
1294.248047	59066.894531
1293.153320	59420.085938
1292.057617	59393.800781
1290.961914	59274.359375
1289.866211	59352.332031
1288.770508	59292.804688
1287.674805	59348.570313
1286.578125	59535.082031
1285.481445	59776.925781
1284.384766	60218.082031
1283.288086	59407.480469
1282.190430	59587.191406
1281.092773	59357.171875
1279.996094	59563.390625
1278.897461	59302.460938
1277.799805	59063.753906
1276.702148	58889.304688
1275.603516	58863.144531
1274.504883	58799.390625
1273.406250	58397.281250
1272.307617	57990.890625
1271.208008	58285.468750
1270.108398	57976.500000
1269.008789	57627.859375
1267.909180	57579.847656
1266.809570	57920.671875
1265.708984	57530.257813
1264.609375	57241.566406
1263.508789	56977.269531
1262.407227	56883.046875
1261.306641	57475.292969
1260.206055	56270.996094
1259.104492	56638.082031
1258.002930	56382.941406
1256.901367	56304.343750
1255.798828	55934.679688
1254.697266	56248.636719
1253.594727	55982.722656
1252.492188	55831.511719
1251.389648	55512.875000
1250.286133	55599.742188
1249.183594	55737.242188
1248.080078	55244.800781
1246.976563	55091.644531
1245.872070	55031.007813
1244.768555	54866.937500
1243.664063	54850.375000
1242.560547	55067.058594
1241.455078	55127.460938
1240.350586	54919.488281
1239.246094	54753.375000
1238.140625	54941.324219
1237.035156	55239.121094
1235.929688	54927.964844
1234.824219	54555.386719
1233.717773	54666.324219
1232.612305	54509.207031
1231.505859	54523.468750
1230.399414	54981.312500
1229.291992	54422.421875
1228.185547	54326.921875
1227.078125	54468.492188
1225.970703	54089.937500
1224.863281	54156.898438
1223.755859	53745.628906
1222.647461	53762.179688
1221.539063	53658.117188
1220.430664	53782.101563
1219.322266	53160.753906
1218.213867	53858.984375
1217.104492	53597.203125
1215.995117	54165.835938
1214.885742	54272.062500
1213.776367	54378.285156
1212.666992	53284.535156
1211.556641	53414.953125
1210.446289	52958.722656
1209.335938	53115.410156
1208.225586	53368.316406
1207.115234	53299.542969
1206.003906	53486.699219
1204.892578	53592.871094
1203.781250	53801.769531
1202.669922	53597.421875
1201.557617	53382.222656
1200.446289	53582.292969
1199.333984	53815.062500
1198.221680	53862.066406
1197.108398	53865.367188
1195.996094	54338.156250
1194.882813	54083.738281
1193.769531	54423.156250
1192.656250	53978.937500
1191.542969	54536.449219
1190.428711	54557.066406
1189.314453	53942.921875
1188.200195	54310.394531
1187.085938	54398.625000
1185.971680	54046.449219
1184.856445	53894.929688
1183.741211	54150.988281
1182.625977	54343.761719
1181.510742	54562.609375
1180.395508	54182.394531
1179.279297	54425.136719
1178.163086	54367.324219
1177.046875	54727.496094
1175.930664	54358.398438
1174.813477	54039.488281
1173.697266	54192.820313
1172.580078	54159.019531
1171.462891	54012.128906
1170.344727	53669.582031
1169.227539	53540.226563
1168.109375	53478.296875
1166.991211	53242.523438
1165.873047	53474.015625
1164.754883	53931.367188
1163.635742	53156.937500
1162.516602	53509.929688
1161.397461	53128.871094
1160.278320	53544.695313
1159.159180	53398.187500
1158.039063	53670.570313
1156.918945	53068.437500
1155.798828	53568.562500
1154.678711	53341.894531
1153.558594	53139.160156
1152.437500	53107.785156
1151.316406	53436.277344
1150.195313	53370.175781
1149.074219	53447.121094
1147.952148	53088.542969
1146.831055	53403.789063
1145.708984	53666.941406
1144.586914	53646.320313
1143.463867	54015.410156
1142.341797	53628.906250
1141.218750	54679.597656
1140.095703	54243.339844
1138.972656	54553.628906
1137.849609	54708.062500
1136.725586	54618.058594
1135.601563	54822.152344
1134.477539	54909.425781
1133.353516	54737.292969
1132.229492	54588.988281
1131.104492	54393.199219
1129.979492	54085.144531
1128.854492	53880.878906
1127.729492	54153.933594
1126.603516	54159.156250
1125.478516	53503.804688
1124.352539	53712.023438
1123.226563	53551.156250
1122.099609	53826.167969
1120.973633	53473.347656
1119.846680	52644.015625
1118.719727	53057.039063
1117.592773	53290.968750
1116.465820	52472.894531
1115.337891	52618.476563
1114.209961	52550.679688
1113.082031	52426.890625
1111.954102	52395.769531
1110.826172	52463.722656
1109.697266	52755.578125
1108.568359	51876.199219
1107.439453	51761.246094
1106.310547	52029.394531
1105.180664	52069.367188
1104.051758	52358.867188
1102.921875	51405.074219
1101.791992	51518.246094
1100.661133	51366.921875
1099.531250	52023.921875
1098.400391	51887.597656
1097.269531	51609.496094
1096.138672	51587.164063
1095.006836	51700.167969
1093.875977	51667.082031
1092.744141	51200.253906
1091.612305	51244.558594
1090.480469	50810.171875
1089.347656	51109.914063
1088.215820	50821.613281
1087.083008	50659.996094
1085.950195	50940.289063
1084.816406	51359.875000
1083.683594	50825.152344
1082.549805	50712.949219
1081.416016	50680.085938
1080.282227	50381.503906
1079.148438	50691.527344
1078.013672	50680.101563
1076.878906	50083.964844
1075.744141	50689.378906
1074.609375	50780.722656
1073.474609	50572.343750
1072.338867	50751.421875
1071.203125	50416.867188
1070.067383	50375.542969
1068.931641	50975.945313
1067.794922	50179.574219
1066.659180	50687.843750
1065.522461	50691.382813
1064.385742	50588.042969
1063.248047	50766.839844
1062.111328	51266.070313
1060.973633	50605.097656
1059.835938	50442.035156
1058.698242	51295.546875
1057.559570	50438.492188
1056.421875	50510.367188
1055.283203	50522.449219
1054.144531	50884.496094
1053.005859	50757.820313
1051.866211	50684.515625
1050.726563	50798.925781
1049.587891	51098.808594
1048.447266	50854.914063
1047.307617	51092.855469
1046.167969	51177.257813
1045.027344	51336.207031
1043.886719	51446.093750
1042.746094	51421.746094
1041.604492	51290.921875
1040.463867	51368.812500
1039.322266	51112.433594
1038.180664	51328.675781
1037.038086	50885.125000
1035.896484	51137.492188
1034.753906	51117.472656
1033.611328	50940.062500
1032.468750	51049.796875
1031.326172	51116.968750
1030.182617	51158.601563
1029.040039	51013.187500
1027.896484	51088.820313
1026.751953	51200.542969
1025.608398	51422.679688
1024.463867	51149.882813
1023.319336	51422.906250
1022.174805	51460.167969
1021.030273	51488.921875
1019.885742	51647.125000
1018.740234	51276.921875
1017.594727	51112.632813
1016.449219	51529.582031
1015.303711	51291.078125
1014.157227	51455.519531
1013.010742	51484.222656
1011.864258	51101.726563
1010.717773	51550.070313
1009.571289	51154.984375
1008.423828	51486.636719
1007.276367	50981.570313
1006.128906	51757.820313
1004.981445	52131.519531
1003.833008	52115.585938
1002.684570	52387.484375
1001.536133	52684.675781
1000.387695	53005.027344
999.239258	53109.503906
998.089844	53909.726563
996.941406	53529.781250
995.791992	53306.417969
994.641602	53203.609375
993.492188	53373.453125
992.341797	53471.394531
991.191406	53305.234375
990.041016	53120.121094
988.890625	53184.257813
987.739258	53364.496094
986.588867	53597.437500
985.437500	52654.699219
984.285156	52940.437500
983.133789	52981.328125
981.981445	52587.664063
980.829102	53240.218750
979.676758	52612.589844
978.524414	52720.964844
977.372070	53086.460938
976.218750	52933.378906
975.065430	53347.156250
973.912109	52949.703125
972.757813	53112.667969
971.604492	53138.691406
970.450195	53099.425781
969.295898	52917.027344
968.141602	53387.164063
966.986328	53141.640625
965.832031	53649.433594
964.676758	53412.363281
963.521484	53730.621094
962.365234	53407.402344
961.209961	53342.898438
960.053711	53515.949219
958.897461	53119.382813
957.741211	54397.671875
956.584961	53610.320313
955.427734	54272.597656
954.270508	53447.753906
953.113281	53826.351563
951.956055	54114.535156
950.797852	53877.871094
949.639648	54027.429688
948.481445	53465.648438
947.323242	53644.589844
946.165039	53848.636719
945.005859	53935.167969
943.847656	53581.375000
942.687500	53714.039063
941.528320	53389.753906
940.369141	54180.371094
939.208984	54182.949219
938.048828	54038.894531
936.888672	53943.058594
935.728516	53828.410156
934.567383	54260.214844
933.406250	53810.640625
932.245117	54313.437500
931.083984	53918.417969
929.922852	54149.046875
928.760742	54279.191406
927.598633	54005.679688
926.436523	54204.792969
925.274414	54485.359375
924.111328	54613.246094
922.948242	54745.257813
921.785156	54967.062500
920.622070	54848.292969
919.458984	54984.359375
918.294922	55112.023438
917.130859	55172.828125
915.966797	55607.246094
914.802734	54979.230469
913.637695	55175.648438
912.472656	55317.750000
911.307617	55493.167969
910.142578	56166.937500
908.977539	56388.000000
907.811523	56661.097656
906.645508	56963.269531
905.479492	56769.359375
904.313477	56358.835938
903.146484	56608.808594
901.980469	56675.410156
900.813477	56086.039063
899.646484	56009.050781
898.478516	56007.023438
897.311523	55703.218750
896.143555	55285.082031
894.975586	55844.898438
893.806641	55763.851563
892.638672	55811.769531
891.469727	56200.667969
890.300781	56206.906250
889.131836	56431.382813
887.962891	56514.460938
886.792969	56057.292969
885.623047	56599.500000
884.453125	56443.640625
883.283203	56094.714844
882.112305	56161.156250
880.942383	56435.152344
879.771484	56879.230469
878.600586	56769.101563
877.428711	57105.062500
876.257813	57165.019531
875.085938	57743.425781
873.914063	57473.550781
872.741211	57311.574219
871.569336	57385.945313
870.396484	57126.640625
869.223633	57084.984375
868.050781	57225.640625
866.877930	57333.101563
865.704102	57807.058594
864.530273	57777.718750
863.356445	58019.566406
862.182617	58408.265625
861.007813	58695.425781
859.833984	59212.125000
858.659180	59232.183594
857.484375	59041.285156
856.308594	59241.257813
855.133789	58880.894531
853.958008	58034.917969
852.782227	57972.500000
851.605469	58313.015625
850.429688	58211.312500
849.252930	58070.398438
848.076172	58152.562500
846.899414	58172.753906
845.722656	58529.417969
844.544922	58283.281250
843.367188	58753.281250
842.189453	59452.117188
841.011719	59820.644531
839.833008	59848.738281
838.655273	60111.886719
837.476563	60554.300781
836.296875	60990.359375
835.118164	61380.917969
833.938477	61291.234375
832.758789	60880.203125
831.579102	60117.113281
830.399414	60388.089844
829.219727	59468.882813
828.039063	58840.277344
826.858398	58399.195313
825.677734	58001.492188
824.496094	57610.101563
823.315430	57107.777344
822.133789	57058.101563
820.952148	56887.121094
819.769531	56465.378906
818.587891	56356.230469
817.405273	56374.542969
816.222656	56156.542969
815.040039	56022.855469
813.856445	55525.656250
812.673828	56236.164063
811.490234	56180.550781
810.305664	55706.171875
809.122070	55209.390625
807.938477	55738.832031
806.753906	56025.976563
805.569336	55843.257813
804.383789	55806.222656
803.199219	55451.359375
802.013672	55822.390625
800.828125	55828.417969
799.642578	55315.933594
798.457031	55242.132813
797.270508	55070.023438
796.083984	55164.250000
794.897461	55074.128906
793.710938	54719.910156
792.523438	54591.003906
791.336914	54304.542969
790.149414	54302.632813
788.961914	53999.957031
787.773438	53580.792969
786.585938	53838.757813
785.397461	53800.117188
784.208984	53939.359375
783.019531	53692.210938
781.831055	53510.554688
780.641602	53459.734375
779.452148	53339.468750
778.262695	53492.953125
777.072266	52843.792969
775.882813	52985.054688
774.692383	52642.445313
773.501953	53349.058594
772.310547	53251.378906
771.120117	53339.406250
769.928711	53149.964844
768.737305	52840.261719
767.544922	53330.019531
766.353516	52959.226563
765.161133	52998.289063
763.968750	53481.625000
762.776367	53665.242188
761.583984	53714.328125
760.390625	53726.734375
759.197266	54234.000000
758.003906	54044.718750
756.810547	54276.910156
755.616211	54224.054688
754.421875	54006.386719
753.227539	54600.605469
752.033203	54740.964844
750.838867	54283.320313
749.643555	54114.597656
748.448242	53921.535156
747.252930	53472.425781
746.057617	53606.753906
744.861328	53344.804688
743.665039	52997.621094
742.468750	52884.152344
741.272461	52683.398438
740.075195	52362.921875
738.878906	52261.804688
737.681641	52554.484375
736.484375	51743.113281
735.286133	52206.203125
734.087891	52249.210938
732.890625	52056.933594
731.691406	51909.335938
730.493164	52432.863281
729.294922	52102.812500
728.095703	51985.683594
726.896484	51943.562500
725.696289	51636.066406
724.497070	51634.535156
723.296875	51582.375000
722.096680	51457.339844
720.896484	51437.613281
719.696289	51709.351563
718.495117	51090.589844
717.293945	51857.984375
716.092773	51819.984375
714.891602	51506.937500
713.689453	51699.535156
712.487305	51556.449219
711.285156	51506.398438
710.083008	51680.691406
708.880859	51757.925781
707.677734	51410.882813
706.474609	51443.699219
705.271484	51470.445313
704.068359	51406.316406
702.864258	51970.031250
701.660156	51857.390625
700.456055	51482.449219
699.251953	51718.976563
698.046875	51947.347656
696.841797	51863.019531
695.636719	51625.468750
694.431641	52115.812500
693.226563	51362.277344
692.020508	51838.371094
690.814453	51786.371094
689.608398	51855.257813
688.402344	51573.648438
687.195313	52019.132813
685.988281	51403.359375
684.781250	51572.914063
683.574219	51885.304688
682.366211	51732.726563
681.158203	52099.289063
679.950195	51809.937500
678.742188	51530.750000
677.534180	51842.839844
676.325195	51732.621094
675.116211	51879.730469
673.907227	51723.320313
672.697266	52266.203125
671.488281	51975.175781
670.278320	51672.199219
669.068359	51781.015625
667.858398	51407.914063
666.647461	51510.710938
665.436523	51131.769531
664.225586	51094.484375
663.014648	51057.199219
661.802734	51019.886719
660.591797	50982.601563
659.379883	50945.289063
658.167969	50907.972656
656.955078	50613.812500
655.743164	51333.812500
654.530273	50574.824219
653.317383	50597.406250
652.103516	50752.167969
650.890625	50668.570313
649.676758	51087.546875
648.462891	51077.976563
647.249023	51550.753906
646.034180	51256.945313
644.819336	51299.359375
643.604492	51589.792969
642.389648	51404.132813
641.174805	51602.457031
639.958984	51614.777344
638.743164	51541.140625
637.527344	51487.515625
636.311523	51933.421875
635.094727	50974.789063
633.877930	51180.945313
632.661133	50835.863281
631.444336	50662.617188
630.226563	50317.757813
629.008789	50316.308594
627.791016	51001.281250
626.573242	50301.429688
625.355469	50587.207031
624.136719	50918.746094
622.917969	50388.781250
621.699219	50118.171875
620.480469	50188.496094
619.260742	50611.523438
618.041016	49836.929688
616.821289	50136.351563
615.601563	50383.871094
614.380859	50388.355469
613.160156	50353.019531
611.939453	50025.078125
610.718750	49822.636719
609.497070	49952.574219
608.276367	49969.058594
607.054688	49937.800781
605.832031	49811.093750
604.610352	50330.636719
603.387695	50098.535156
602.165039	49359.683594
600.942383	50073.761719
599.719727	49947.132813
598.496094	49959.605469
597.272461	50121.023438
596.048828	50117.566406
594.825195	50050.578125
593.600586	49850.617188
592.375977	49505.855469
591.151367	49343.769531
589.926758	49788.800781
588.701172	49801.265625
587.476563	49770.089844
586.250977	49917.375000
585.024414	49463.945313
583.798828	49428.882813
582.572266	49465.167969
581.345703	49543.042969
580.119141	49757.570313
578.892578	49506.593750
577.665039	50091.324219
576.437500	49685.953125
575.209961	49704.324219
573.982422	49843.402344
572.753906	49857.773438
571.525391	50117.441406
570.296875	50082.300781
569.068359	50084.746094
567.838867	50027.871094
566.610352	49540.082031
565.380859	49738.285156
564.150391	49837.605469
562.920898	49832.179688
561.690430	49680.582031
560.459961	49860.828125
559.229492	50277.945313
557.999023	49747.300781
556.767578	50168.226563
555.536133	49823.300781
554.304688	49867.191406
553.073242	49802.570313
551.840820	49753.746094
550.608398	50044.117188
549.375977	50129.328125
548.143555	50021.328125
546.910156	49944.898438
545.676758	49663.570313
544.443359	49945.789063
543.209961	49833.957031
541.975586	49751.703125
540.742188	50092.808594
539.507813	50002.660156
538.272461	49995.207031
537.038086	50328.195313
535.802734	50096.386719
534.567383	49982.687500
533.332031	50238.781250
532.096680	50445.617188
530.860352	50241.472656
529.624023	50460.015625
528.387695	50580.210938
527.151367	50509.765625
525.914063	50940.296875
524.676758	50751.957031
523.439453	50661.871094
522.202148	50703.367188
520.963867	50436.644531
519.725586	50409.468750
518.487305	50309.695313
517.249023	50388.496094
516.009766	50155.371094
514.771484	50600.910156
513.532227	50410.964844
512.291992	50077.980469
511.052734	50295.902344
509.812500	50031.648438
508.572266	49894.847656
507.332031	50281.148438
506.090820	50169.812500
504.850586	50246.503906
503.609375	50509.164063
502.368164	50734.531250
501.125977	50674.066406
499.884766	50533.398438
498.642578	50584.507813
497.400391	50500.625000
496.157227	50352.238281
494.915039	50686.859375
493.671875	50802.402344
492.428711	51039.082031
491.184570	50957.136719
489.941406	50623.179688
488.697266	51041.421875
487.453125	50781.785156
486.208984	51104.152344
484.963867	51049.593750
483.718750	51174.632813
482.473633	50960.042969
481.228516	51931.882813
479.982422	51249.019531
478.737305	51233.484375
477.491211	51383.710938
476.244141	51044.488281
474.998047	51943.253906
473.750977	51319.492188
472.503906	51779.414063
471.256836	51701.433594
470.009766	52016.960938
468.761719	51674.093750
467.513672	52166.691406
466.265625	52113.996094
465.017578	52347.445313
463.768555	52450.417969
462.519531	52240.089844
461.270508	52432.519531
460.021484	52657.941406
458.771484	52669.371094
457.521484	52818.832031
456.271484	53047.929688
455.021484	53238.070313
453.770508	53775.957031
452.519531	53623.960938
451.268555	53942.074219
450.017578	54495.050781
448.765625	53972.136719
447.514648	54839.382813
446.262695	54861.996094
445.009766	55400.781250
443.757813	55788.031250
442.504883	55955.929688
441.251953	56242.070313
439.999023	55259.937500
438.745117	55045.906250
437.492188	54667.195313
436.238281	53621.960938
434.983398	53514.921875
433.729492	53113.460938
432.474609	52557.195313
431.219727	52473.179688
429.964844	52389.164063
428.709961	52305.148438
427.454102	52221.070313
426.198242	52136.988281
424.942383	52052.906250
423.685547	51968.761719
422.429688	51884.679688
421.172852	51800.535156
419.916016	51409.871094
418.658203	51894.933594
417.401367	51979.785156
416.143555	51390.292969
414.885742	51191.238281
413.626953	51927.042969
412.369141	51965.468750
411.110352	51679.531250
409.851563	51449.675781
408.591797	51712.035156
407.333008	51511.199219
406.073242	51705.917969
404.813477	51869.703125
403.553711	51506.953125
402.292969	51636.000000
401.032227	51685.960938
