#Wave		#Intensity
2001.221680	40943.914063
2000.251953	41297.332031
1999.282227	41430.464844
1998.312500	41200.230469
1997.342773	41140.425781
1996.372070	41353.664063
1995.402344	40670.273438
1994.431641	41133.906250
1993.460938	41459.683594
1992.490234	41397.375000
1991.518555	41340.093750
1990.547852	41475.496094
1989.576172	41368.187500
1988.604492	41298.429688
1987.632813	41458.773438
1986.661133	41269.000000
1985.689453	41331.792969
1984.716797	41657.007813
1983.745117	41632.234375
1982.772461	41824.855469
1981.799805	41457.804688
1980.827148	41602.925781
1979.853516	41535.718750
1978.880859	41663.292969
1977.907227	41718.425781
1976.933594	41593.820313
1975.959961	41910.980469
1974.986328	41399.632813
1974.011719	41689.269531
1973.038086	42387.863281
1972.063477	42046.277344
1971.088867	41869.375000
1970.114258	41829.648438
1969.138672	41583.050781
1968.164063	42291.015625
1967.188477	41982.128906
1966.212891	42126.753906
1965.237305	42333.593750
1964.261719	41922.753906
1963.286133	42405.937500
1962.309570	42781.902344
1961.333984	42729.617188
1960.357422	42184.601563
1959.380859	42159.804688
1958.404297	42488.277344
1957.426758	42928.562500
1956.450195	42911.105469
1955.472656	42331.714844
1954.495117	42600.253906
1953.517578	42950.726563
1952.540039	42900.960938
1951.561523	42955.574219
1950.583008	43151.765625
1949.605469	43067.355469
1948.626953	42982.859375
1947.647461	42898.281250
1946.668945	42813.789063
1945.690430	42729.292969
1944.710938	43376.972656
1943.731445	42813.582031
1942.751953	43540.402344
1941.772461	43589.828125
1940.791992	43956.664063
1939.812500	43775.406250
1938.832031	43601.644531
1937.851563	43256.914063
1936.871094	43526.898438
1935.890625	43615.906250
1934.909180	43424.949219
1933.928711	43858.226563
1932.947266	43610.332031
1931.965820	44120.179688
1930.984375	43394.531250
1930.002930	44047.796875
1929.020508	43866.847656
1928.038086	43619.156250
1927.056641	43876.218750
1926.074219	43480.203125
1925.090820	44038.898438
1924.108398	43949.585938
1923.125000	43600.734375
1922.142578	43818.015625
1921.159180	43649.703125
1920.175781	44002.792969
1919.191406	44079.074219
1918.208008	44103.457031
1917.223633	43947.554688
1916.240234	44243.550781
1915.255859	44349.351563
1914.271484	44198.417969
1913.286133	43768.679688
1912.301758	43899.175781
1911.316406	43462.234375
1910.331055	43942.976563
1909.345703	43668.937500
1908.360352	44188.921875
1907.375000	43707.855469
1906.388672	43714.980469
1905.402344	44173.070313
1904.416016	43916.468750
1903.429688	44246.257813
1902.443359	43967.562500
1901.457031	44036.191406
1900.469727	43971.835938
1899.482422	43966.582031
1898.495117	43944.101563
1897.507813	43862.562500
1896.520508	44371.558594
1895.532227	44063.652344
1894.543945	44112.488281
1893.556641	44072.777344
1892.568359	44133.886719
1891.579102	43799.187500
1890.590820	44260.949219
1889.601563	43859.992188
1888.613281	43766.300781
1887.624023	44149.207031
1886.634766	43719.003906
1885.644531	44126.339844
1884.655273	44101.406250
1883.665039	44444.703125
1882.674805	44274.906250
1881.684570	44051.183594
1880.694336	44217.648438
1879.704102	44104.398438
1878.712891	44059.863281
1877.722656	43534.699219
1876.731445	44147.363281
1875.740234	44311.203125
1874.748047	43955.382813
1873.756836	43937.859375
1872.764648	44256.003906
1871.773438	44062.054688
1870.781250	44240.453125
1869.788086	44514.289063
1868.795898	44278.769531
1867.803711	44070.257813
1866.810547	44045.378906
1865.817383	44314.160156
1864.824219	44188.929688
1863.831055	44171.378906
1862.837891	44982.953125
1861.843750	44547.109375
1860.849609	44617.515625
1859.855469	44546.113281
1858.861328	44350.089844
1857.867188	44369.171875
1856.872070	44762.058594
1855.877930	44930.066406
1854.882813	44887.972656
1853.887695	44684.722656
1852.892578	44774.527344
1851.896484	44754.445313
1850.901367	44522.035156
1849.905273	44850.953125
1848.909180	44804.027344
1847.913086	44998.609375
1846.916992	45122.394531
1845.919922	45075.441406
1844.923828	44531.136719
1843.926758	45376.472656
1842.929688	45034.593750
1841.932617	44848.785156
1840.935547	45333.031250
1839.937500	45327.492188
1838.939453	45336.562500
1837.942383	45951.957031
1836.943359	45512.937500
1835.945313	45334.535156
1834.947266	45290.046875
1833.948242	45793.078125
1832.949219	45794.746094
1831.951172	45319.648438
1830.951172	45581.625000
1829.952148	45770.562500
1828.953125	45667.687500
1827.953125	45834.660156
1826.953125	45768.257813
1825.953125	46231.601563
1824.953125	45742.421875
1823.952148	45632.343750
1822.952148	46170.750000
1821.951172	45990.214844
1820.950195	46290.441406
1819.949219	46173.054688
1818.948242	45786.320313
1817.946289	46292.671875
1816.945313	46430.078125
1815.943359	45958.601563
1814.941406	45887.445313
1813.939453	46197.007813
1812.936523	46159.773438
1811.934570	46529.769531
1810.931641	46686.367188
1809.928711	46324.371094
1808.925781	46861.300781
1807.921875	46698.019531
1806.918945	46924.699219
1805.915039	47257.839844
1804.912109	46583.750000
1803.908203	46861.160156
1802.903320	46753.671875
1801.899414	46905.125000
1800.894531	46819.437500
1799.890625	47253.824219
1798.885742	47126.992188
1797.880859	47138.023438
1796.875000	47378.714844
1795.870117	47288.175781
1794.864258	47478.000000
1793.858398	47633.929688
1792.852539	47640.023438
1791.846680	48711.300781
1790.840820	47698.078125
1789.833984	47960.093750
1788.828125	47625.722656
1787.821289	48056.613281
1786.814453	48265.324219
1785.806641	47788.718750
1784.799805	48291.714844
1783.791992	48630.519531
1782.784180	48539.941406
1781.776367	48461.449219
1780.768555	48614.414063
1779.760742	48789.015625
1778.751953	48833.417969
1777.743164	48945.269531
1776.735352	49069.121094
1775.725586	48703.988281
1774.716797	49198.691406
1773.708008	48848.105469
1772.698242	49075.398438
1771.688477	49201.515625
1770.678711	49522.511719
1769.668945	49400.679688
1768.659180	49367.898438
1767.648438	49599.695313
1766.637695	49610.171875
1765.626953	49235.949219
1764.616211	49542.164063
1763.605469	49946.808594
1762.593750	49952.402344
1761.583008	50006.046875
1760.571289	50439.214844
1759.559570	50562.402344
1758.547852	49984.343750
1757.535156	50400.476563
1756.523438	50456.382813
1755.510742	50293.855469
1754.498047	50563.328125
1753.485352	50616.769531
1752.472656	50787.734375
1751.458984	51268.027344
1750.445313	50731.410156
1749.432617	51055.699219
1748.417969	51214.468750
1747.404297	51241.363281
1746.390625	51634.878906
1745.375977	51374.183594
1744.361328	51578.289063
1743.346680	51937.996094
1742.332031	52517.875000
1741.317383	52489.433594
1740.302734	52855.964844
1739.287109	53023.718750
1738.271484	53023.910156
1737.255859	53579.152344
1736.240234	53555.320313
1735.223633	54182.011719
1734.208008	54935.214844
1733.191406	54927.886719
1732.174805	55482.285156
1731.158203	55486.804688
1730.140625	56134.097656
1729.124023	55940.203125
1728.106445	56637.343750
1727.088867	57405.882813
1726.071289	57312.148438
1725.053711	58003.890625
1724.035156	58048.523438
1723.017578	58821.031250
1721.999023	58273.738281
1720.980469	58618.890625
1719.961914	59307.394531
1718.942383	59153.800781
1717.923828	59229.164063
1716.904297	59395.089844
1715.884766	59775.480469
1714.865234	59471.761719
1713.844727	60261.828125
1712.825195	60105.832031
1711.804688	60219.042969
1710.784180	59372.480469
1709.763672	59854.835938
1708.743164	59775.195313
1707.722656	59398.050781
1706.701172	59504.136719
1705.679688	59291.343750
1704.658203	58450.585938
1703.636719	58635.265625
1702.615234	59321.656250
1701.592773	58816.585938
1700.571289	58435.308594
1699.548828	58315.617188
1698.526367	58474.003906
1697.502930	58542.046875
1696.480469	58341.621094
1695.457031	57896.625000
1694.433594	58050.214844
1693.410156	57714.640625
1692.386719	58164.941406
1691.363281	58256.687500
1690.338867	57605.632813
1689.314453	57984.527344
1688.290039	58116.574219
1687.265625	58537.929688
1686.241211	58325.980469
1685.215820	58320.375000
1684.191406	58118.015625
1683.166016	58408.707031
1682.140625	58147.160156
1681.115234	58364.292969
1680.088867	58448.687500
1679.062500	58362.527344
1678.037109	58884.968750
1677.010742	58488.605469
1675.983398	59275.957031
1674.957031	59121.066406
1673.930664	59266.746094
1672.903320	59092.980469
1671.875977	59829.980469
1670.848633	59563.933594
1669.820313	59137.183594
1668.792969	59876.140625
1667.764648	60082.976563
1666.736328	60268.468750
1665.708008	60066.367188
1664.679688	60490.410156
1663.651367	60430.062500
1662.622070	61052.265625
1661.592773	60781.679688
1660.563477	61816.746094
1659.534180	61706.625000
1658.504883	61214.218750
1657.474609	61835.718750
1656.444336	61312.789063
1655.415039	62207.664063
1654.383789	62371.128906
1653.353516	62475.582031
1652.323242	62749.738281
1651.291992	62674.949219
1650.260742	63050.304688
1649.229492	62718.648438
1648.198242	63169.242188
1647.166016	63325.250000
1646.134766	63497.683594
1645.102539	63893.738281
1644.070313	64061.292969
1643.038086	64292.339844
1642.004883	64285.617188
1640.972656	65368.285156
1639.939453	65319.023438
1638.906250	64992.230469
1637.873047	65519.199219
1636.839844	66057.734375
1635.805664	67045.078125
1634.772461	66666.492188
1633.738281	67336.132813
1632.704102	68167.640625
1631.668945	69022.351563
1630.634766	68716.476563
1629.599609	69758.640625
1628.565430	70335.546875
1627.530273	70994.414063
1626.494141	71484.046875
1625.458984	72299.687500
1624.422852	73363.734375
1623.387695	74844.945313
1622.351563	76105.171875
1621.315430	77226.585938
1620.278320	78842.296875
1619.242188	80464.460938
1618.205078	82791.500000
1617.167969	84857.609375
1616.130859	88757.445313
1615.093750	91116.890625
1614.055664	93623.046875
1613.018555	95456.257813
1611.980469	97562.734375
1610.942383	98476.992188
1609.904297	98908.804688
1608.865234	98214.945313
1607.827148	97862.898438
1606.788086	95211.617188
1605.749023	93632.406250
1604.709961	91464.500000
1603.669922	88869.531250
1602.630859	87430.187500
1601.590820	85332.312500
1600.550781	84060.000000
1599.510742	83671.234375
1598.470703	81965.210938
1597.429688	81418.140625
1596.389648	81233.179688
1595.348633	80653.742188
1594.307617	80307.921875
1593.265625	80029.898438
1592.224609	79854.632813
1591.182617	79355.164063
1590.140625	79014.468750
1589.098633	78592.273438
1588.056641	78275.148438
1587.014648	78345.117188
1585.971680	77613.265625
1584.928711	77627.390625
1583.886719	77541.312500
1582.842773	77646.296875
1581.799805	77273.757813
1580.755859	77350.796875
1579.712891	77548.875000
1578.668945	78105.375000
1577.625000	78033.257813
1576.580078	78247.390625
1575.536133	78210.164063
1574.491211	79245.335938
1573.446289	79649.843750
1572.401367	79558.890625
1571.356445	79921.343750
1570.311523	80020.984375
1569.265625	80327.437500
1568.219727	79927.359375
1567.173828	79418.226563
1566.127930	79199.632813
1565.082031	78748.867188
1564.035156	78147.328125
1562.988281	78230.882813
1561.941406	77501.968750
1560.894531	77460.281250
1559.847656	76817.617188
1558.799805	77258.625000
1557.751953	76493.281250
1556.704102	76855.328125
1555.656250	76398.718750
1554.608398	76783.828125
1553.560547	76737.664063
1552.511719	76473.664063
1551.462891	77055.500000
1550.414063	76277.226563
1549.365234	76175.578125
1548.315430	76745.570313
1547.265625	77058.335938
1546.216797	76206.523438
1545.166992	76271.601563
1544.116211	76359.796875
1543.066406	76628.437500
1542.015625	76617.054688
1540.965820	76753.703125
1539.915039	76409.289063
1538.863281	76425.695313
1537.812500	76056.023438
1536.760742	75633.320313
1535.709961	75439.554688
1534.658203	74929.304688
1533.605469	75151.539063
1532.553711	74593.023438
1531.501953	73843.031250
1530.449219	73906.015625
1529.396484	73394.179688
1528.343750	73778.031250
1527.290039	72347.968750
1526.237305	72925.671875
1525.183594	72608.132813
1524.129883	72200.750000
1523.076172	71991.828125
1522.022461	72181.835938
1520.968750	71661.796875
1519.914063	71464.601563
1518.859375	71161.468750
1517.804688	71333.046875
1516.750000	71645.070313
1515.694336	71270.671875
1514.639648	70700.671875
1513.583984	71037.960938
1512.528320	70937.773438
1511.472656	70361.226563
1510.416016	70716.789063
1509.360352	70630.515625
1508.303711	70801.882813
1507.247070	70812.203125
1506.190430	69884.382813
1505.132813	70285.679688
1504.076172	70576.500000
1503.018555	70439.757813
1501.960938	70355.914063
1500.903320	70609.804688
1499.844727	69733.523438
1498.787109	69482.203125
1497.728516	70215.976563
1496.669922	69946.289063
1495.611328	69410.437500
1494.552734	69145.570313
1493.493164	69006.992188
1492.434570	68462.414063
1491.375000	68418.039063
1490.315430	68068.679688
1489.254883	68139.023438
1488.195313	68058.039063
1487.134766	67601.203125
1486.074219	67939.687500
1485.013672	67748.804688
1483.953125	67990.929688
1482.892578	67630.617188
1481.831055	67920.757813
1480.769531	67599.500000
1479.708008	67399.671875
1478.646484	67724.023438
1477.583984	68041.390625
1476.522461	67905.640625
1475.459961	67776.804688
1474.397461	68016.218750
1473.334961	67958.289063
1472.271484	67776.921875
1471.208984	67968.203125
1470.145508	67377.804688
1469.082031	67733.601563
1468.018555	67712.304688
1466.954102	68081.617188
1465.890625	67761.093750
1464.826172	67760.351563
1463.761719	68079.218750
1462.697266	68178.843750
1461.631836	67673.671875
1460.567383	67983.242188
1459.501953	68269.890625
1458.436523	67751.281250
1457.371094	68359.406250
1456.305664	67902.523438
1455.239258	67600.820313
1454.172852	67675.289063
1453.107422	67262.070313
1452.040039	67329.734375
1450.973633	67185.515625
1449.907227	66959.359375
1448.839844	67343.570313
1447.772461	67217.632813
1446.705078	66943.773438
1445.637695	67575.851563
1444.569336	67957.382813
1443.500977	68063.484375
1442.432617	68096.750000
1441.364258	67625.101563
1440.295898	67692.539063
1439.227539	68214.656250
1438.158203	68686.570313
1437.088867	68601.500000
1436.019531	68268.781250
1434.950195	69228.875000
1433.879883	69089.234375
1432.810547	68729.343750
1431.740234	69759.218750
1430.669922	69794.359375
1429.598633	69899.843750
1428.528320	70152.796875
1427.457031	71165.789063
1426.386719	71339.015625
1425.314453	71509.914063
1424.243164	71862.171875
1423.171875	72155.351563
1422.099609	71822.726563
1421.027344	72111.265625
1419.955078	72404.226563
1418.882813	72744.664063
1417.810547	72772.359375
1416.737305	72471.617188
1415.664063	72218.539063
1414.590820	71739.132813
1413.517578	71662.843750
1412.444336	71887.593750
1411.370117	70763.570313
1410.295898	70696.539063
1409.221680	70595.593750
1408.147461	69938.304688
1407.073242	69586.523438
1405.998047	69078.867188
1404.922852	69807.867188
1403.847656	69298.085938
1402.772461	69127.437500
1401.697266	69302.507813
1400.621094	69581.421875
1399.544922	69379.187500
1398.468750	69527.015625
1397.392578	69889.257813
1396.316406	70273.945313
1395.239258	71410.007813
1394.162109	71451.296875
1393.084961	72780.750000
1392.007813	73651.828125
1390.930664	74398.562500
1389.852539	75494.507813
1388.774414	75649.992188
1387.696289	76181.820313
1386.618164	76400.210938
1385.540039	76345.890625
1384.460938	75906.359375
1383.382813	75771.054688
1382.303711	75804.695313
1381.223633	75869.835938
1380.144531	75966.468750
1379.064453	75495.875000
1377.985352	75209.976563
1376.905273	75398.914063
1375.825195	75592.273438
1374.744141	75245.781250
1373.664063	74984.859375
1372.583008	74535.171875
1371.501953	74499.250000
1370.420898	74218.367188
1369.338867	74083.640625
1368.257813	74299.445313
1367.175781	74481.468750
1366.093750	75285.523438
1365.011719	75029.437500
1363.929688	75682.679688
1362.846680	76205.500000
1361.763672	76676.500000
1360.680664	77223.625000
1359.597656	77577.617188
1358.514648	77570.343750
1357.430664	77251.351563
1356.346680	76986.289063
1355.262695	76353.656250
1354.178711	75745.898438
1353.094727	75317.648438
1352.009766	74342.835938
1350.925781	73637.203125
1349.840820	72607.046875
1348.755859	72258.031250
1347.669922	71933.765625
1346.584961	71343.226563
1345.499023	70970.007813
1344.413086	70399.984375
1343.327148	70261.984375
1342.240234	70649.710938
1341.154297	69816.132813
1340.067383	70018.195313
1338.980469	69428.726563
1337.893555	69367.007813
1336.805664	70105.414063
1335.718750	69326.304688
1334.630859	70010.828125
1333.542969	69819.484375
1332.455078	70132.929688
1331.367188	69615.617188
1330.278320	70208.054688
1329.189453	70597.140625
1328.100586	70512.968750
1327.011719	70866.164063
1325.922852	71187.984375
1324.833008	72270.289063
1323.743164	72799.140625
1322.653320	73842.851563
1321.563477	74522.812500
1320.473633	76410.578125
1319.382813	77537.742188
1318.291992	79188.093750
1317.201172	81490.554688
1316.110352	82905.726563
1315.019531	84681.140625
1313.927734	85400.554688
1312.835938	85890.429688
1311.744141	86502.531250
1310.652344	85975.070313
1309.560547	85122.968750
1308.467773	83850.757813
1307.375000	82336.578125
1306.282227	81363.289063
1305.189453	79745.601563
1304.095703	78688.664063
1303.002930	77074.265625
1301.909180	76747.007813
1300.815430	76344.328125
1299.721680	75501.992188
1298.626953	74846.507813
1297.533203	75072.765625
1296.438477	75480.976563
1295.343750	75112.171875
1294.248047	75278.335938
1293.153320	75395.617188
1292.057617	75517.289063
1290.961914	75712.109375
1289.866211	75529.859375
1288.770508	76048.312500
1287.674805	76211.882813
1286.578125	76275.656250
1285.481445	76020.289063
1284.384766	76236.945313
1283.288086	75972.820313
1282.190430	75841.671875
1281.092773	75347.406250
1279.996094	75322.679688
1278.897461	75576.882813
1277.799805	74553.960938
1276.702148	74898.929688
1275.603516	74146.414063
1274.504883	73615.367188
1273.406250	73849.726563
1272.307617	73862.875000
1271.208008	73526.710938
1270.108398	72982.882813
1269.008789	72545.335938
1267.909180	72510.085938
1266.809570	72912.265625
1265.708984	71624.570313
1264.609375	72455.195313
1263.508789	71912.132813
1262.407227	72084.531250
1261.306641	71663.125000
1260.206055	71581.718750
1259.104492	71094.359375
1258.002930	70792.484375
1256.901367	70420.125000
1255.798828	70804.289063
1254.697266	70279.929688
1253.594727	70179.007813
1252.492188	70349.203125
1251.389648	70109.468750
1250.286133	70002.007813
1249.183594	69480.460938
1248.080078	69397.375000
1246.976563	69483.867188
1245.872070	69504.281250
1244.768555	68998.593750
1243.664063	69155.531250
1242.560547	69457.632813
1241.455078	68842.226563
1240.350586	69199.257813
1239.246094	69444.000000
1238.140625	69448.984375
1237.035156	69704.578125
1235.929688	69731.476563
1234.824219	69815.507813
1233.717773	69677.593750
1232.612305	69961.500000
1231.505859	69654.476563
1230.399414	69187.250000
1229.291992	68990.250000
1228.185547	69311.390625
1227.078125	68883.976563
1225.970703	68649.828125
1224.863281	67483.304688
1223.755859	67681.625000
1222.647461	67504.835938
1221.539063	67678.960938
1220.430664	66809.421875
1219.322266	66724.945313
1218.213867	66184.640625
1217.104492	66244.914063
1215.995117	66278.882813
1214.885742	66420.164063
1213.776367	66184.703125
1212.666992	66183.617188
1211.556641	66024.906250
1210.446289	65603.585938
1209.335938	66154.085938
1208.225586	66413.367188
1207.115234	65867.507813
1206.003906	66732.609375
1204.892578	66635.179688
1203.781250	66857.007813
1202.669922	67076.570313
1201.557617	66863.289063
1200.446289	67154.867188
1199.333984	67723.820313
1198.221680	67694.023438
1197.108398	67696.992188
1195.996094	68416.203125
1194.882813	68091.539063
1193.769531	69074.539063
1192.656250	68335.203125
1191.542969	68885.734375
1190.428711	68454.312500
1189.314453	68140.835938
1188.200195	67653.000000
1187.085938	67544.742188
1185.971680	67379.835938
1184.856445	66959.968750
1183.741211	67037.125000
1182.625977	67282.023438
1181.510742	68032.250000
1180.395508	67431.773438
1179.279297	67273.578125
1178.163086	67742.515625
1177.046875	67418.875000
1175.930664	67350.000000
1174.813477	67204.992188
1173.697266	66979.523438
1172.580078	66575.765625
1171.462891	66507.085938
1170.344727	66862.460938
1169.227539	66680.695313
1168.109375	66114.234375
1166.991211	66304.304688
1165.873047	65829.382813
1164.754883	66243.203125
1163.635742	65944.406250
1162.516602	66017.085938
1161.397461	66011.562500
1160.278320	65897.492188
1159.159180	66363.000000
1158.039063	65862.609375
1156.918945	66080.593750
1155.798828	66174.843750
1154.678711	65911.171875
1153.558594	65491.457031
1152.437500	65672.476563
1151.316406	65729.867188
1150.195313	65869.601563
1149.074219	65354.835938
1147.952148	65756.734375
1146.831055	65820.554688
1145.708984	65730.578125
1144.586914	65874.492188
1143.463867	65518.230469
1142.341797	65681.609375
1141.218750	66385.984375
1140.095703	66733.070313
1138.972656	66333.632813
1137.849609	66842.820313
1136.725586	66348.343750
1135.601563	66372.992188
1134.477539	66073.343750
1133.353516	66435.210938
1132.229492	65441.953125
1131.104492	65486.179688
1129.979492	65407.253906
1128.854492	64857.492188
1127.729492	64545.476563
1126.603516	64764.710938
1125.478516	64552.121094
1124.352539	64700.046875
1123.226563	64017.109375
1122.099609	63526.441406
1120.973633	62856.906250
1119.846680	63391.078125
1118.719727	62967.632813
1117.592773	62824.613281
1116.465820	62987.734375
1115.337891	62562.429688
1114.209961	62492.816406
1113.082031	62433.996094
1111.954102	61884.089844
1110.826172	61999.839844
1109.697266	62012.191406
1108.568359	61540.152344
1107.439453	61718.312500
1106.310547	61560.691406
1105.180664	61904.453125
1104.051758	61449.976563
1102.921875	61742.007813
1101.791992	61745.769531
1100.661133	61416.269531
1099.531250	61662.996094
1098.400391	61782.820313
1097.269531	61926.238281
1096.138672	61489.511719
1095.006836	61136.714844
1093.875977	61374.660156
1092.744141	61247.476563
1091.612305	60892.765625
1090.480469	60596.136719
1089.347656	60441.257813
1088.215820	60402.300781
1087.083008	60247.507813
1085.950195	60028.417969
1084.816406	60686.531250
1083.683594	60300.195313
1082.549805	60419.925781
1081.416016	60595.335938
1080.282227	60093.500000
1079.148438	60609.574219
1078.013672	60309.277344
1076.878906	60666.625000
1075.744141	59906.019531
1074.609375	60141.265625
1073.474609	60245.843750
1072.338867	60001.523438
1071.203125	59808.644531
1070.067383	60249.113281
1068.931641	59662.667969
1067.794922	60049.531250
1066.659180	59786.210938
1065.522461	59219.406250
1064.385742	59454.367188
1063.248047	59556.738281
1062.111328	59834.277344
1060.973633	59703.675781
1059.835938	59904.191406
1058.698242	59540.847656
1057.559570	59892.906250
1056.421875	59333.296875
1055.283203	59452.613281
1054.144531	59420.375000
1053.005859	59492.687500
1051.866211	59596.867188
1050.726563	59701.050781
1049.587891	59805.140625
1048.447266	59909.410156
1047.307617	60013.593750
1046.167969	60117.773438
1045.027344	59665.664063
1043.886719	59893.328125
1042.746094	60282.789063
1041.604492	60224.878906
1040.463867	59736.871094
1039.322266	60102.722656
1038.180664	59565.953125
1037.038086	59944.468750
1035.896484	60118.578125
1034.753906	59758.664063
1033.611328	59898.707031
1032.468750	59957.886719
1031.326172	60008.539063
1030.182617	60161.207031
1029.040039	59865.363281
1027.896484	60037.121094
1026.751953	59962.359375
1025.608398	59713.437500
1024.463867	60401.207031
1023.319336	59920.839844
1022.174805	60086.046875
1021.030273	59830.906250
1019.885742	60100.054688
1018.740234	59942.605469
1017.594727	59812.792969
1016.449219	59784.835938
1015.303711	59951.988281
1014.157227	59374.851563
1013.010742	59779.445313
1011.864258	59880.796875
1010.717773	59867.671875
1009.571289	59564.285156
1008.423828	59458.011719
1007.276367	59510.621094
1006.128906	59749.558594
1004.981445	59855.019531
1003.833008	60686.503906
1002.684570	60173.757813
1001.536133	60852.515625
1000.387695	61084.625000
999.239258	61086.085938
998.089844	61468.214844
996.941406	61740.250000
995.791992	61067.187500
994.641602	61178.550781
993.492188	61023.593750
992.341797	60680.640625
991.191406	61062.410156
990.041016	60700.562500
988.890625	60883.675781
987.739258	60944.257813
986.588867	59924.003906
985.437500	60607.355469
984.285156	59885.070313
983.133789	59800.207031
981.981445	60318.664063
980.829102	60402.464844
979.676758	60113.007813
978.524414	60190.488281
977.372070	59922.250000
976.218750	60029.238281
975.065430	59995.007813
973.912109	59996.601563
972.757813	59920.257813
971.604492	60298.820313
970.450195	60435.101563
969.295898	60122.937500
968.141602	59949.796875
966.986328	60288.082031
965.832031	60077.097656
964.676758	59840.945313
963.521484	60357.828125
962.365234	60186.890625
961.209961	60682.488281
960.053711	60837.371094
958.897461	61181.339844
957.741211	60758.214844
956.584961	61188.203125
955.427734	60242.207031
954.270508	60800.234375
953.113281	60356.484375
951.956055	60406.238281
950.797852	60535.730469
949.639648	60346.195313
948.481445	59980.476563
947.323242	60047.035156
946.165039	59922.703125
945.005859	59831.968750
943.847656	59315.648438
942.687500	59656.875000
941.528320	59562.039063
940.369141	59718.691406
939.208984	59716.054688
938.048828	59413.875000
936.888672	59779.890625
935.728516	59563.656250
934.567383	59556.855469
933.406250	59535.398438
932.245117	59670.906250
931.083984	59542.722656
929.922852	60220.000000
928.760742	60006.000000
927.598633	59729.339844
926.436523	59998.484375
925.274414	59686.386719
924.111328	60003.507813
922.948242	60414.542969
921.785156	60833.781250
920.622070	60565.613281
919.458984	60472.980469
918.294922	60355.316406
917.130859	60344.171875
915.966797	60765.109375
914.802734	60956.324219
913.637695	60746.839844
912.472656	60983.875000
911.307617	60601.335938
910.142578	61030.164063
908.977539	60814.554688
907.811523	61284.875000
906.645508	61769.609375
905.479492	61255.976563
904.313477	61150.898438
903.146484	61031.277344
901.980469	60826.300781
900.813477	60623.484375
899.646484	60372.851563
898.478516	60272.183594
897.311523	60535.757813
896.143555	60147.937500
894.975586	59928.777344
893.806641	60075.777344
892.638672	60062.589844
891.469727	60271.886719
890.300781	60098.585938
889.131836	59763.222656
887.962891	59924.656250
886.792969	60343.660156
885.623047	60025.050781
884.453125	60229.953125
883.283203	60315.226563
882.112305	60400.570313
880.942383	60485.843750
879.771484	60571.187500
878.600586	60656.531250
877.428711	60741.945313
876.257813	60707.886719
875.085938	61312.597656
873.914063	61639.230469
872.741211	61196.609375
871.569336	61276.484375
870.396484	61515.894531
869.223633	61085.964844
868.050781	61553.195313
866.877930	61618.429688
865.704102	61623.585938
864.530273	61875.121094
863.356445	62530.222656
862.182617	62582.800781
861.007813	62879.531250
859.833984	63254.769531
858.659180	63400.261719
857.484375	63183.769531
856.308594	62795.730469
855.133789	62389.226563
853.958008	61662.488281
852.782227	61983.789063
851.605469	61437.148438
850.429688	61498.066406
849.252930	61439.164063
848.076172	61299.742188
846.899414	62095.675781
845.722656	61504.093750
844.544922	61183.101563
843.367188	61598.910156
842.189453	61624.628906
841.011719	62046.386719
839.833008	62321.554688
838.655273	62689.406250
837.476563	62688.089844
836.296875	63261.859375
835.118164	63338.742188
833.938477	62966.410156
832.758789	63004.171875
831.579102	62619.675781
830.399414	61936.710938
829.219727	61233.410156
828.039063	60894.734375
826.858398	59874.921875
825.677734	59935.835938
824.496094	59632.554688
823.315430	59652.343750
822.133789	59067.464844
820.952148	58805.632813
819.769531	58482.218750
818.587891	58232.921875
817.405273	57624.066406
816.222656	58309.929688
815.040039	57834.816406
813.856445	57616.621094
812.673828	57653.156250
811.490234	57484.351563
810.305664	57566.054688
809.122070	57672.351563
807.938477	57866.851563
806.753906	58518.800781
805.569336	58688.449219
804.383789	58591.406250
803.199219	58806.082031
802.013672	58586.039063
800.828125	57962.261719
799.642578	57666.621094
798.457031	57213.312500
797.270508	56878.992188
796.083984	56610.335938
794.897461	56993.011719
793.710938	56791.996094
792.523438	56181.628906
791.336914	56177.324219
790.149414	55722.816406
788.961914	55739.054688
787.773438	55511.855469
786.585938	55710.148438
785.397461	55270.367188
784.208984	54890.039063
783.019531	55141.472656
781.831055	55100.562500
780.641602	54755.207031
779.452148	55031.035156
778.262695	54990.160156
777.072266	54585.785156
775.882813	54306.109375
774.692383	54306.210938
773.501953	54010.359375
772.310547	54216.621094
771.120117	54549.300781
769.928711	54428.992188
768.737305	54565.707031
767.544922	54592.253906
766.353516	54684.031250
765.161133	55218.101563
763.968750	55234.316406
762.776367	55166.980469
761.583984	55405.253906
760.390625	55692.320313
759.197266	55514.957031
758.003906	55439.460938
756.810547	55911.609375
755.616211	55893.050781
754.421875	55880.605469
753.227539	55860.023438
752.033203	55725.531250
750.838867	55452.781250
749.643555	55145.566406
748.448242	55367.062500
747.252930	54574.152344
746.057617	54765.183594
744.861328	54503.015625
743.665039	54119.046875
742.468750	54110.992188
741.272461	53863.300781
740.075195	54117.218750
738.878906	53579.312500
737.681641	53806.796875
736.484375	53289.441406
735.286133	53535.148438
734.087891	53604.277344
732.890625	53647.015625
731.691406	53766.789063
730.493164	53178.949219
729.294922	52998.761719
728.095703	52814.582031
726.896484	53033.699219
725.696289	53212.214844
724.497070	53101.011719
723.296875	53099.207031
722.096680	52716.742188
720.896484	53275.757813
719.696289	53059.367188
718.495117	52960.425781
717.293945	52727.984375
716.092773	53060.007813
714.891602	53393.929688
713.689453	53426.425781
712.487305	53260.777344
711.285156	52727.300781
710.083008	53685.511719
708.880859	53291.570313
707.677734	53449.296875
706.474609	53192.894531
705.271484	53689.851563
704.068359	53637.421875
702.864258	53861.574219
701.660156	53264.175781
700.456055	53496.382813
699.251953	52830.671875
698.046875	52937.800781
696.841797	53472.457031
695.636719	53367.691406
694.431641	53635.941406
693.226563	53625.917969
692.020508	53561.480469
690.814453	53779.160156
689.608398	52441.500000
688.402344	53277.664063
687.195313	52919.312500
685.988281	52695.996094
684.781250	52661.988281
683.574219	52557.542969
682.366211	52611.261719
681.158203	52664.976563
679.950195	52718.695313
678.742188	52772.410156
677.534180	52826.128906
676.325195	52765.988281
675.116211	52466.667969
673.907227	53417.484375
672.697266	52726.335938
671.488281	52816.917969
670.278320	53136.441406
669.068359	52730.886719
667.858398	53012.152344
666.647461	52668.996094
665.436523	52813.683594
664.225586	52336.242188
663.014648	52978.496094
661.802734	52288.570313
660.591797	52732.039063
659.379883	52613.886719
658.167969	52116.871094
656.955078	52079.050781
655.743164	52422.011719
654.530273	52207.820313
653.317383	52230.097656
652.103516	52232.332031
650.890625	52731.199219
649.676758	52863.476563
648.462891	53195.882813
647.249023	53646.246094
646.034180	54054.417969
644.819336	54508.445313
643.604492	55180.335938
642.389648	55721.976563
641.174805	55997.472656
639.958984	55299.261719
638.743164	55404.828125
637.527344	54812.902344
636.311523	54201.214844
635.094727	54121.136719
633.877930	53140.300781
632.661133	53064.437500
631.444336	52828.878906
630.226563	52244.074219
629.008789	52573.566406
627.791016	52002.992188
626.573242	51865.554688
625.355469	52129.101563
624.136719	51536.984375
622.917969	51924.109375
621.699219	51633.277344
620.480469	51290.730469
619.260742	51446.511719
618.041016	51715.800781
616.821289	51337.566406
615.601563	51417.558594
614.380859	51676.738281
613.160156	51561.523438
611.939453	51523.976563
610.718750	51631.730469
609.497070	51448.921875
608.276367	51043.363281
607.054688	51451.488281
605.832031	51024.203125
604.610352	50871.460938
603.387695	51496.070313
602.165039	51321.429688
600.942383	51287.945313
599.719727	51240.566406
598.496094	51445.480469
597.272461	51441.777344
596.048828	51168.011719
594.825195	51053.179688
593.600586	50989.992188
592.375977	51164.980469
591.151367	51087.906250
589.926758	51090.210938
588.701172	51296.808594
587.476563	51245.523438
586.250977	50811.589844
585.024414	51129.128906
583.798828	50982.761719
582.572266	50745.292969
581.345703	51276.632813
580.119141	51387.828125
578.892578	51469.269531
577.665039	51132.871094
576.437500	51463.777344
575.209961	51297.726563
573.982422	51385.054688
572.753906	51676.144531
571.525391	51377.597656
570.296875	51520.230469
569.068359	51387.933594
567.838867	51332.792969
566.610352	51471.394531
565.380859	51190.941406
564.150391	51475.742188
562.920898	51309.976563
561.690430	51608.468750
560.459961	51638.253906
559.229492	51545.605469
557.999023	51247.675781
556.767578	51492.648438
555.536133	51694.113281
554.304688	51627.164063
553.073242	51100.601563
551.840820	51664.925781
550.608398	51690.691406
549.375977	51755.878906
548.143555	51771.757813
546.910156	51436.824219
545.676758	51793.640625
544.443359	51244.082031
543.209961	51596.859375
541.975586	51874.664063
540.742188	51721.156250
539.507813	51750.785156
538.272461	51849.289063
537.038086	51565.984375
535.802734	51808.109375
534.567383	51983.253906
533.332031	51914.457031
532.096680	51999.058594
530.860352	52333.308594
529.624023	52626.156250
528.387695	52704.671875
527.151367	52728.140625
525.914063	52790.886719
524.676758	53018.597656
523.439453	52505.871094
522.202148	52719.800781
520.963867	52468.402344
519.725586	52458.507813
518.487305	52226.871094
517.249023	52050.257813
516.009766	51893.320313
514.771484	51936.484375
513.532227	51622.757813
512.291992	51760.054688
511.052734	51705.207031
509.812500	51713.085938
508.572266	51877.710938
507.332031	51668.105469
506.090820	51920.808594
504.850586	52065.710938
503.609375	51539.003906
502.368164	51869.882813
501.125977	51987.304688
499.884766	51973.574219
498.642578	52092.886719
497.400391	52380.363281
496.157227	52229.667969
494.915039	52245.222656
493.671875	51963.625000
492.428711	52598.808594
491.184570	52307.472656
489.941406	52348.394531
488.697266	52496.734375
487.453125	52641.109375
486.208984	52533.527344
484.963867	52711.027344
483.718750	52324.339844
482.473633	53112.652344
481.228516	52856.761719
479.982422	52774.589844
478.737305	52928.457031
477.491211	53511.292969
476.244141	53386.140625
474.998047	53824.406250
473.750977	53642.718750
472.503906	53944.359375
471.256836	53715.953125
470.009766	53916.171875
468.761719	53461.937500
467.513672	53812.054688
466.265625	53651.972656
465.017578	53396.574219
463.768555	53933.320313
462.519531	53444.476563
461.270508	54025.746094
460.021484	54291.710938
458.771484	54306.718750
457.521484	54609.464844
456.271484	54620.511719
455.021484	55070.785156
453.770508	55027.328125
452.519531	54968.347656
451.268555	55088.082031
450.017578	55539.855469
448.765625	55777.875000
447.514648	56229.339844
446.262695	56447.726563
445.009766	56438.976563
443.757813	57186.902344
442.504883	57203.230469
441.251953	57068.273438
439.999023	56714.250000
438.745117	56742.281250
437.492188	55624.738281
436.238281	55288.621094
434.983398	54743.367188
433.729492	54545.082031
432.474609	54412.726563
431.219727	53749.812500
429.964844	54004.878906
428.709961	54308.242188
427.454102	53492.820313
426.198242	53461.394531
424.942383	53348.726563
423.685547	53162.589844
422.429688	53316.898438
421.172852	53169.507813
419.916016	53362.414063
418.658203	53719.539063
417.401367	53552.820313
416.143555	53169.769531
414.885742	53265.933594
413.626953	53128.359375
412.369141	53160.765625
411.110352	53005.882813
409.851563	53071.109375
408.591797	53516.503906
407.333008	53321.113281
406.073242	53131.582031
404.813477	53233.375000
403.553711	53437.332031
402.292969	53097.488281
401.032227	53124.039063
