#Wave		#Intensity
2001.182617	37296.675781
2000.212891	37291.660156
1999.243164	37392.910156
1998.273438	36852.687500
1997.303711	37151.886719
1996.333008	36990.105469
1995.363281	37341.761719
1994.392578	37535.554688
1993.421875	37098.406250
1992.451172	37064.398438
1991.479492	36870.230469
1990.508789	37131.519531
1989.537109	37162.562500
1988.566406	37073.527344
1987.594727	37197.097656
1986.622070	37220.601563
1985.650391	37281.601563
1984.677734	37632.515625
1983.706055	37608.449219
1982.733398	37092.156250
1981.760742	37420.433594
1980.788086	37313.984375
1979.814453	37424.839844
1978.841797	37078.722656
1977.868164	37726.312500
1976.894531	37390.246094
1975.920898	37548.421875
1974.947266	37656.632813
1973.972656	37208.492188
1972.999023	37511.277344
1972.024414	37522.175781
1971.049805	37525.589844
1970.075195	37815.691406
1969.099609	37440.187500
1968.125000	37598.117188
1967.149414	37883.070313
1966.173828	37340.832031
1965.198242	37668.066406
1964.222656	38044.992188
1963.247070	37704.691406
1962.270508	37648.308594
1961.294922	37544.652344
1960.318359	38147.792969
1959.341797	37481.757813
1958.364258	38134.449219
1957.387695	37846.714844
1956.410156	38720.441406
1955.433594	38179.085938
1954.456055	38082.910156
1953.478516	37728.269531
1952.500000	37977.636719
1951.522461	38005.773438
1950.543945	38158.117188
1949.565430	38419.691406
1948.586914	38134.828125
1947.608398	38076.011719
1946.629883	38307.667969
1945.650391	38350.605469
1944.671875	38190.031250
1943.692383	38250.335938
1942.712891	38216.351563
1941.733398	38281.593750
1940.752930	38349.289063
1939.773438	38310.339844
1938.792969	38737.464844
1937.812500	38472.906250
1936.832031	38017.617188
1935.851563	38325.632813
1934.870117	38474.992188
1933.888672	38346.886719
1932.908203	38471.421875
1931.926758	38477.062500
1930.945313	38547.066406
1929.962891	38433.882813
1928.981445	38533.562500
1927.999023	38605.988281
1927.016602	38854.027344
1926.034180	38990.675781
1925.051758	38417.535156
1924.069336	38208.054688
1923.085938	38923.214844
1922.102539	38718.660156
1921.119141	38667.390625
1920.135742	38517.308594
1919.152344	38935.460938
1918.168945	38926.164063
1917.184570	38578.550781
1916.200195	38897.707031
1915.215820	38942.726563
1914.231445	38805.085938
1913.247070	38709.441406
1912.261719	38495.398438
1911.276367	38784.675781
1910.291992	39096.050781
1909.306641	39121.253906
1908.320313	38544.839844
1907.334961	38745.152344
1906.348633	38997.156250
1905.363281	39172.675781
1904.376953	39118.988281
1903.390625	38806.660156
1902.403320	38514.144531
1901.416992	39066.390625
1900.429688	38734.535156
1899.443359	39316.089844
1898.456055	38930.152344
1897.467773	39469.632813
1896.480469	39061.656250
1895.493164	39399.199219
1894.504883	39377.527344
1893.516602	39090.277344
1892.528320	39221.105469
1891.540039	39479.710938
1890.550781	38956.636719
1889.562500	39134.105469
1888.573242	39181.289063
1887.583984	39316.886719
1886.594727	39204.375000
1885.605469	39300.628906
1884.615234	38984.367188
1883.625000	39166.542969
1882.635742	39662.812500
1881.645508	39265.667969
1880.654297	39496.765625
1879.664063	39224.894531
1878.673828	39384.785156
1877.682617	39444.078125
1876.691406	39211.585938
1875.700195	39535.632813
1874.708984	39305.652344
1873.716797	39546.246094
1872.725586	39524.597656
1871.733398	39796.914063
1870.741211	39647.867188
1869.749023	39508.664063
1868.755859	39829.800781
1867.763672	39335.664063
1866.770508	39955.312500
1865.777344	39534.734375
1864.784180	39596.292969
1863.791016	39692.074219
1862.797852	39511.445313
1861.803711	39749.035156
1860.809570	39852.066406
1859.815430	39959.953125
1858.821289	39613.203125
1857.827148	39889.699219
1856.832031	40048.820313
1855.837891	40149.261719
1854.842773	40181.277344
1853.847656	40308.515625
1852.852539	39747.214844
1851.856445	39984.328125
1850.861328	40043.191406
1849.865234	39638.398438
1848.869141	40075.460938
1847.873047	40485.535156
1846.876953	40085.750000
1845.879883	40590.777344
1844.883789	39944.867188
1843.886719	40496.054688
1842.889648	40086.792969
1841.892578	40635.320313
1840.895508	40150.648438
1839.897461	40686.789063
1838.899414	40893.949219
1837.901367	40823.441406
1836.903320	40818.687500
1835.905273	40855.320313
1834.907227	40860.296875
1833.908203	40702.238281
1832.909180	41186.515625
1831.910156	41091.695313
1830.911133	40945.835938
1829.912109	41147.746094
1828.912109	40702.886719
1827.913086	41116.238281
1826.913086	40982.621094
1825.913086	41087.179688
1824.913086	41055.648438
1823.912109	41024.125000
1822.912109	41065.472656
1821.911133	41512.312500
1820.910156	41041.296875
1819.909180	41512.250000
1818.908203	41650.550781
1817.906250	41805.785156
1816.904297	41097.292969
1815.903320	41213.757813
1814.900391	41795.816406
1813.898438	41579.921875
1812.896484	41829.574219
1811.893555	41705.855469
1810.891602	41872.996094
1809.888672	41635.425781
1808.885742	42117.457031
1807.881836	41846.011719
1806.878906	42085.656250
1805.875000	41845.789063
1804.871094	41606.003906
1803.867188	42373.226563
1802.863281	42307.671875
1801.859375	42752.687500
1800.854492	42440.324219
1799.849609	42730.351563
1798.844727	42350.390625
1797.839844	42458.980469
1796.834961	42287.101563
1795.830078	42796.898438
1794.824219	42963.347656
1793.818359	42658.574219
1792.812500	42800.828125
1791.806641	43090.367188
1790.799805	42650.488281
1789.793945	42669.523438
1788.787109	43041.007813
1787.780273	43202.371094
1786.773438	43395.046875
1785.766602	43158.171875
1784.758789	43160.203125
1783.751953	42945.156250
1782.744141	43255.902344
1781.736328	43605.113281
1780.728516	43541.968750
1779.719727	43743.976563
1778.711914	43702.515625
1777.703125	43723.710938
1776.694336	43807.535156
1775.685547	44474.199219
1774.676758	44266.468750
1773.666992	44367.000000
1772.657227	44079.917969
1771.648438	44274.312500
1770.638672	44237.613281
1769.627930	44492.058594
1768.618164	44688.675781
1767.607422	44846.738281
1766.597656	44942.218750
1765.586914	44931.875000
1764.576172	45133.074219
1763.564453	45108.277344
1762.553711	44968.140625
1761.541992	45544.031250
1760.530273	45254.925781
1759.518555	45559.160156
1758.506836	45793.644531
1757.495117	45547.859375
1756.482422	45712.644531
1755.469727	46014.171875
1754.457031	46102.027344
1753.444336	45995.507813
1752.431641	46438.351563
1751.417969	46288.636719
1750.405273	46477.085938
1749.391602	46624.707031
1748.377930	46153.824219
1747.364258	46378.140625
1746.349609	47052.871094
1745.335938	47018.195313
1744.321289	47479.382813
1743.306641	47162.031250
1742.291992	47409.906250
1741.276367	47892.320313
1740.261719	47845.546875
1739.246094	47561.855469
1738.230469	48000.906250
1737.214844	47987.632813
1736.199219	48335.550781
1735.182617	48508.761719
1734.166992	48414.093750
1733.150391	48773.703125
1732.133789	48855.906250
1731.117188	49157.945313
1730.099609	49694.046875
1729.083008	49995.832031
1728.065430	50168.515625
1727.047852	50025.898438
1726.030273	50742.929688
1725.012695	51433.445313
1723.994141	51211.902344
1722.976563	51336.320313
1721.958008	51460.859375
1720.939453	51585.398438
1719.920898	51709.937500
1718.901367	52692.871094
1717.882813	52740.765625
1716.863281	53103.328125
1715.843750	52979.511719
1714.824219	53291.851563
1713.803711	53184.718750
1712.784180	53253.914063
1711.763672	53778.019531
1710.743164	53880.421875
1709.722656	53306.570313
1708.702148	53289.984375
1707.681641	53689.933594
1706.660156	53832.726563
1705.638672	53435.355469
1704.617188	53513.902344
1703.595703	53896.875000
1702.574219	53856.406250
1701.551758	54056.093750
1700.529297	54003.722656
1699.507813	53483.132813
1698.484375	54210.335938
1697.461914	53637.617188
1696.439453	53815.777344
1695.416016	53915.492188
1694.392578	53174.523438
1693.369141	54193.160156
1692.345703	53955.660156
1691.322266	54135.968750
1690.297852	54057.546875
1689.273438	54494.011719
1688.249023	54704.957031
1687.224609	54678.652344
1686.200195	54405.734375
1685.174805	54860.785156
1684.150391	55059.656250
1683.125000	54689.636719
1682.099609	54758.132813
1681.073242	55222.265625
1680.047852	55522.781250
1679.021484	55645.558594
1677.995117	55202.343750
1676.968750	55640.015625
1675.942383	55350.816406
1674.916016	55714.937500
1673.888672	56235.097656
1672.862305	56428.582031
1671.834961	55742.042969
1670.806641	56512.609375
1669.779297	56039.113281
1668.751953	56471.265625
1667.723633	56766.167969
1666.695313	56864.804688
1665.666992	56434.101563
1664.638672	56721.757813
1663.609375	57228.984375
1662.581055	57558.902344
1661.551758	57220.464844
1660.522461	57432.218750
1659.493164	57457.425781
1658.462891	57836.621094
1657.433594	57890.054688
1656.403320	57745.296875
1655.373047	58246.886719
1654.342773	58257.761719
1653.312500	58846.316406
1652.281250	58298.355469
1651.250977	58483.628906
1650.219727	59078.894531
1649.188477	59084.890625
1648.156250	59284.054688
1647.125000	59257.031250
1646.092773	59691.589844
1645.060547	60382.636719
1644.028320	59799.847656
1642.996094	60403.535156
1641.963867	60164.527344
1640.930664	60671.464844
1639.898438	60705.371094
1638.865234	60814.531250
1637.832031	60577.960938
1636.797852	60712.964844
1635.764648	60988.960938
1634.730469	61568.058594
1633.696289	61881.402344
1632.662109	61501.515625
1631.627930	62056.714844
1630.592773	62419.117188
1629.558594	62635.796875
1628.523438	62159.777344
1627.488281	63456.246094
1626.453125	63395.667969
1625.416992	63867.789063
1624.381836	64729.207031
1623.345703	64846.707031
1622.309570	65754.546875
1621.273438	65625.593750
1620.237305	66964.367188
1619.200195	68380.007813
1618.163086	68890.476563
1617.125977	70492.726563
1616.088867	71839.039063
1615.051758	73145.039063
1614.014648	74954.109375
1612.976563	75879.750000
1611.938477	77451.226563
1610.900391	77882.179688
1609.862305	78193.617188
1608.823242	77831.039063
1607.785156	76277.773438
1606.746094	75279.421875
1605.707031	74690.695313
1604.667969	72919.007813
1603.628906	71676.312500
1602.588867	70635.062500
1601.548828	69825.554688
1600.508789	69128.492188
1599.468750	67445.796875
1598.428711	67545.898438
1597.387695	66821.578125
1596.347656	65920.054688
1595.306641	65955.000000
1594.265625	66055.281250
1593.224609	65779.796875
1592.182617	65523.078125
1591.140625	65082.152344
1590.099609	65005.242188
1589.057617	65128.910156
1588.014648	64816.519531
1586.972656	65147.648438
1585.929688	64926.261719
1584.887695	65229.285156
1583.844727	65455.308594
1582.800781	65061.589844
1581.757813	64956.820313
1580.714844	65038.382813
1579.670898	65424.921875
1578.626953	66002.203125
1577.583008	65801.906250
1576.538086	66015.890625
1575.494141	66616.015625
1574.449219	66976.320313
1573.404297	66873.664063
1572.359375	67487.265625
1571.314453	67656.570313
1570.269531	67837.429688
1569.223633	67149.000000
1568.177734	67638.937500
1567.131836	67959.101563
1566.085938	67368.570313
1565.040039	66313.750000
1563.993164	66815.093750
1562.946289	66271.507813
1561.899414	66060.046875
1560.852539	65621.218750
1559.805664	65391.386719
1558.757813	65375.070313
1557.709961	65381.953125
1556.662109	64790.484375
1555.614258	64876.304688
1554.566406	64929.628906
1553.517578	64303.781250
1552.469727	64401.218750
1551.420898	64343.375000
1550.372070	64012.179688
1549.322266	64322.703125
1548.273438	64477.953125
1547.223633	64014.921875
1546.173828	63859.953125
1545.124023	64096.207031
1544.074219	63774.648438
1543.024414	64466.640625
1541.973633	64212.218750
1540.922852	64404.281250
1539.872070	64210.078125
1538.821289	64348.890625
1537.770508	64372.062500
1536.718750	64404.468750
1535.666992	64277.410156
1534.615234	63870.828125
1533.563477	64300.632813
1532.511719	63667.835938
1531.458984	63695.710938
1530.407227	63619.671875
1529.354492	63594.445313
1528.300781	63878.496094
1527.248047	63370.937500
1526.195313	63145.039063
1525.141602	63486.675781
1524.087891	63500.691406
1523.034180	63196.476563
1521.980469	62920.035156
1520.925781	63432.039063
1519.871094	62662.441406
1518.817383	62561.363281
1517.762695	62870.406250
1516.707031	62377.734375
1515.652344	62474.812500
1514.596680	62191.921875
1513.541016	62314.320313
1512.485352	62406.746094
1511.429688	61930.691406
1510.374023	61765.441406
1509.317383	62249.007813
1508.260742	62053.847656
1507.204102	61948.449219
1506.147461	62093.710938
1505.090820	62050.410156
1504.033203	61648.550781
1502.975586	62294.769531
1501.917969	62451.343750
1500.860352	62146.105469
1499.802734	62139.570313
1498.744141	62528.023438
1497.686523	62280.328125
1496.627930	62551.535156
1495.569336	62175.386719
1494.509766	62662.222656
1493.451172	61820.421875
1492.391602	62426.429688
1491.332031	62644.601563
1490.272461	62374.246094
1489.212891	62402.046875
1488.152344	61689.406250
1487.092773	61572.917969
1486.032227	62288.296875
1484.971680	62128.210938
1483.910156	61897.164063
1482.849609	62220.453125
1481.788086	62481.792969
1480.726563	62161.511719
1479.665039	62097.718750
1478.603516	62134.644531
1477.541992	62347.750000
1476.479492	61787.492188
1475.416992	62293.367188
1474.354492	62563.496094
1473.291992	62085.808594
1472.229492	62108.964844
1471.166016	62157.253906
1470.102539	62367.785156
1469.039063	62153.234375
1467.975586	62656.109375
1466.912109	62510.105469
1465.847656	62852.867188
1464.783203	62830.171875
1463.718750	63275.480469
1462.654297	62800.777344
1461.589844	63334.925781
1460.524414	63640.710938
1459.458984	63946.386719
1458.393555	63590.496094
1457.328125	63474.183594
1456.262695	63834.433594
1455.196289	64110.207031
1454.130859	63909.523438
1453.064453	63868.421875
1451.998047	63768.097656
1450.930664	63729.312500
1449.864258	63906.906250
1448.796875	64193.742188
1447.729492	64075.203125
1446.662109	63913.457031
1445.594727	64143.226563
1444.526367	64573.160156
1443.458008	64661.667969
1442.390625	64884.347656
1441.321289	65532.242188
1440.252930	65320.363281
1439.184570	65961.125000
1438.115234	66506.179688
1437.045898	66589.679688
1435.976563	66668.609375
1434.907227	67356.359375
1433.836914	67787.187500
1432.767578	67693.250000
1431.697266	68135.210938
1430.626953	68647.382813
1429.555664	68097.093750
1428.485352	68674.898438
1427.414063	69141.312500
1426.342773	68979.156250
1425.271484	69835.476563
1424.200195	69827.453125
1423.128906	70821.609375
1422.056641	69781.937500
1420.984375	70039.109375
1419.912109	70151.148438
1418.839844	70267.679688
1417.767578	70538.203125
1416.694336	70147.273438
1415.621094	69946.695313
1414.547852	69854.867188
1413.474609	69613.664063
1412.400391	69085.109375
1411.327148	69310.281250
1410.252930	69193.734375
1409.178711	69208.429688
1408.104492	68822.796875
1407.029297	68312.929688
1405.955078	68721.156250
1404.879883	68934.828125
1403.804688	69331.492188
1402.729492	68973.281250
1401.653320	69688.343750
1400.578125	69610.289063
1399.501953	70189.460938
1398.425781	70443.265625
1397.349609	69936.164063
1396.272461	69840.054688
1395.196289	70917.507813
1394.119141	70509.867188
1393.041992	70355.046875
1391.964844	70622.062500
1390.886719	71743.695313
1389.809570	71642.828125
1388.731445	72272.414063
1387.653320	72128.664063
1386.575195	72965.257813
1385.497070	72600.625000
1384.417969	73475.117188
1383.338867	72982.132813
1382.259766	73212.187500
1381.180664	72946.820313
1380.101563	73025.968750
1379.021484	73615.992188
1377.941406	73238.179688
1376.861328	73166.476563
1375.781250	73117.296875
1374.701172	72748.757813
1373.620117	72020.562500
1372.539063	71483.734375
1371.458008	71969.867188
1370.376953	71824.289063
1369.295898	71570.906250
1368.213867	71027.789063
1367.132813	70851.000000
1366.050781	70813.515625
1364.967773	70551.500000
1363.885742	71158.406250
1362.802734	71197.195313
1361.720703	70930.750000
1360.637695	70953.859375
1359.554688	70797.476563
1358.470703	70995.546875
1357.387695	70810.054688
1356.303711	70476.640625
1355.219727	70082.820313
1354.135742	69413.445313
1353.050781	69593.640625
1351.966797	69276.359375
1350.881836	68473.070313
1349.796875	68646.617188
1348.711914	68058.703125
1347.626953	68359.875000
1346.541016	67662.531250
1345.455078	67780.125000
1344.369141	68202.007813
1343.283203	68200.882813
1342.197266	67338.531250
1341.110352	67283.875000
1340.023438	67683.171875
1338.936523	68059.960938
1337.849609	67462.015625
1336.762695	67445.359375
1335.674805	67777.289063
1334.586914	67648.867188
1333.499023	67623.242188
1332.411133	67858.921875
1331.323242	68168.195313
1330.234375	68522.007813
1329.145508	68824.351563
1328.056641	68445.914063
1326.967773	68752.617188
1325.878906	68845.046875
1324.789063	69653.414063
1323.699219	69518.171875
1322.609375	69409.726563
1321.519531	70395.890625
1320.429688	70581.531250
1319.338867	71350.960938
1318.248047	71772.531250
1317.157227	72156.078125
1316.066406	72494.937500
1314.975586	72987.320313
1313.883789	73483.976563
1312.791992	73922.578125
1311.700195	73506.359375
1310.608398	73486.390625
1309.516602	73106.000000
1308.423828	73571.023438
1307.331055	73161.835938
1306.238281	72321.406250
1305.145508	72194.937500
1304.051758	72044.062500
1302.958984	72019.914063
1301.865234	71335.828125
1300.771484	71818.335938
1299.677734	71831.992188
1298.583008	72012.203125
1297.489258	73648.937500
1296.394531	73582.320313
1295.299805	74004.046875
1294.204102	73857.492188
1293.109375	74700.578125
1292.013672	74425.281250
1290.917969	73715.351563
1289.822266	73815.101563
1288.726563	73795.085938
1287.630859	73384.914063
1286.534180	73052.460938
1285.437500	73028.148438
1284.340820	72483.179688
1283.244141	72139.984375
1282.146484	71814.625000
1281.048828	71055.367188
1279.951172	71157.617188
1278.853516	70943.289063
1277.755859	70567.476563
1276.658203	70596.726563
1275.559570	69665.796875
1274.460938	69790.312500
1273.362305	69432.656250
1272.262695	69404.593750
1271.164063	68812.789063
1270.064453	68731.789063
1268.964844	68376.781250
1267.865234	68611.859375
1266.765625	68053.757813
1265.665039	67897.843750
1264.564453	68055.578125
1263.463867	67736.328125
1262.363281	67724.046875
1261.262695	66901.726563
1260.161133	67397.156250
1259.059570	67093.687500
1257.958008	67083.718750
1256.856445	66698.812500
1255.754883	66483.835938
1254.652344	66310.828125
1253.549805	66534.664063
1252.447266	66337.453125
1251.344727	65986.070313
1250.242188	66725.375000
1249.138672	65891.632813
1248.035156	65994.195313
1246.931641	66158.375000
1245.828125	66249.843750
1244.724609	65973.679688
1243.620117	65994.710938
1242.515625	66301.789063
1241.411133	66153.351563
1240.306641	65987.367188
1239.201172	66424.023438
1238.096680	66218.468750
1236.991211	65841.515625
1235.885742	66607.640625
1234.779297	66094.492188
1233.673828	65730.945313
1232.567383	66305.546875
1231.460938	65972.828125
1230.354492	66371.492188
1229.248047	66286.984375
1228.140625	66400.062500
1227.033203	66447.257813
1225.926758	65919.507813
1224.818359	66262.953125
1223.710938	66704.984375
1222.602539	66100.703125
1221.495117	66461.460938
1220.386719	66214.796875
1219.278320	65698.601563
1218.168945	66260.859375
1217.060547	66272.921875
1215.951172	65905.960938
1214.841797	65852.359375
1213.731445	65846.960938
1212.622070	66224.734375
1211.511719	65588.773438
1210.402344	65876.710938
1209.291992	65608.687500
1208.180664	65756.476563
1207.070313	65996.093750
1205.958984	66528.710938
1204.847656	66783.398438
1203.736328	66073.781250
1202.625000	66369.992188
1201.512695	67052.953125
1200.401367	67318.273438
1199.289063	67161.828125
1198.176758	67442.320313
1197.063477	67412.578125
1195.951172	67734.406250
1194.837891	68001.531250
1193.724609	68416.992188
1192.611328	68277.960938
1191.498047	68322.265625
1190.383789	68429.820313
1189.269531	68190.507813
1188.155273	67702.671875
1187.041016	67914.929688
1185.926758	67728.156250
1184.811523	67251.554688
1183.696289	66947.289063
1182.581055	67133.375000
1181.465820	67103.718750
1180.350586	66743.007813
1179.234375	67190.335938
1178.118164	66546.687500
1177.001953	67202.867188
1175.885742	66320.031250
1174.768555	66704.000000
1173.652344	66926.820313
1172.535156	66431.703125
1171.417969	66467.453125
1170.299805	66085.671875
1169.182617	66360.609375
1168.064453	66085.492188
1166.946289	65743.109375
1165.828125	66235.242188
1164.709961	66659.851563
1163.590820	65817.937500
1162.471680	65921.046875
1161.352539	66373.695313
1160.233398	66064.171875
1159.114258	66377.710938
1157.994141	65877.320313
1156.874023	66273.218750
1155.753906	65640.695313
1154.633789	65596.187500
1153.513672	65668.804688
1152.392578	65871.476563
1151.271484	65759.742188
1150.150391	65598.195313
1149.029297	65553.718750
1147.907227	65832.085938
1146.786133	66177.500000
1145.664063	66282.375000
1144.541992	66086.218750
1143.418945	66539.640625
1142.296875	66949.601563
1141.173828	66627.898438
1140.050781	66992.242188
1138.927734	67609.578125
1137.803711	67592.906250
1136.680664	67600.031250
1135.556641	67695.804688
1134.432617	67832.609375
1133.308594	67960.718750
1132.183594	67539.875000
1131.059570	67220.718750
1129.934570	67558.414063
1128.809570	67181.054688
1127.684570	67380.414063
1126.558594	67383.218750
1125.432617	67774.593750
1124.307617	66622.625000
1123.180664	66955.718750
1122.054688	66969.375000
1120.928711	66484.734375
1119.801758	66724.921875
1118.674805	66701.945313
1117.547852	66394.398438
1116.419922	66017.976563
1115.292969	66564.093750
1114.165039	66304.132813
1113.037109	66007.632813
1111.909180	66111.882813
1110.780273	66642.500000
1109.652344	65648.468750
1108.523438	66736.539063
1107.394531	66220.679688
1106.264648	65857.796875
1105.135742	65744.625000
1104.005859	66276.859375
1102.875977	66069.015625
1101.746094	65738.671875
1100.616211	66550.109375
1099.485352	66116.609375
1098.355469	66502.125000
1097.224609	66139.695313
1096.092773	66224.273438
1094.961914	66568.742188
1093.830078	66043.265625
1092.699219	66258.796875
1091.567383	65986.898438
1090.434570	66142.250000
1089.302734	65653.710938
1088.169922	65397.082031
1087.037109	65264.972656
1085.904297	65268.042969
1084.771484	65436.234375
1083.637695	65218.417969
1082.504883	65753.132813
1081.371094	65305.996094
1080.236328	65540.476563
1079.102539	66121.968750
1077.968750	65392.234375
1076.833984	65603.007813
1075.699219	65835.109375
1074.564453	65578.976563
1073.428711	65731.789063
1072.292969	65676.945313
1071.158203	65780.468750
1070.022461	65980.218750
1068.885742	65972.414063
1067.750000	65823.453125
1066.613281	66072.257813
1065.476563	65352.515625
1064.339844	65996.750000
1063.203125	66238.968750
1062.065430	66293.062500
1060.927734	65958.335938
1059.790039	65862.945313
1058.652344	66239.531250
1057.514648	66475.062500
1056.375977	66193.906250
1055.237305	65900.031250
1054.098633	66077.875000
1052.959961	65939.875000
1051.820313	66418.414063
1050.681641	66246.281250
1049.541992	65991.039063
1048.402344	66488.484375
1047.261719	66133.093750
1046.122070	66361.796875
1044.981445	66731.039063
1043.840820	66791.234375
1042.700195	66499.945313
1041.558594	66217.281250
1040.417969	66460.640625
1039.276367	66957.242188
1038.134766	66723.593750
1036.992188	66770.937500
1035.850586	66526.765625
1034.708008	66359.265625
1033.565430	66130.132813
1032.422852	65998.914063
1031.280273	65993.171875
1030.136719	65847.140625
1028.994141	66700.070313
1027.850586	65950.460938
1026.706055	66305.906250
1025.562500	66111.046875
1024.417969	66224.210938
1023.273438	66037.929688
1022.128906	65915.406250
1020.984375	65797.171875
1019.839844	66224.382813
1018.694336	65927.890625
1017.548828	66715.570313
1016.403320	66120.023438
1015.256836	66555.335938
1014.111328	66988.367188
1012.964844	66327.375000
1011.818359	66554.687500
1010.671875	66317.828125
1009.524414	66369.203125
1008.377930	66456.570313
1007.230469	66658.265625
1006.083008	66235.210938
1004.934570	66261.140625
1003.787109	67011.007813
1002.638672	66602.921875
1001.490234	67106.976563
1000.341797	67191.960938
999.193359	66942.695313
998.043945	67535.234375
996.894531	67977.421875
995.745117	67690.085938
994.595703	68041.187500
993.446289	67580.656250
992.295898	67610.484375
991.145508	68048.015625
989.995117	67553.929688
988.844727	67374.679688
987.693359	67676.867188
986.541992	67174.679688
985.390625	68006.539063
984.239258	67865.304688
983.087891	67608.085938
981.935547	67530.250000
980.783203	67600.070313
979.630859	67806.921875
978.478516	67311.656250
977.325195	67273.968750
976.172852	67858.000000
975.019531	67529.445313
973.865234	67609.703125
972.711914	67989.023438
971.557617	67199.421875
970.404297	67797.648438
969.250000	67665.171875
968.094727	67330.687500
966.940430	67322.492188
965.785156	67556.257813
964.629883	67022.125000
963.474609	67893.117188
962.319336	68000.468750
961.163086	67378.234375
960.007813	67056.828125
958.851563	67176.875000
957.694336	67715.023438
956.538086	67656.320313
955.380859	68042.945313
954.223633	67904.398438
953.066406	67387.953125
951.909180	67528.781250
950.751953	67440.773438
949.593750	67205.890625
948.435547	67361.351563
947.277344	67151.742188
946.118164	67477.039063
944.959961	67577.835938
943.800781	67089.437500
942.641602	67227.992188
941.482422	67083.562500
940.322266	67364.546875
939.162109	67282.984375
938.001953	67017.117188
936.841797	67643.515625
935.681641	67044.742188
934.520508	67302.437500
933.360352	66994.882813
932.198242	67834.265625
931.037109	67589.500000
929.875977	67531.000000
928.713867	67633.578125
927.551758	68200.359375
926.389648	68214.945313
925.227539	68164.726563
924.064453	68651.664063
922.901367	68139.562500
921.738281	68448.726563
920.575195	68325.382813
919.412109	68519.523438
918.248047	68592.484375
917.083984	68364.781250
915.919922	69088.984375
914.755859	69449.789063
913.590820	69192.835938
912.426758	70035.390625
911.261719	69857.671875
910.095703	70178.437500
908.930664	70440.695313
907.764648	71173.984375
906.598633	71114.976563
905.432617	71143.515625
904.266602	70836.593750
903.099609	70073.585938
901.933594	70052.304688
900.766602	70099.742188
899.599609	69601.687500
898.431641	69636.703125
897.264648	69236.726563
896.096680	69151.101563
894.928711	69057.179688
893.759766	68811.445313
892.591797	69133.546875
891.422852	68769.367188
890.253906	68721.304688
889.084961	68980.875000
887.916016	68664.718750
886.746094	68664.484375
885.576172	68655.937500
884.406250	68682.695313
883.236328	68817.429688
882.065430	68549.320313
880.895508	68623.820313
879.724609	69088.468750
878.552734	69621.421875
877.381836	69452.937500
876.209961	69678.625000
875.039063	70248.484375
873.866211	70003.250000
872.694336	70015.171875
871.522461	70325.554688
870.349609	69794.453125
869.176758	69441.726563
868.003906	69884.617188
866.830078	70447.468750
865.657227	70438.562500
864.483398	71210.210938
863.309570	71476.476563
862.135742	71717.812500
860.960938	71903.171875
859.786133	72107.093750
858.611328	73055.585938
857.436523	71797.046875
856.261719	71924.351563
855.085938	71776.640625
853.910156	71130.851563
852.734375	71177.601563
851.558594	71046.632813
850.382813	70709.132813
849.206055	71608.953125
848.029297	71285.921875
846.852539	71592.734375
845.674805	72285.453125
844.498047	72172.984375
843.320313	72634.218750
842.142578	73155.109375
840.963867	73795.437500
839.786133	74975.875000
838.607422	75832.132813
837.428711	76745.796875
836.250000	77432.382813
835.070313	77760.125000
833.891602	77516.992188
832.711914	76796.000000
831.532227	76462.500000
830.352539	74883.226563
829.171875	74502.843750
827.991211	73883.804688
826.810547	72719.570313
825.629883	72121.664063
824.449219	71766.750000
823.267578	71014.953125
822.085938	71133.398438
820.904297	70622.578125
819.722656	70122.218750
818.540039	69656.992188
817.357422	69687.218750
816.174805	69329.085938
814.992188	69669.562500
813.809570	68691.257813
812.625977	69068.679688
811.442383	69094.867188
810.258789	69334.531250
809.074219	69067.156250
807.890625	68574.140625
806.706055	69023.031250
805.521484	68934.312500
804.336914	69852.625000
803.151367	69247.039063
801.966797	68467.414063
800.781250	68548.976563
799.594727	68560.835938
798.409180	67896.507813
797.222656	68082.601563
796.037109	67707.406250
794.849609	67598.570313
793.663086	66828.429688
792.476563	66713.656250
791.289063	67034.867188
790.101563	66987.617188
788.914063	66594.609375
787.725586	66420.625000
786.538086	66625.070313
785.349609	66445.000000
784.161133	65909.265625
782.971680	66874.078125
781.783203	66197.437500
780.593750	65974.656250
779.404297	66556.882813
778.214844	66044.070313
777.024414	65862.289063
775.834961	65792.859375
774.644531	65243.726563
773.454102	66007.179688
772.262695	66001.015625
771.072266	65870.398438
769.880859	65968.296875
768.689453	66376.156250
767.497070	65923.351563
766.305664	65813.218750
765.113281	66408.398438
763.920898	66324.710938
762.728516	66465.179688
761.536133	66744.132813
760.342773	67646.257813
759.149414	67279.312500
757.956055	67836.890625
756.762695	67993.218750
755.568359	68013.125000
754.374023	68248.718750
753.179688	68567.640625
751.985352	68225.328125
750.791016	68084.484375
749.595703	67541.070313
748.400391	67737.890625
747.205078	67361.421875
746.009766	67340.734375
744.813477	67021.367188
743.617188	66397.375000
742.420898	66183.914063
741.224609	65751.203125
740.027344	65673.968750
738.830078	65444.511719
737.632813	65225.285156
736.435547	65690.007813
735.238281	65217.199219
734.040039	65119.839844
732.841797	65103.640625
731.643555	64811.664063
730.445313	64515.742188
729.246094	65093.570313
728.046875	64852.417969
726.847656	64710.640625
725.648438	64737.062500
724.449219	64605.480469
723.249023	64121.570313
722.048828	64152.125000
720.848633	63781.843750
719.647461	64741.457031
718.447266	64346.910156
717.246094	64241.832031
716.044922	64887.273438
714.842773	64460.550781
713.641602	64266.531250
712.439453	64822.636719
711.237305	64636.699219
710.035156	64705.472656
708.832031	64695.410156
707.629883	64972.222656
706.426758	65077.238281
705.223633	65483.113281
704.019531	64659.210938
702.815430	65190.167969
701.612305	65087.167969
700.408203	65192.050781
699.203125	65424.000000
697.999023	64792.496094
696.793945	64925.601563
695.588867	64613.019531
694.383789	64923.515625
693.177734	65197.613281
691.971680	65596.554688
690.766602	65312.277344
689.559570	65493.468750
688.353516	65745.085938
687.146484	65658.281250
685.939453	64834.597656
684.732422	65376.066406
683.525391	65289.375000
682.318359	64884.765625
681.110352	65110.042969
679.902344	64637.218750
678.693359	64866.472656
677.485352	64617.066406
676.276367	65105.578125
675.067383	64846.164063
673.858398	64924.468750
672.649414	65267.968750
671.439453	65322.050781
670.229492	64472.269531
669.019531	65430.148438
667.809570	64646.914063
666.598633	64654.890625
665.387695	64422.015625
664.176758	64357.785156
662.965820	64283.546875
661.754883	63976.644531
660.542969	64062.937500
659.331055	64081.023438
658.119141	64093.085938
656.906250	63608.042969
655.694336	63638.218750
654.481445	63658.992188
653.268555	63679.769531
652.054688	63700.558594
650.841797	63721.335938
649.627930	63742.125000
648.414063	63762.917969
647.200195	64417.441406
645.985352	65003.683594
644.770508	64409.312500
643.555664	65407.390625
642.340820	64887.160156
641.125977	65034.960938
639.910156	65244.683594
638.694336	64788.722656
637.478516	64666.667969
636.262695	64840.367188
635.045898	64610.464844
633.829102	64384.644531
632.612305	63961.210938
631.395508	64039.062500
630.177734	64023.062500
628.959961	64050.976563
627.742188	63574.031250
626.524414	63506.250000
625.306641	63209.101563
624.087891	63328.871094
622.869141	63303.035156
621.650391	62884.476563
620.430664	63492.558594
619.211914	63096.035156
617.992188	62950.707031
616.772461	63297.464844
615.551758	62992.808594
614.332031	63102.457031
613.111328	63038.851563
611.890625	63062.851563
610.669922	63039.074219
609.448242	63019.285156
608.226563	62935.835938
607.004883	62691.300781
605.783203	62995.730469
604.561523	63043.554688
603.338867	62862.742188
602.116211	63075.535156
600.893555	62783.496094
599.669922	62710.113281
598.447266	62984.382813
597.223633	62789.835938
596.000000	62948.812500
594.775391	62962.796875
593.551758	62933.105469
592.327148	63091.957031
591.102539	63111.851563
589.877930	63010.718750
588.652344	63290.449219
587.426758	63484.796875
586.201172	62763.050781
584.975586	63298.386719
583.750000	63121.984375
582.523438	63573.816406
581.296875	63928.390625
580.070313	64025.320313
578.842773	64334.125000
577.616211	64500.238281
576.388672	64377.246094
575.161133	64410.664063
573.932617	64382.722656
572.705078	64617.941406
571.476563	64140.898438
570.248047	64362.226563
569.018555	64203.781250
567.790039	63616.359375
566.560547	63313.804688
565.331055	63600.332031
564.101563	63264.296875
562.871094	62991.605469
561.641602	63283.945313
560.411133	62985.675781
559.179688	62961.976563
557.949219	62752.710938
556.717773	62577.074219
555.486328	62699.488281
554.254883	62216.125000
553.023438	62630.511719
551.791016	62186.785156
550.558594	62307.195313
549.326172	61794.687500
548.093750	62224.597656
546.860352	62335.070313
545.627930	61986.382813
544.393555	61694.957031
543.160156	61949.246094
541.926758	61715.042969
540.692383	61916.066406
539.458008	62211.503906
538.223633	61945.878906
536.988281	61951.917969
535.752930	62064.199219
534.517578	61745.632813
533.282227	61730.062500
532.046875	62113.667969
530.810547	61799.199219
529.574219	62056.839844
528.337891	62420.507813
527.101563	62033.445313
525.864258	62738.800781
524.626953	61933.457031
523.389648	62230.093750
522.152344	62489.308594
520.914063	62277.292969
519.675781	61888.718750
518.437500	62102.710938
517.199219	61910.500000
515.959961	61832.128906
514.721680	62032.273438
513.482422	61902.921875
512.242188	62698.945313
511.002930	62620.472656
509.762695	62232.394531
508.522461	62152.074219
507.282227	61926.816406
506.041016	61789.781250
504.800781	62022.898438
503.559570	61866.308594
502.318359	62187.402344
501.076172	61887.968750
499.833984	61694.308594
498.592773	61712.003906
497.349609	61976.148438
496.107422	61897.957031
494.864258	62142.406250
493.622070	62109.167969
492.377930	62060.300781
491.134766	62019.269531
489.891602	62115.011719
488.647461	62169.695313
487.403320	62195.058594
486.158203	62128.632813
484.914063	61892.378906
483.668945	62251.554688
482.423828	62194.906250
481.178711	62029.007813
479.932617	62450.371094
478.686523	62142.097656
477.440430	62732.933594
476.194336	62902.402344
474.948242	63206.308594
473.701172	63052.082031
472.454102	63338.300781
471.207031	63291.257813
469.958984	63250.074219
468.711914	63456.234375
467.463867	62984.707031
466.215820	63471.171875
464.966797	63941.878906
463.718750	63583.386719
462.469727	64090.859375
461.220703	64257.703125
459.970703	64385.582031
458.721680	64635.921875
457.471680	64940.597656
456.221680	64912.757813
454.970703	65106.484375
453.720703	65457.523438
452.469727	66329.085938
451.218750	66165.023438
449.966797	66216.585938
448.715820	67112.742188
447.463867	67956.132813
446.211914	68447.906250
444.959961	69129.656250
443.707031	69558.921875
442.454102	69753.312500
441.201172	69363.851563
439.948242	69259.578125
438.695313	67761.421875
437.441406	67058.539063
436.187500	66288.093750
434.933594	65878.328125
433.678711	64688.011719
432.424805	64307.750000
431.169922	63844.363281
429.914063	63954.242188
428.659180	63558.839844
427.403320	62923.597656
426.147461	62867.167969
424.891602	62659.851563
423.635742	62816.257813
422.378906	62723.125000
421.122070	62537.214844
419.865234	62045.925781
418.608398	61558.687500
417.350586	62161.539063
416.092773	61892.781250
414.834961	62022.058594
413.577148	62468.031250
412.318359	62249.566406
411.059570	62191.425781
409.800781	61818.667969
408.541992	62306.785156
407.282227	62032.550781
406.022461	61959.046875
404.762695	61987.796875
403.502930	62222.875000
402.242188	61707.839844
400.981445	62056.609375
