#Wave		#Intensity
2001.182617	35206.253906
2000.212891	35647.398438
1999.243164	35871.734375
1998.273438	35602.382813
1997.303711	35596.167969
1996.333008	35775.304688
1995.363281	35533.652344
1994.392578	36045.750000
1993.421875	35488.699219
1992.451172	35577.617188
1991.479492	35771.609375
1990.508789	35905.480469
1989.537109	35701.574219
1988.566406	35780.382813
1987.594727	35599.078125
1986.622070	36185.449219
1985.650391	36069.128906
1984.677734	35727.894531
1983.706055	36228.964844
1982.733398	36062.722656
1981.760742	36171.339844
1980.788086	36227.460938
1979.814453	36096.265625
1978.841797	36050.007813
1977.868164	36036.218750
1976.894531	36204.640625
1975.920898	36048.582031
1974.947266	36037.289063
1973.972656	36155.726563
1972.999023	36306.546875
1972.024414	36389.976563
1971.049805	36418.523438
1970.075195	36272.550781
1969.099609	36064.316406
1968.125000	36404.410156
1967.149414	36295.886719
1966.173828	36052.875000
1965.198242	36395.281250
1964.222656	36685.265625
1963.247070	36277.976563
1962.270508	36179.519531
1961.294922	36267.777344
1960.318359	36321.160156
1959.341797	36386.960938
1958.364258	36072.117188
1957.387695	36613.015625
1956.410156	36668.781250
1955.433594	36764.308594
1954.456055	36352.660156
1953.478516	36391.039063
1952.500000	36367.277344
1951.522461	36855.363281
1950.543945	36545.835938
1949.565430	37095.816406
1948.586914	36572.781250
1947.608398	36596.175781
1946.629883	36701.484375
1945.650391	36742.218750
1944.671875	36596.812500
1943.692383	36972.515625
1942.712891	36834.562500
1941.733398	36689.214844
1940.752930	36732.386719
1939.773438	36428.417969
1938.792969	37066.589844
1937.812500	37040.269531
1936.832031	37013.960938
1935.851563	37185.875000
1934.870117	36879.609375
1933.888672	36642.800781
1932.908203	37027.660156
1931.926758	36790.906250
1930.945313	36999.835938
1929.962891	37235.917969
1928.981445	36979.449219
1927.999023	36723.070313
1927.016602	37085.238281
1926.034180	37172.726563
1925.051758	37124.175781
1924.069336	36914.921875
1923.085938	36943.062500
1922.102539	37275.207031
1921.119141	37019.078125
1920.135742	37281.906250
1919.152344	37337.132813
1918.168945	37108.292969
1917.184570	37042.519531
1916.200195	37515.027344
1915.215820	36691.332031
1914.231445	37213.093750
1913.247070	37169.554688
1912.261719	37449.246094
1911.276367	37112.117188
1910.291992	37265.929688
1909.306641	37343.238281
1908.320313	37563.527344
1907.334961	37288.234375
1906.348633	37782.039063
1905.363281	37472.300781
1904.376953	37500.222656
1903.390625	37688.253906
1902.403320	37285.097656
1901.416992	37795.699219
1900.429688	37500.996094
1899.443359	37757.820313
1898.456055	37438.613281
1897.467773	37245.019531
1896.480469	37541.117188
1895.493164	37910.906250
1894.504883	37682.894531
1893.516602	37929.570313
1892.528320	37908.160156
1891.540039	37604.058594
1890.550781	37966.132813
1889.562500	37721.097656
1888.573242	37633.398438
1887.583984	37842.964844
1886.594727	37548.957031
1885.605469	37805.121094
1884.615234	37761.656250
1883.625000	38002.960938
1882.635742	37853.933594
1881.645508	38131.945313
1880.654297	38181.679688
1879.664063	38194.597656
1878.673828	38214.867188
1877.682617	37975.195313
1876.691406	37841.031250
1875.700195	38390.843750
1874.708984	38077.730469
1873.716797	37933.816406
1872.725586	38167.257813
1871.733398	38091.960938
1870.741211	38087.718750
1869.749023	38117.757813
1868.755859	38213.890625
1867.763672	37918.320313
1866.770508	38246.960938
1865.777344	38575.488281
1864.784180	38160.121094
1863.791016	38231.691406
1862.797852	38699.449219
1861.803711	38533.699219
1860.809570	38810.535156
1859.815430	38666.820313
1858.821289	38603.808594
1857.827148	38438.187500
1856.832031	38626.882813
1855.837891	38461.312500
1854.842773	38264.046875
1853.847656	38376.968750
1852.852539	38997.679688
1851.856445	38431.820313
1850.861328	38944.914063
1849.865234	38491.507813
1848.869141	38699.437500
1847.873047	39043.894531
1846.876953	38856.546875
1845.879883	38757.046875
1844.883789	38750.230469
1843.886719	39016.421875
1842.889648	38851.140625
1841.892578	38690.789063
1840.895508	39305.242188
1839.897461	39383.582031
1838.899414	38948.007813
1837.901367	39157.871094
1836.903320	39094.984375
1835.905273	39333.953125
1834.907227	39229.679688
1833.908203	39091.375000
1832.909180	39612.433594
1831.910156	39478.968750
1830.911133	39107.210938
1829.912109	39248.656250
1828.912109	39334.128906
1827.913086	39939.753906
1826.913086	39684.824219
1825.913086	39544.191406
1824.913086	39590.675781
1823.912109	39423.386719
1822.912109	39763.734375
1821.911133	39290.519531
1820.910156	40106.609375
1819.909180	40116.535156
1818.908203	39912.886719
1817.906250	39867.031250
1816.904297	39544.621094
1815.903320	39639.527344
1814.900391	39843.535156
1813.898438	40052.320313
1812.896484	39819.796875
1811.893555	40060.019531
1810.891602	39815.457031
1809.888672	40276.089844
1808.885742	40302.906250
1807.881836	40017.250000
1806.878906	40264.480469
1805.875000	40344.550781
1804.871094	40361.648438
1803.867188	39776.031250
1802.863281	40260.292969
1801.859375	40391.113281
1800.854492	40212.226563
1799.849609	40309.144531
1798.844727	40282.687500
1797.839844	40599.585938
1796.834961	40469.132813
1795.830078	40841.476563
1794.824219	40853.605469
1793.818359	40452.554688
1792.812500	40650.761719
1791.806641	40682.234375
1790.799805	40998.660156
1789.793945	40972.113281
1788.787109	40622.078125
1787.780273	40805.593750
1786.773438	41203.816406
1785.766602	41322.011719
1784.758789	41109.667969
1783.751953	41367.726563
1782.744141	41739.039063
1781.736328	40596.035156
1780.728516	41143.328125
1779.719727	41473.503906
1778.711914	41608.359375
1777.703125	41523.914063
1776.694336	41379.269531
1775.685547	41682.667969
1774.676758	41928.164063
1773.666992	41184.000000
1772.657227	41990.390625
1771.648438	41727.847656
1770.638672	41888.929688
1769.627930	42131.753906
1768.618164	42071.390625
1767.607422	42008.640625
1766.597656	42453.312500
1765.586914	42337.617188
1764.576172	42258.019531
1763.564453	42192.871094
1762.553711	42983.226563
1761.541992	42600.824219
1760.530273	43131.386719
1759.518555	43094.941406
1758.506836	42964.859375
1757.495117	43214.164063
1756.482422	43232.933594
1755.469727	43407.695313
1754.457031	43256.042969
1753.444336	43802.617188
1752.431641	43818.863281
1751.417969	43695.996094
1750.405273	44086.328125
1749.391602	43546.281250
1748.377930	43958.078125
1747.364258	44278.648438
1746.349609	44143.816406
1745.335938	44521.738281
1744.321289	44913.898438
1743.306641	44611.371094
1742.291992	44323.316406
1741.276367	44638.687500
1740.261719	45190.917969
1739.246094	45053.687500
1738.230469	44765.753906
1737.214844	45037.750000
1736.199219	45570.375000
1735.182617	45691.460938
1734.166992	45614.031250
1733.150391	45837.863281
1732.133789	46460.796875
1731.117188	46309.179688
1730.099609	47249.609375
1729.083008	47179.128906
1728.065430	47390.535156
1727.047852	47823.964844
1726.030273	47607.761719
1725.012695	48181.851563
1723.994141	48120.808594
1722.976563	49207.703125
1721.958008	48981.855469
1720.939453	48832.425781
1719.920898	49324.683594
1718.901367	49342.179688
1717.882813	49562.347656
1716.863281	50180.558594
1715.843750	50209.808594
1714.824219	50158.015625
1713.803711	50163.429688
1712.784180	50652.445313
1711.763672	50579.160156
1710.743164	49910.535156
1709.722656	50551.714844
1708.702148	50433.250000
1707.681641	50388.613281
1706.660156	50141.707031
1705.638672	50085.234375
1704.617188	50371.343750
1703.595703	50602.648438
1702.574219	49911.167969
1701.551758	50432.539063
1700.529297	50319.003906
1699.507813	50067.648438
1698.484375	50092.042969
1697.461914	50496.582031
1696.439453	49874.734375
1695.416016	50131.906250
1694.392578	50146.765625
1693.369141	50669.714844
1692.345703	50461.324219
1691.322266	50461.871094
1690.297852	50685.476563
1689.273438	49860.312500
1688.249023	50373.347656
1687.224609	50788.960938
1686.200195	50462.191406
1685.174805	50865.781250
1684.150391	50804.605469
1683.125000	50534.882813
1682.099609	51104.113281
1681.073242	50533.535156
1680.047852	51199.683594
1679.021484	50837.707031
1677.995117	50717.390625
1676.968750	50857.546875
1675.942383	51066.296875
1674.916016	50877.363281
1673.888672	50962.984375
1672.862305	51512.285156
1671.834961	51614.316406
1670.806641	51441.964844
1669.779297	51867.921875
1668.751953	51610.472656
1667.723633	51045.820313
1666.695313	51504.703125
1665.666992	51970.507813
1664.638672	52048.691406
1663.609375	52280.382813
1662.581055	51824.742188
1661.551758	52620.726563
1660.522461	52519.308594
1659.493164	52521.781250
1658.462891	52160.808594
1657.433594	52368.625000
1656.403320	53010.449219
1655.373047	52703.832031
1654.342773	52918.507813
1653.312500	52633.230469
1652.281250	52623.875000
1651.250977	53005.800781
1650.219727	52727.718750
1649.188477	53578.375000
1648.156250	53385.097656
1647.125000	53052.921875
1646.092773	53286.054688
1645.060547	53278.933594
1644.028320	53528.417969
1642.996094	53871.960938
1641.963867	53961.222656
1640.930664	53728.101563
1639.898438	54184.339844
1638.865234	54184.109375
1637.832031	54364.957031
1636.797852	54009.660156
1635.764648	54632.417969
1634.730469	55149.187500
1633.696289	55176.976563
1632.662109	55284.636719
1631.627930	55387.562500
1630.592773	55668.949219
1629.558594	56121.656250
1628.523438	55834.621094
1627.488281	56831.746094
1626.453125	57138.480469
1625.416992	57086.074219
1624.381836	57847.816406
1623.345703	58609.281250
1622.309570	59194.570313
1621.273438	60016.492188
1620.237305	61616.500000
1619.200195	62468.164063
1618.163086	63586.703125
1617.125977	65724.164063
1616.088867	66921.382813
1615.051758	68427.367188
1614.014648	70239.617188
1612.976563	72135.523438
1611.938477	73077.882813
1610.900391	73490.890625
1609.862305	73292.914063
1608.823242	72884.406250
1607.785156	72270.171875
1606.746094	70961.437500
1605.707031	69288.328125
1604.667969	67159.843750
1603.628906	66217.414063
1602.588867	65275.320313
1601.548828	63410.429688
1600.508789	62765.910156
1599.468750	62151.992188
1598.428711	60947.335938
1597.387695	60506.769531
1596.347656	59919.253906
1595.306641	59640.105469
1594.265625	59438.078125
1593.224609	58813.722656
1592.182617	58609.578125
1591.140625	58844.082031
1590.099609	58341.445313
1589.057617	57561.476563
1588.014648	57574.527344
1586.972656	57119.003906
1585.929688	57206.710938
1584.887695	56956.484375
1583.844727	56839.148438
1582.800781	56679.921875
1581.757813	56881.761719
1580.714844	56319.714844
1579.670898	56481.964844
1578.626953	56583.625000
1577.583008	56894.722656
1576.538086	56893.878906
1575.494141	56827.890625
1574.449219	57075.960938
1573.404297	57261.144531
1572.359375	57529.972656
1571.314453	57531.332031
1570.269531	57167.734375
1569.223633	57573.550781
1568.177734	57056.703125
1567.131836	56265.890625
1566.085938	56764.558594
1565.040039	56591.855469
1563.993164	55991.945313
1562.946289	55826.402344
1561.899414	55716.621094
1560.852539	55374.796875
1559.805664	55478.609375
1558.757813	55034.863281
1557.709961	55377.613281
1556.662109	55553.253906
1555.614258	55448.265625
1554.566406	55489.367188
1553.517578	55326.472656
1552.469727	55708.250000
1551.420898	55816.468750
1550.372070	55563.246094
1549.322266	55652.921875
1548.273438	55768.035156
1547.223633	55723.339844
1546.173828	55724.957031
1545.124023	55728.886719
1544.074219	55617.105469
1543.024414	56201.808594
1541.973633	55879.457031
1540.922852	55582.664063
1539.872070	56118.488281
1538.821289	55370.890625
1537.770508	55721.621094
1536.718750	55267.886719
1535.666992	55484.472656
1534.615234	55148.777344
1533.563477	55420.746094
1532.511719	55138.296875
1531.458984	55107.652344
1530.407227	54719.152344
1529.354492	54379.261719
1528.300781	54261.062500
1527.248047	54627.492188
1526.195313	54666.175781
1525.141602	54850.164063
1524.087891	54531.300781
1523.034180	54152.597656
1521.980469	53684.109375
1520.925781	54167.796875
1519.871094	54791.898438
1518.817383	54436.453125
1517.762695	54187.105469
1516.707031	53679.863281
1515.652344	54250.625000
1514.596680	54245.519531
1513.541016	54390.062500
1512.485352	54603.601563
1511.429688	54527.085938
1510.374023	53985.796875
1509.317383	54374.132813
1508.260742	54357.496094
1507.204102	54140.789063
1506.147461	54292.046875
1505.090820	54383.480469
1504.033203	54442.695313
1502.975586	54375.492188
1501.917969	53986.636719
1500.860352	54408.855469
1499.802734	54426.671875
1498.744141	54867.031250
1497.686523	54347.480469
1496.627930	54521.394531
1495.569336	54821.484375
1494.509766	54561.527344
1493.451172	54124.992188
1492.391602	54684.203125
1491.332031	54435.871094
1490.272461	54059.210938
1489.212891	53960.105469
1488.152344	54126.945313
1487.092773	54438.113281
1486.032227	54733.132813
1484.971680	54471.296875
1483.910156	54218.718750
1482.849609	54696.832031
1481.788086	54719.082031
1480.726563	55036.667969
1479.665039	54630.792969
1478.603516	55060.417969
1477.541992	54956.726563
1476.479492	54960.597656
1475.416992	55136.023438
1474.354492	55229.050781
1473.291992	55246.582031
1472.229492	54848.023438
1471.166016	54993.617188
1470.102539	55438.539063
1469.039063	55615.960938
1467.975586	55306.707031
1466.912109	55623.417969
1465.847656	55645.410156
1464.783203	55665.105469
1463.718750	55588.914063
1462.654297	55782.082031
1461.589844	56219.359375
1460.524414	56421.464844
1459.458984	56217.429688
1458.393555	56424.023438
1457.328125	56388.808594
1456.262695	55662.750000
1455.196289	56386.800781
1454.130859	56419.984375
1453.064453	56767.628906
1451.998047	56237.957031
1450.930664	56767.746094
1449.864258	56666.445313
1448.796875	56619.835938
1447.729492	56527.703125
1446.662109	56599.500000
1445.594727	57258.464844
1444.526367	57227.699219
1443.458008	57303.875000
1442.390625	57116.152344
1441.321289	57701.761719
1440.252930	58444.058594
1439.184570	58567.695313
1438.115234	58639.000000
1437.045898	59219.363281
1435.976563	59551.835938
1434.907227	59093.574219
1433.836914	59762.121094
1432.767578	60514.453125
1431.697266	59969.972656
1430.626953	61225.984375
1429.555664	61176.390625
1428.485352	61464.957031
1427.414063	61553.742188
1426.342773	61839.863281
1425.271484	62273.308594
1424.200195	62221.289063
1423.128906	62654.507813
1422.056641	62860.871094
1420.984375	63112.484375
1419.912109	62922.109375
1418.839844	62795.238281
1417.767578	63135.070313
1416.694336	63162.214844
1415.621094	62863.257813
1414.547852	62709.308594
1413.474609	61946.476563
1412.400391	62141.289063
1411.327148	61462.554688
1410.252930	60813.472656
1409.178711	60994.804688
1408.104492	61099.171875
1407.029297	60744.464844
1405.955078	60478.050781
1404.879883	60286.328125
1403.804688	60718.449219
1402.729492	60815.980469
1401.653320	60843.437500
1400.578125	61096.765625
1399.501953	61937.191406
1398.425781	61119.925781
1397.349609	61199.226563
1396.272461	61583.214844
1395.196289	61939.980469
1394.119141	61960.414063
1393.041992	62840.367188
1391.964844	63129.042969
1390.886719	64024.250000
1389.809570	64362.203125
1388.731445	65232.062500
1387.653320	64755.996094
1386.575195	64775.878906
1385.497070	65442.402344
1384.417969	64986.820313
1383.338867	64803.933594
1382.259766	65039.964844
1381.180664	64404.574219
1380.101563	64890.460938
1379.021484	64282.328125
1377.941406	64531.777344
1376.861328	64391.898438
1375.781250	64416.285156
1374.701172	63505.039063
1373.620117	64055.757813
1372.539063	63360.734375
1371.458008	63405.507813
1370.376953	63499.703125
1369.295898	63191.640625
1368.213867	63029.718750
1367.132813	62847.636719
1366.050781	63400.007813
1364.967773	63339.171875
1363.885742	63424.281250
1362.802734	63834.828125
1361.720703	64438.230469
1360.637695	64909.023438
1359.554688	64650.535156
1358.470703	64271.019531
1357.387695	64604.781250
1356.303711	63989.972656
1355.219727	63810.289063
1354.135742	63135.324219
1353.050781	62440.429688
1351.966797	62211.824219
1350.881836	61481.500000
1349.796875	61362.890625
1348.711914	61136.835938
1347.626953	60416.046875
1346.541016	60232.773438
1345.455078	59933.175781
1344.369141	59835.082031
1343.283203	60048.007813
1342.197266	59849.261719
1341.110352	59894.367188
1340.023438	59805.285156
1338.936523	59412.171875
1337.849609	59287.441406
1336.762695	59696.894531
1335.674805	59326.355469
1334.586914	59829.480469
1333.499023	59671.246094
1332.411133	59410.335938
1331.323242	59977.921875
1330.234375	59641.140625
1329.145508	60335.703125
1328.056641	60612.687500
1326.967773	60798.085938
1325.878906	61094.957031
1324.789063	61240.046875
1323.699219	62029.574219
1322.609375	62321.597656
1321.519531	62952.359375
1320.429688	64099.988281
1319.338867	64491.750000
1318.248047	65825.835938
1317.157227	66277.289063
1316.066406	67966.929688
1314.975586	68903.273438
1313.883789	69516.445313
1312.791992	69835.554688
1311.700195	69836.273438
1310.608398	69750.210938
1309.516602	69170.257813
1308.423828	68570.492188
1307.331055	67853.070313
1306.238281	67151.460938
1305.145508	65892.085938
1304.051758	65011.035156
1302.958984	64734.800781
1301.865234	63880.937500
1300.771484	64033.777344
1299.677734	64215.433594
1298.583008	64061.679688
1297.489258	63921.296875
1296.394531	63767.644531
1295.299805	64481.914063
1294.204102	64188.402344
1293.109375	64187.871094
1292.013672	64666.519531
1290.917969	64723.566406
1289.822266	64363.683594
1288.726563	64298.812500
1287.630859	63934.699219
1286.534180	63892.089844
1285.437500	63501.582031
1284.340820	63516.664063
1283.244141	63008.957031
1282.146484	62585.589844
1281.048828	62627.394531
1279.951172	61838.937500
1278.853516	61701.558594
1277.755859	61851.941406
1276.658203	60960.042969
1275.559570	60991.031250
1274.460938	60283.203125
1273.362305	60440.359375
1272.262695	59810.273438
1271.164063	60144.312500
1270.064453	59912.371094
1268.964844	59342.386719
1267.865234	58688.640625
1266.765625	59281.105469
1265.665039	59053.894531
1264.564453	58519.800781
1263.463867	58250.855469
1262.363281	58578.054688
1261.262695	57834.648438
1260.161133	58386.886719
1259.059570	57650.398438
1257.958008	57547.289063
1256.856445	58335.269531
1255.754883	57599.183594
1254.652344	57339.593750
1253.549805	57205.746094
1252.447266	56948.519531
1251.344727	57431.789063
1250.242188	56874.980469
1249.138672	57091.542969
1248.035156	56878.562500
1246.931641	56978.339844
1245.828125	56697.203125
1244.724609	56882.816406
1243.620117	56718.437500
1242.515625	56593.718750
1241.411133	57294.039063
1240.306641	57125.265625
1239.201172	57532.738281
1238.096680	56842.867188
1236.991211	56592.921875
1235.885742	56965.093750
1234.779297	57152.531250
1233.673828	57078.433594
1232.567383	56991.179688
1231.460938	56934.703125
1230.354492	56700.371094
1229.248047	56595.660156
1228.140625	56497.570313
1227.033203	56531.199219
1225.926758	56617.480469
1224.818359	56688.371094
1223.710938	56642.972656
1222.602539	56340.984375
1221.495117	56284.695313
1220.386719	56204.308594
1219.278320	56472.480469
1218.168945	56168.539063
1217.060547	56237.210938
1215.951172	55841.406250
1214.841797	55726.117188
1213.731445	56189.027344
1212.622070	56325.511719
1211.511719	56354.675781
1210.402344	56114.605469
1209.291992	55931.515625
1208.180664	56641.199219
1207.070313	56364.007813
1205.958984	57281.140625
1204.847656	56629.980469
1203.736328	56823.015625
1202.625000	57223.652344
1201.512695	56950.964844
1200.401367	57274.945313
1199.289063	57537.628906
1198.176758	57666.964844
1197.063477	57813.718750
1195.951172	57993.175781
1194.837891	58550.265625
1193.724609	58657.484375
1192.611328	58692.636719
1191.498047	58625.222656
1190.383789	58280.753906
1189.269531	58124.000000
1188.155273	57945.492188
1187.041016	57756.144531
1185.926758	57318.335938
1184.811523	56930.816406
1183.696289	57049.027344
1182.581055	56432.910156
1181.465820	56429.167969
1180.350586	56630.164063
1179.234375	56317.152344
1178.118164	56176.253906
1177.001953	56348.878906
1175.885742	56116.613281
1174.768555	56204.312500
1173.652344	55667.554688
1172.535156	55761.824219
1171.417969	55384.105469
1170.299805	55674.093750
1169.182617	55509.585938
1168.064453	55332.093750
1166.946289	55291.582031
1165.828125	55470.550781
1164.709961	54997.687500
1163.590820	55189.671875
1162.471680	55160.062500
1161.352539	55154.351563
1160.233398	55433.031250
1159.114258	55429.433594
1157.994141	55202.312500
1156.874023	55767.234375
1155.753906	55158.316406
1154.633789	55525.660156
1153.513672	55465.652344
1152.392578	55017.566406
1151.271484	55733.738281
1150.150391	55402.796875
1149.029297	55856.425781
1147.907227	55586.242188
1146.786133	55498.117188
1145.664063	55732.726563
1144.541992	55954.257813
1143.418945	56091.269531
1142.296875	56438.195313
1141.173828	56507.968750
1140.050781	56859.015625
1138.927734	57073.636719
1137.803711	57056.726563
1136.680664	57338.269531
1135.556641	57107.253906
1134.432617	57421.105469
1133.308594	57220.414063
1132.183594	57086.785156
1131.059570	56776.023438
1129.934570	57214.996094
1128.809570	57200.226563
1127.684570	56999.746094
1126.558594	57317.515625
1125.432617	56810.546875
1124.307617	56990.097656
1123.180664	56574.000000
1122.054688	56660.753906
1120.928711	56671.972656
1119.801758	56126.750000
1118.674805	56420.535156
1117.547852	56039.406250
1116.419922	56083.050781
1115.292969	56340.042969
1114.165039	56012.996094
1113.037109	56216.039063
1111.909180	55977.441406
1110.780273	55898.296875
1109.652344	55683.523438
1108.523438	55903.691406
1107.394531	55807.375000
1106.264648	55967.179688
1105.135742	56116.164063
1104.005859	56559.812500
1102.875977	56276.312500
1101.746094	56220.863281
1100.616211	56055.777344
1099.485352	56363.671875
1098.355469	56321.121094
1097.224609	56603.062500
1096.092773	56186.648438
1094.961914	56240.812500
1093.830078	56116.695313
1092.699219	55936.792969
1091.567383	55817.066406
1090.434570	55648.007813
1089.302734	55755.863281
1088.169922	55975.250000
1087.037109	55943.550781
1085.904297	55390.644531
1084.771484	55322.601563
1083.637695	55537.609375
1082.504883	56024.792969
1081.371094	55845.210938
1080.236328	55907.847656
1079.102539	55878.324219
1077.968750	56054.464844
1076.833984	56339.765625
1075.699219	55980.398438
1074.564453	56257.042969
1073.428711	56385.878906
1072.292969	56595.992188
1071.158203	56444.394531
1070.022461	56023.285156
1068.885742	56393.769531
1067.750000	56717.070313
1066.613281	56020.292969
1065.476563	56965.656250
1064.339844	56980.867188
1063.203125	56681.917969
1062.065430	56908.703125
1060.927734	56806.414063
1059.790039	56791.730469
1058.652344	56399.062500
1057.514648	56512.558594
1056.375977	56521.414063
1055.237305	56888.828125
1054.098633	56831.453125
1052.959961	56720.753906
1051.820313	56785.015625
1050.681641	56827.921875
1049.541992	56800.441406
1048.402344	56792.156250
1047.261719	57235.769531
1046.122070	57014.281250
1044.981445	57442.773438
1043.840820	57276.714844
1042.700195	57174.617188
1041.558594	56874.492188
1040.417969	57117.441406
1039.276367	57047.351563
1038.134766	56890.019531
1036.992188	56556.109375
1035.850586	56545.730469
1034.708008	56741.699219
1033.565430	56982.261719
1032.422852	57063.242188
1031.280273	56721.089844
1030.136719	56700.050781
1028.994141	56776.781250
1027.850586	57216.847656
1026.706055	56779.304688
1025.562500	56637.175781
1024.417969	56730.843750
1023.273438	56801.113281
1022.128906	56601.734375
1020.984375	56882.136719
1019.839844	56735.867188
1018.694336	56795.464844
1017.548828	56261.035156
1016.403320	56259.183594
1015.256836	57126.804688
1014.111328	56726.175781
1012.964844	56902.304688
1011.818359	57133.472656
1010.671875	56783.914063
1009.524414	56495.925781
1008.377930	56697.375000
1007.230469	56625.535156
1006.083008	57125.460938
1004.934570	56746.570313
1003.787109	56805.992188
1002.638672	57373.324219
1001.490234	57407.210938
1000.341797	57419.929688
999.193359	57688.582031
998.043945	57876.765625
996.894531	57500.324219
995.745117	57574.312500
994.595703	57183.261719
993.446289	57597.515625
992.295898	57751.726563
991.145508	57846.726563
989.995117	57341.847656
988.844727	57020.875000
987.693359	57555.109375
986.541992	57413.640625
985.390625	57715.441406
984.239258	57719.589844
983.087891	58048.644531
981.935547	57571.781250
980.783203	57552.750000
979.630859	57668.675781
978.478516	57685.464844
977.325195	58494.796875
976.172852	58066.753906
975.019531	58391.085938
973.865234	58262.359375
972.711914	57771.398438
971.557617	57872.371094
970.404297	57992.257813
969.250000	58227.878906
968.094727	58057.191406
966.940430	57922.343750
965.785156	58170.460938
964.629883	58298.582031
963.474609	58193.199219
962.319336	58237.148438
961.163086	58411.433594
960.007813	58396.464844
958.851563	58703.050781
957.694336	59324.710938
956.538086	58685.621094
955.380859	58639.097656
954.223633	58537.984375
953.066406	58741.363281
951.909180	58917.375000
950.751953	58545.496094
949.593750	58662.714844
948.435547	58087.496094
947.277344	57992.875000
946.118164	57833.265625
944.959961	58466.378906
943.800781	58109.656250
942.641602	58002.515625
941.482422	58008.582031
940.322266	57761.097656
939.162109	57769.300781
938.001953	58464.550781
936.841797	58062.128906
935.681641	58445.074219
934.520508	58388.230469
933.360352	58262.335938
932.198242	58755.937500
931.037109	58876.914063
929.875977	58912.070313
928.713867	58390.851563
927.551758	58794.132813
926.389648	58912.910156
925.227539	58757.792969
924.064453	59292.449219
922.901367	59394.343750
921.738281	59255.933594
920.575195	59326.457031
919.412109	59576.566406
918.248047	59695.027344
917.083984	59446.003906
915.919922	59787.785156
914.755859	59568.046875
913.590820	60114.156250
912.426758	60115.570313
911.261719	61130.679688
910.095703	61321.671875
908.930664	61454.210938
907.764648	61167.683594
906.598633	61529.460938
905.432617	61290.949219
904.266602	61210.867188
903.099609	61328.707031
901.933594	60705.054688
900.766602	60258.625000
899.599609	60767.972656
898.431641	60284.226563
897.264648	60221.050781
896.096680	60176.625000
894.928711	59988.664063
893.759766	59476.285156
892.591797	59581.746094
891.422852	59556.175781
890.253906	59842.441406
889.084961	59251.472656
887.916016	59627.042969
886.746094	59765.609375
885.576172	59756.628906
884.406250	59706.113281
883.236328	59562.167969
882.065430	59559.453125
880.895508	59473.703125
879.724609	60130.980469
878.552734	60038.929688
877.381836	60208.312500
876.209961	60132.867188
875.039063	60768.789063
873.866211	61161.871094
872.694336	60559.710938
871.522461	61072.902344
870.349609	60885.445313
869.176758	60766.433594
868.003906	60597.742188
866.830078	61518.558594
865.657227	61231.746094
864.483398	61477.140625
863.309570	62198.550781
862.135742	62379.507813
860.960938	62715.593750
859.786133	62761.906250
858.611328	62952.992188
857.436523	62577.339844
856.261719	62737.371094
855.085938	61981.496094
853.910156	61740.578125
852.734375	61613.406250
851.558594	61515.207031
850.382813	61766.167969
849.206055	61537.847656
848.029297	61910.542969
846.852539	62097.277344
845.674805	61928.878906
844.498047	62260.007813
843.320313	62760.222656
842.142578	62678.441406
840.963867	63345.468750
839.786133	64158.675781
838.607422	64621.039063
837.428711	65382.160156
836.250000	65765.789063
835.070313	66299.718750
833.891602	66384.265625
832.711914	65364.566406
831.532227	65340.082031
830.352539	64456.867188
829.171875	63625.449219
827.991211	63189.578125
826.810547	62194.042969
825.629883	61958.203125
824.449219	61485.843750
823.267578	60820.296875
822.085938	60541.644531
820.904297	60347.398438
819.722656	60352.644531
818.540039	59572.679688
817.357422	59097.164063
816.174805	59770.421875
814.992188	59578.539063
813.809570	59409.320313
812.625977	58925.960938
811.442383	58791.824219
810.258789	58996.453125
809.074219	59049.121094
807.890625	59370.589844
806.706055	59394.441406
805.521484	59366.996094
804.336914	59632.843750
803.151367	59691.484375
801.966797	60225.738281
800.781250	58857.585938
799.594727	58826.156250
798.409180	58368.535156
797.222656	58064.734375
796.037109	57928.996094
794.849609	57680.675781
793.663086	57522.535156
792.476563	57268.234375
791.289063	57472.496094
790.101563	56999.332031
788.914063	56984.640625
787.725586	57068.144531
786.538086	56779.382813
785.349609	56723.835938
784.161133	56345.285156
782.971680	56257.128906
781.783203	56704.457031
780.593750	56119.734375
779.404297	56419.824219
778.214844	56376.644531
777.024414	56427.421875
775.834961	56092.277344
774.644531	56059.386719
773.454102	56012.214844
772.262695	56399.718750
771.072266	56570.808594
769.880859	56101.304688
768.689453	56390.671875
767.497070	56202.769531
766.305664	56390.066406
765.113281	56357.148438
763.920898	56815.394531
762.728516	57071.746094
761.536133	57236.320313
760.342773	57700.253906
759.149414	57375.890625
757.956055	57817.218750
756.762695	57804.414063
755.568359	58367.617188
754.374023	58647.746094
753.179688	58628.683594
751.985352	58217.019531
750.791016	58423.792969
749.595703	57571.062500
748.400391	57371.257813
747.205078	57541.476563
746.009766	57770.566406
744.813477	57176.636719
743.617188	56905.941406
742.420898	56537.847656
741.224609	56693.835938
740.027344	56240.632813
738.830078	56045.414063
737.632813	55935.515625
736.435547	56020.460938
735.238281	55829.441406
734.040039	55496.496094
732.841797	55396.910156
731.643555	55923.937500
730.445313	55455.316406
729.246094	55209.839844
728.046875	55140.769531
726.847656	55335.136719
725.648438	54816.316406
724.449219	55111.941406
723.249023	55277.843750
722.048828	54813.988281
720.848633	54799.710938
719.647461	54987.835938
718.447266	54947.218750
717.246094	54999.683594
716.044922	54799.269531
714.842773	54756.683594
713.641602	55498.683594
712.439453	55106.218750
711.237305	55298.062500
710.035156	55683.851563
708.832031	55172.347656
707.629883	55287.296875
706.426758	55487.035156
705.223633	55543.316406
704.019531	55827.730469
702.815430	55883.917969
701.612305	55867.425781
700.408203	55003.394531
699.203125	55281.632813
697.999023	55404.441406
696.793945	55761.152344
695.588867	55135.718750
694.383789	55984.261719
693.177734	55538.410156
691.971680	55969.382813
690.766602	55497.503906
689.559570	55535.480469
688.353516	55964.191406
687.146484	55204.593750
685.939453	55325.144531
684.732422	55292.660156
683.525391	55145.460938
682.318359	55203.566406
681.110352	54380.425781
679.902344	54718.253906
678.693359	54858.859375
677.485352	54836.535156
676.276367	55147.945313
675.067383	55031.097656
673.858398	55101.191406
672.649414	55271.718750
671.439453	54747.097656
670.229492	54843.304688
669.019531	54750.710938
667.809570	55284.578125
666.598633	54605.761719
665.387695	54744.062500
664.176758	54707.730469
662.965820	54699.496094
661.754883	54596.988281
660.542969	54989.878906
659.331055	54416.132813
658.119141	54750.769531
656.906250	54886.843750
655.694336	54664.136719
654.481445	55160.828125
653.268555	54697.753906
652.054688	54967.917969
650.841797	54601.171875
649.627930	55323.738281
648.414063	55093.179688
647.200195	55815.375000
645.985352	56095.070313
644.770508	56424.671875
643.555664	57032.187500
642.340820	57211.496094
641.125977	57482.707031
639.910156	57108.089844
638.694336	57231.304688
637.478516	56591.078125
636.262695	55871.167969
635.045898	55798.769531
633.829102	56006.011719
632.612305	55300.585938
631.395508	55018.687500
630.177734	54856.664063
628.959961	54766.546875
627.742188	54550.750000
626.524414	54027.792969
625.306641	54564.199219
624.087891	54354.539063
622.869141	54194.796875
621.650391	54047.078125
620.430664	54248.214844
619.211914	54596.742188
617.992188	53839.339844
616.772461	54016.492188
615.551758	54145.773438
614.332031	54055.960938
613.111328	54587.351563
611.890625	54198.898438
610.669922	53828.503906
609.448242	54242.230469
608.226563	54154.460938
607.004883	53728.582031
605.783203	54066.515625
604.561523	53950.984375
603.338867	54252.960938
602.116211	54020.164063
600.893555	54340.699219
599.669922	54661.492188
598.447266	54267.839844
597.223633	53602.242188
596.000000	53558.417969
594.775391	53721.082031
593.551758	54115.921875
592.327148	53960.878906
591.102539	54434.886719
589.877930	53914.812500
588.652344	54015.757813
587.426758	53817.210938
586.201172	54106.488281
584.975586	53981.343750
583.750000	53870.117188
582.523438	54099.765625
581.296875	54539.335938
580.070313	54350.808594
578.842773	54346.531250
577.616211	54207.605469
576.388672	54652.753906
575.161133	54759.257813
573.932617	54606.472656
572.705078	54671.390625
571.476563	54310.960938
570.248047	55046.406250
569.018555	54697.898438
567.790039	54238.796875
566.560547	54359.062500
565.331055	54443.699219
564.101563	54419.625000
562.871094	54213.796875
561.641602	53905.328125
560.411133	54126.250000
559.179688	53944.277344
557.949219	53764.347656
556.717773	53839.101563
555.486328	53590.183594
554.254883	54138.464844
553.023438	53467.429688
551.791016	53013.593750
550.558594	53344.757813
549.326172	53214.445313
548.093750	53277.359375
546.860352	53241.707031
545.627930	53280.941406
544.393555	53460.031250
543.160156	53087.539063
541.926758	53367.031250
540.692383	53492.835938
539.458008	53404.011719
538.223633	53142.019531
536.988281	53145.781250
535.752930	53613.867188
534.517578	53759.164063
533.282227	53182.613281
532.046875	53441.980469
530.810547	53441.738281
529.574219	53801.203125
528.337891	53618.121094
527.101563	54541.332031
525.864258	54379.781250
524.626953	54302.750000
523.389648	54498.707031
522.152344	53881.738281
520.914063	53844.093750
519.675781	53737.769531
518.437500	54108.320313
517.199219	53937.238281
515.959961	54040.832031
514.721680	53610.945313
513.482422	53691.027344
512.242188	53514.261719
511.002930	53833.457031
509.762695	53935.003906
508.522461	54110.960938
507.282227	53763.808594
506.041016	54012.195313
504.800781	53506.570313
503.559570	53948.738281
502.318359	53756.507813
501.076172	53540.863281
499.833984	53837.964844
498.592773	53694.765625
497.349609	53623.992188
496.107422	53664.710938
494.864258	53644.800781
493.622070	53779.335938
492.377930	53546.359375
491.134766	54456.656250
489.891602	53762.542969
488.647461	54037.589844
487.403320	54193.390625
486.158203	53609.062500
484.914063	54251.007813
483.668945	54051.417969
482.423828	53785.546875
481.178711	53904.164063
479.932617	54170.996094
478.686523	54541.101563
477.440430	54536.640625
476.194336	54672.562500
474.948242	55272.378906
473.701172	54552.496094
472.454102	55245.636719
471.207031	55133.882813
469.958984	55037.750000
468.711914	55270.785156
467.463867	55493.992188
466.215820	55251.828125
464.966797	55449.644531
463.718750	55402.183594
462.469727	55788.621094
461.220703	55918.132813
459.970703	55767.515625
458.721680	55933.921875
457.471680	56279.128906
456.221680	56569.777344
454.970703	56537.691406
453.720703	56661.066406
452.469727	57124.375000
451.218750	57327.222656
449.966797	57603.789063
448.715820	58346.238281
447.463867	58773.921875
446.211914	58593.937500
444.959961	59256.207031
443.707031	60040.457031
442.454102	60308.421875
441.201172	59930.445313
439.948242	59436.269531
438.695313	59134.207031
437.441406	58177.101563
436.187500	57104.074219
434.933594	56882.058594
433.678711	56185.503906
432.424805	55905.636719
431.169922	55654.917969
429.914063	55088.703125
428.659180	54985.347656
427.403320	54690.421875
426.147461	54542.671875
424.891602	54360.148438
423.635742	54431.085938
422.378906	54016.578125
421.122070	53979.265625
419.865234	53709.984375
418.608398	53750.054688
417.350586	54323.468750
416.092773	54228.152344
414.834961	53827.660156
413.577148	53718.953125
412.318359	53689.453125
411.059570	53602.046875
409.800781	53887.210938
408.541992	53766.984375
407.282227	53843.613281
406.022461	53715.718750
404.762695	53834.753906
403.502930	53556.488281
402.242188	53806.613281
400.981445	53700.019531
