#Wave		#Intensity
2001.221680	39467.574219
2000.251953	39582.875000
1999.282227	39826.574219
1998.312500	39817.117188
1997.342773	40008.074219
1996.372070	39462.566406
1995.402344	39478.214844
1994.431641	39361.152344
1993.460938	39827.429688
1992.490234	39610.222656
1991.518555	39440.636719
1990.547852	39751.523438
1989.576172	39594.476563
1988.604492	40015.277344
1987.632813	39903.253906
1986.661133	39658.746094
1985.689453	39589.320313
1984.716797	40024.820313
1983.745117	40085.304688
1982.772461	40118.277344
1981.799805	39903.917969
1980.827148	39949.398438
1979.853516	40017.339844
1978.880859	40180.136719
1977.907227	39990.871094
1976.933594	39771.718750
1975.959961	39971.902344
1974.986328	40486.406250
1974.011719	39730.914063
1973.038086	40220.332031
1972.063477	40235.746094
1971.088867	40542.882813
1970.114258	40553.246094
1969.138672	40184.734375
1968.164063	40421.937500
1967.188477	40190.617188
1966.212891	40228.433594
1965.237305	40034.589844
1964.261719	40548.074219
1963.286133	40025.570313
1962.309570	40454.230469
1961.333984	40496.933594
1960.357422	40143.933594
1959.380859	40293.667969
1958.404297	40423.445313
1957.426758	40401.449219
1956.450195	40446.605469
1955.472656	40459.421875
1954.495117	40740.722656
1953.517578	40358.269531
1952.540039	40656.882813
1951.561523	40756.609375
1950.583008	40809.101563
1949.605469	40727.441406
1948.626953	40650.781250
1947.647461	40675.945313
1946.668945	40946.867188
1945.690430	41096.074219
1944.710938	40773.707031
1943.731445	41069.281250
1942.751953	40553.527344
1941.772461	41439.359375
1940.791992	40926.199219
1939.812500	40951.265625
1938.832031	41006.070313
1937.851563	40971.625000
1936.871094	40667.070313
1935.890625	40818.523438
1934.909180	41569.433594
1933.928711	41207.960938
1932.947266	41012.531250
1931.965820	40963.253906
1930.984375	41471.000000
1930.002930	41634.523438
1929.020508	41209.000000
1928.038086	41327.968750
1927.056641	41268.777344
1926.074219	41308.542969
1925.090820	41516.453125
1924.108398	41756.433594
1923.125000	41805.976563
1922.142578	41158.484375
1921.159180	41554.082031
1920.175781	41774.117188
1919.191406	41388.824219
1918.208008	41322.292969
1917.223633	41423.707031
1916.240234	41367.062500
1915.255859	41547.429688
1914.271484	41619.128906
1913.286133	41858.609375
1912.301758	41476.234375
1911.316406	41967.277344
1910.331055	41930.324219
1909.345703	41885.980469
1908.360352	41915.617188
1907.375000	41383.179688
1906.388672	42048.800781
1905.402344	41829.496094
1904.416016	42176.957031
1903.429688	41371.398438
1902.443359	42036.546875
1901.457031	41997.160156
1900.469727	41854.371094
1899.482422	41780.562500
1898.495117	41664.933594
1897.507813	42039.058594
1896.520508	41770.875000
1895.532227	42230.945313
1894.543945	42071.039063
1893.556641	41997.261719
1892.568359	42235.761719
1891.579102	42287.347656
1890.590820	42277.464844
1889.601563	42075.910156
1888.613281	42164.343750
1887.624023	42203.617188
1886.634766	41729.542969
1885.644531	41913.761719
1884.655273	42377.812500
1883.665039	42245.175781
1882.674805	42655.003906
1881.684570	42532.175781
1880.694336	42321.062500
1879.704102	42284.195313
1878.712891	42217.902344
1877.722656	42443.453125
1876.731445	42396.765625
1875.740234	42109.863281
1874.748047	42200.503906
1873.756836	42386.679688
1872.764648	42053.371094
1871.773438	42643.699219
1870.781250	42371.691406
1869.788086	42609.125000
1868.795898	42562.464844
1867.803711	42506.023438
1866.810547	42476.527344
1865.817383	42586.519531
1864.824219	42730.726563
1863.831055	42684.078125
1862.837891	42681.468750
1861.843750	42563.921875
1860.849609	42854.722656
1859.855469	42651.628906
1858.861328	42829.878906
1857.867188	42939.640625
1856.872070	42822.148438
1855.877930	42963.628906
1854.882813	43075.746094
1853.887695	43141.429688
1852.892578	43075.246094
1851.896484	43248.308594
1850.901367	43313.921875
1849.905273	43072.042969
1848.909180	43296.246094
1847.913086	43239.843750
1846.916992	43217.601563
1845.919922	43505.054688
1844.923828	43273.101563
1843.926758	43884.644531
1842.929688	43733.128906
1841.932617	43791.226563
1840.935547	43620.285156
1839.937500	44153.378906
1838.939453	44252.769531
1837.942383	44176.800781
1836.943359	43840.351563
1835.945313	44151.511719
1834.947266	43917.402344
1833.948242	43634.703125
1832.949219	44283.906250
1831.951172	44190.972656
1830.951172	43633.546875
1829.952148	43450.789063
1828.953125	44157.910156
1827.953125	44040.750000
1826.953125	43799.679688
1825.953125	44469.914063
1824.953125	44430.496094
1823.952148	44264.785156
1822.952148	44407.562500
1821.951172	43965.089844
1820.950195	44280.242188
1819.949219	44507.894531
1818.948242	44327.742188
1817.946289	44807.656250
1816.945313	44336.382813
1815.943359	44190.308594
1814.941406	44728.195313
1813.939453	44456.011719
1812.936523	44884.562500
1811.934570	44702.128906
1810.931641	44791.187500
1809.928711	45389.062500
1808.925781	45344.722656
1807.921875	45157.484375
1806.918945	44735.398438
1805.915039	45337.695313
1804.912109	45027.085938
1803.908203	45094.183594
1802.903320	45250.796875
1801.899414	45554.957031
1800.894531	45389.671875
1799.890625	45137.367188
1798.885742	45480.074219
1797.880859	45556.679688
1796.875000	45536.558594
1795.870117	45671.132813
1794.864258	45631.660156
1793.858398	45369.906250
1792.852539	45770.175781
1791.846680	46066.441406
1790.840820	45708.144531
1789.833984	45680.761719
1788.828125	46317.273438
1787.821289	46284.960938
1786.814453	46146.476563
1785.806641	46410.984375
1784.799805	46458.281250
1783.791992	46495.906250
1782.784180	46277.894531
1781.776367	45992.445313
1780.768555	46338.703125
1779.760742	46195.546875
1778.751953	46645.265625
1777.743164	46441.863281
1776.735352	47007.007813
1775.725586	46880.687500
1774.716797	47192.695313
1773.708008	47167.507813
1772.698242	47219.363281
1771.688477	47466.152344
1770.678711	47332.632813
1769.668945	47244.875000
1768.659180	47883.636719
1767.648438	47629.851563
1766.637695	47734.460938
1765.626953	47603.406250
1764.616211	48152.703125
1763.605469	48199.476563
1762.593750	48400.027344
1761.583008	48134.394531
1760.571289	48452.589844
1759.559570	48189.437500
1758.547852	48750.042969
1757.535156	48727.023438
1756.523438	48711.207031
1755.510742	49170.617188
1754.498047	49555.468750
1753.485352	49093.253906
1752.472656	49240.496094
1751.458984	49018.335938
1750.445313	49573.191406
1749.432617	49677.113281
1748.417969	49553.265625
1747.404297	49824.917969
1746.390625	50216.285156
1745.375977	50221.777344
1744.361328	49817.652344
1743.346680	50098.636719
1742.332031	50848.855469
1741.317383	50389.761719
1740.302734	50304.250000
1739.287109	51094.714844
1738.271484	51463.750000
1737.255859	51313.492188
1736.240234	52067.472656
1735.223633	51919.546875
1734.208008	52309.687500
1733.191406	52957.890625
1732.174805	52955.691406
1731.158203	53049.085938
1730.140625	53519.988281
1729.124023	54215.292969
1728.106445	54444.562500
1727.088867	54625.980469
1726.071289	54685.558594
1725.053711	55439.839844
1724.035156	55532.664063
1723.017578	55575.335938
1721.999023	55770.703125
1720.980469	55543.730469
1719.961914	56445.070313
1718.942383	56055.882813
1717.923828	56203.328125
1716.904297	56343.566406
1715.884766	56486.136719
1714.865234	56678.699219
1713.844727	56275.507813
1712.825195	56856.355469
1711.804688	56672.402344
1710.784180	56486.132813
1709.763672	56133.253906
1708.743164	56442.312500
1707.722656	55963.414063
1706.701172	55998.710938
1705.679688	56433.730469
1704.658203	56078.781250
1703.636719	55621.683594
1702.615234	55956.648438
1701.592773	56360.445313
1700.571289	55551.699219
1699.548828	55458.664063
1698.526367	55634.191406
1697.502930	55360.593750
1696.480469	55167.859375
1695.457031	54968.066406
1694.433594	55143.550781
1693.410156	55193.128906
1692.386719	55088.386719
1691.363281	54872.125000
1690.338867	55393.957031
1689.314453	55032.984375
1688.290039	54683.996094
1687.265625	55049.039063
1686.241211	55499.320313
1685.215820	55046.109375
1684.191406	55588.671875
1683.166016	55420.015625
1682.140625	55680.324219
1681.115234	55362.441406
1680.088867	55359.726563
1679.062500	55321.480469
1678.037109	55920.238281
1677.010742	55952.929688
1675.983398	56560.828125
1674.957031	56141.343750
1673.930664	56441.367188
1672.903320	56762.574219
1671.875977	56617.664063
1670.848633	56484.628906
1669.820313	56815.109375
1668.792969	57594.671875
1667.764648	57017.132813
1666.736328	56950.289063
1665.708008	57405.679688
1664.679688	57709.703125
1663.651367	57368.757813
1662.622070	57590.015625
1661.592773	57877.308594
1660.563477	58048.812500
1659.534180	57781.214844
1658.504883	58625.277344
1657.474609	58607.785156
1656.444336	59324.000000
1655.415039	59020.972656
1654.383789	59272.261719
1653.353516	59365.480469
1652.323242	59166.332031
1651.291992	59811.085938
1650.260742	59993.703125
1649.229492	60020.742188
1648.198242	60478.882813
1647.166016	60640.078125
1646.134766	60918.964844
1645.102539	60444.285156
1644.070313	61241.015625
1643.038086	61032.414063
1642.004883	61423.980469
1640.972656	61737.757813
1639.939453	62044.367188
1638.906250	62061.558594
1637.873047	62607.863281
1636.839844	63125.753906
1635.805664	62790.117188
1634.772461	63331.289063
1633.738281	63451.625000
1632.704102	63983.085938
1631.668945	64004.589844
1630.634766	63852.281250
1629.599609	65224.070313
1628.565430	64937.765625
1627.530273	65787.734375
1626.494141	66165.632813
1625.458984	65923.890625
1624.422852	67045.382813
1623.387695	67312.601563
1622.351563	67755.625000
1621.315430	68974.671875
1620.278320	70137.007813
1619.242188	71148.906250
1618.205078	72875.273438
1617.167969	75179.812500
1616.130859	77085.242188
1615.093750	79432.718750
1614.055664	82004.187500
1613.018555	83551.445313
1611.980469	85222.234375
1610.942383	86173.804688
1609.904297	85992.296875
1608.865234	86547.929688
1607.827148	85096.039063
1606.788086	83890.265625
1605.749023	81934.195313
1604.709961	79913.351563
1603.669922	78393.523438
1602.630859	76666.203125
1601.590820	75128.796875
1600.550781	74722.859375
1599.510742	73894.210938
1598.470703	72694.460938
1597.429688	72118.679688
1596.389648	71818.625000
1595.348633	71600.390625
1594.307617	71405.562500
1593.265625	71399.835938
1592.224609	70696.453125
1591.182617	70763.171875
1590.140625	70496.320313
1589.098633	71071.429688
1588.056641	70769.632813
1587.014648	70488.921875
1585.971680	70525.304688
1584.928711	70400.867188
1583.886719	71283.023438
1582.842773	71018.718750
1581.799805	71008.382813
1580.755859	70865.304688
1579.712891	71199.585938
1578.668945	71389.414063
1577.625000	71334.781250
1576.580078	71329.039063
1575.536133	72281.867188
1574.491211	72289.914063
1573.446289	72535.179688
1572.401367	72192.031250
1571.356445	73367.210938
1570.311523	73121.664063
1569.265625	73517.664063
1568.219727	73365.117188
1567.173828	73001.203125
1566.127930	73125.226563
1565.082031	73084.304688
1564.035156	72583.617188
1562.988281	72484.757813
1561.941406	72223.445313
1560.894531	71827.609375
1559.847656	72580.523438
1558.799805	71952.765625
1557.751953	72190.429688
1556.704102	72198.414063
1555.656250	72331.601563
1554.608398	71933.835938
1553.560547	71916.351563
1552.511719	71982.304688
1551.462891	72001.882813
1550.414063	71868.554688
1549.365234	72698.843750
1548.315430	72037.406250
1547.265625	71596.179688
1546.216797	71685.250000
1545.166992	71445.609375
1544.116211	72117.843750
1543.066406	72061.000000
1542.015625	71939.390625
1540.965820	71514.820313
1539.915039	72373.875000
1538.863281	72330.882813
1537.812500	72431.226563
1536.760742	71840.445313
1535.709961	71769.828125
1534.658203	71080.023438
1533.605469	71584.773438
1532.553711	71548.875000
1531.501953	71071.921875
1530.449219	71038.437500
1529.396484	71385.843750
1528.343750	70336.781250
1527.290039	70453.429688
1526.237305	70094.750000
1525.183594	69750.031250
1524.129883	69751.390625
1523.076172	69628.226563
1522.022461	69246.890625
1520.968750	69239.109375
1519.914063	69941.179688
1518.859375	69064.554688
1517.804688	68971.554688
1516.750000	68809.492188
1515.694336	68868.570313
1514.639648	68870.062500
1513.583984	68346.640625
1512.528320	68198.593750
1511.472656	68683.492188
1510.416016	68882.890625
1509.360352	68836.054688
1508.303711	68299.289063
1507.247070	68061.679688
1506.190430	68219.648438
1505.132813	68710.898438
1504.076172	68436.562500
1503.018555	68070.398438
1501.960938	67862.898438
1500.903320	68395.203125
1499.844727	68316.343750
1498.787109	68184.695313
1497.728516	68014.054688
1496.669922	67848.054688
1495.611328	67948.367188
1494.552734	67888.007813
1493.493164	67781.773438
1492.434570	67978.382813
1491.375000	67385.921875
1490.315430	67575.640625
1489.254883	67458.062500
1488.195313	67427.640625
1487.134766	66856.312500
1486.074219	66780.171875
1485.013672	67079.796875
1483.953125	66875.351563
1482.892578	67023.679688
1481.831055	65939.992188
1480.769531	66985.914063
1479.708008	66445.125000
1478.646484	66760.492188
1477.583984	66581.476563
1476.522461	66306.437500
1475.459961	66694.843750
1474.397461	67686.890625
1473.334961	67613.007813
1472.271484	66633.820313
1471.208984	67373.890625
1470.145508	66934.437500
1469.082031	67738.171875
1468.018555	67470.140625
1466.954102	68010.804688
1465.890625	68382.273438
1464.826172	68148.515625
1463.761719	68713.867188
1462.697266	68767.734375
1461.631836	69241.476563
1460.567383	69507.421875
1459.501953	69627.257813
1458.436523	69628.445313
1457.371094	69643.312500
1456.305664	69327.562500
1455.239258	69018.757813
1454.172852	69555.664063
1453.107422	69588.757813
1452.040039	69264.117188
1450.973633	70415.742188
1449.907227	69979.468750
1448.839844	69711.851563
1447.772461	70013.531250
1446.705078	70210.382813
1445.637695	70254.671875
1444.569336	70578.835938
1443.500977	70174.828125
1442.432617	70717.257813
1441.364258	70659.070313
1440.295898	70803.273438
1439.227539	71108.843750
1438.158203	70723.273438
1437.088867	71240.109375
1436.019531	72154.398438
1434.950195	71612.085938
1433.879883	71849.078125
1432.810547	72308.546875
1431.740234	71805.085938
1430.669922	72030.554688
1429.598633	72253.671875
1428.528320	71584.812500
1427.457031	72322.992188
1426.386719	72344.015625
1425.314453	72163.164063
1424.243164	72118.437500
1423.171875	72062.382813
1422.099609	72044.890625
1421.027344	71263.562500
1419.955078	71012.796875
1418.882813	71176.757813
1417.810547	70663.312500
1416.737305	70535.085938
1415.664063	70769.234375
1414.590820	70407.820313
1413.517578	71187.460938
1412.444336	70656.351563
1411.370117	70523.703125
1410.295898	70612.828125
1409.221680	70661.195313
1408.147461	70980.945313
1407.073242	71036.007813
1405.998047	70803.921875
1404.922852	71141.546875
1403.847656	71329.882813
1402.772461	72080.812500
1401.697266	71283.875000
1400.621094	71395.273438
1399.544922	71727.960938
1398.468750	71785.046875
1397.392578	72169.460938
1396.316406	72420.562500
1395.239258	72897.242188
1394.162109	72378.679688
1393.084961	73141.710938
1392.007813	73595.445313
1390.930664	74182.062500
1389.852539	74292.710938
1388.774414	74969.171875
1387.696289	75268.960938
1386.618164	75649.773438
1385.540039	76082.265625
1384.460938	76724.109375
1383.382813	76901.734375
1382.303711	77387.804688
1381.223633	77878.203125
1380.144531	77767.367188
1379.064453	78714.406250
1377.985352	78459.429688
1376.905273	78749.031250
1375.825195	78262.437500
1374.744141	78297.804688
1373.664063	78027.335938
1372.583008	78022.265625
1371.501953	77100.054688
1370.420898	76611.929688
1369.338867	76330.710938
1368.257813	76487.695313
1367.175781	75595.609375
1366.093750	75546.046875
1365.011719	75117.007813
1363.929688	74638.734375
1362.846680	74279.593750
1361.763672	74712.796875
1360.680664	74169.773438
1359.597656	74499.640625
1358.514648	73858.148438
1357.430664	73956.953125
1356.346680	73896.523438
1355.262695	73282.382813
1354.178711	73092.085938
1353.094727	73276.101563
1352.009766	72570.531250
1350.925781	72351.335938
1349.840820	71787.289063
1348.755859	72479.726563
1347.669922	72166.625000
1346.584961	72621.453125
1345.499023	72406.906250
1344.413086	71780.687500
1343.327148	72295.742188
1342.240234	71815.164063
1341.154297	71750.750000
1340.067383	71634.929688
1338.980469	71733.773438
1337.893555	72071.765625
1336.805664	71694.453125
1335.718750	72052.437500
1334.630859	71322.265625
1333.542969	71961.625000
1332.455078	72120.585938
1331.367188	71629.710938
1330.278320	72429.398438
1329.189453	71822.570313
1328.100586	71651.140625
1327.011719	71836.773438
1325.922852	72602.375000
1324.833008	71973.632813
1323.743164	72094.429688
1322.653320	72003.359375
1321.563477	72960.078125
1320.473633	72853.281250
1319.382813	72996.101563
1318.291992	73118.812500
1317.201172	72588.773438
1316.110352	72978.781250
1315.019531	73544.570313
1313.927734	74005.500000
1312.835938	73805.132813
1311.744141	74141.210938
1310.652344	74486.062500
1309.560547	74450.343750
1308.467773	75393.382813
1307.375000	75028.343750
1306.282227	74863.562500
1305.189453	75445.843750
1304.095703	75456.648438
1303.002930	75467.437500
1301.909180	75695.984375
1300.815430	75413.468750
1299.721680	75373.164063
1298.626953	75415.039063
1297.533203	76162.992188
1296.438477	76362.328125
1295.343750	76761.359375
1294.248047	77098.101563
1293.153320	77472.429688
1292.057617	77919.835938
1290.961914	77675.054688
1289.866211	77975.890625
1288.770508	78320.960938
1287.674805	78577.226563
1286.578125	78864.421875
1285.481445	78960.937500
1284.384766	78955.500000
1283.288086	78706.382813
1282.190430	78607.960938
1281.092773	78593.726563
1279.996094	78805.312500
1278.897461	77876.812500
1277.799805	78429.281250
1276.702148	78156.171875
1275.603516	78004.843750
1274.504883	76867.007813
1273.406250	77492.226563
1272.307617	77349.929688
1271.208008	77614.468750
1270.108398	76937.281250
1269.008789	77064.773438
1267.909180	76083.000000
1266.809570	76265.828125
1265.708984	76693.757813
1264.609375	76057.085938
1263.508789	75930.679688
1262.407227	75720.437500
1261.306641	76117.242188
1260.206055	75244.992188
1259.104492	75460.812500
1258.002930	75078.726563
1256.901367	74912.921875
1255.798828	74645.734375
1254.697266	73964.140625
1253.594727	74283.578125
1252.492188	74221.617188
1251.389648	73747.593750
1250.286133	73538.132813
1249.183594	74286.953125
1248.080078	73507.039063
1246.976563	73722.703125
1245.872070	73500.171875
1244.768555	73152.250000
1243.664063	72921.085938
1242.560547	72916.656250
1241.455078	72883.617188
1240.350586	72670.218750
1239.246094	72997.898438
1238.140625	72657.023438
1237.035156	72518.523438
1235.929688	73081.226563
1234.824219	72542.726563
1233.717773	73034.914063
1232.612305	72171.484375
1231.505859	72428.531250
1230.399414	72070.601563
1229.291992	71881.859375
1228.185547	71912.703125
1227.078125	72178.382813
1225.970703	71511.335938
1224.863281	72066.585938
1223.755859	71595.031250
1222.647461	71288.125000
1221.539063	71430.859375
1220.430664	70920.203125
1219.322266	70994.992188
1218.213867	71188.101563
1217.104492	71433.718750
1215.995117	71330.914063
1214.885742	71105.476563
1213.776367	71125.398438
1212.666992	71285.445313
1211.556641	71408.210938
1210.446289	70309.570313
1209.335938	71450.085938
1208.225586	71235.796875
1207.115234	71542.234375
1206.003906	71203.320313
1204.892578	71461.539063
1203.781250	71575.351563
1202.669922	71453.031250
1201.557617	71820.328125
1200.446289	71597.484375
1199.333984	72353.523438
1198.221680	72200.554688
1197.108398	72453.867188
1195.996094	72001.765625
1194.882813	72331.437500
1193.769531	72986.226563
1192.656250	72388.039063
1191.542969	73145.132813
1190.428711	73038.007813
1189.314453	72826.218750
1188.200195	72756.257813
1187.085938	72921.804688
1185.971680	73272.601563
1184.856445	73625.453125
1183.741211	73483.460938
1182.625977	73435.218750
1181.510742	74036.179688
1180.395508	74138.140625
1179.279297	73828.468750
1178.163086	74224.351563
1177.046875	74067.156250
1175.930664	73973.132813
1174.813477	73478.734375
1173.697266	73709.023438
1172.580078	73771.734375
1171.462891	73410.296875
1170.344727	72618.445313
1169.227539	73509.648438
1168.109375	73437.562500
1166.991211	73169.890625
1165.873047	73321.703125
1164.754883	73238.812500
1163.635742	72910.500000
1162.516602	73331.562500
1161.397461	73022.882813
1160.278320	72779.453125
1159.159180	73324.015625
1158.039063	72713.851563
1156.918945	73271.242188
1155.798828	72800.140625
1154.678711	72402.953125
1153.558594	72433.117188
1152.437500	72478.445313
1151.316406	72328.656250
1150.195313	72462.843750
1149.074219	72070.398438
1147.952148	72113.578125
1146.831055	72317.046875
1145.708984	72914.609375
1144.586914	72595.984375
1143.463867	72842.539063
1142.341797	73337.937500
1141.218750	73653.515625
1140.095703	73614.109375
1138.972656	73533.601563
1137.849609	74145.304688
1136.725586	73911.179688
1135.601563	73912.820313
1134.477539	73856.085938
1133.353516	73328.171875
1132.229492	73608.687500
1131.104492	73340.289063
1129.979492	73030.929688
1128.854492	73170.945313
1127.729492	73008.578125
1126.603516	72684.335938
1125.478516	72481.085938
1124.352539	72295.179688
1123.226563	71507.281250
1122.099609	71668.976563
1120.973633	71351.726563
1119.846680	71196.343750
1118.719727	71185.492188
1117.592773	70698.171875
1116.465820	70318.804688
1115.337891	70064.578125
1114.209961	70321.117188
1113.082031	69508.992188
1111.954102	70202.789063
1110.826172	69752.781250
1109.697266	70078.078125
1108.568359	69176.156250
1107.439453	68842.804688
1106.310547	69467.210938
1105.180664	69295.289063
1104.051758	69557.976563
1102.921875	69267.796875
1101.791992	69429.312500
1100.661133	69375.765625
1099.531250	69068.570313
1098.400391	69358.984375
1097.269531	68847.757813
1096.138672	69499.046875
1095.006836	69217.820313
1093.875977	68556.554688
1092.744141	68531.125000
1091.612305	67947.507813
1090.480469	67967.273438
1089.347656	67549.210938
1088.215820	67742.843750
1087.083008	67515.906250
1085.950195	67535.726563
1084.816406	67471.890625
1083.683594	67230.117188
1082.549805	67683.007813
1081.416016	67310.531250
1080.282227	67463.210938
1079.148438	66638.820313
1078.013672	67033.632813
1076.878906	66725.789063
1075.744141	66946.984375
1074.609375	66879.054688
1073.474609	66667.726563
1072.338867	66991.531250
1071.203125	67129.054688
1070.067383	67219.445313
1068.931641	66830.656250
1067.794922	67327.414063
1066.659180	66861.765625
1065.522461	66868.757813
1064.385742	66322.132813
1063.248047	67271.671875
1062.111328	66812.773438
1060.973633	66988.523438
1059.835938	66762.648438
1058.698242	66442.898438
1057.559570	66883.367188
1056.421875	66911.664063
1055.283203	67138.445313
1054.144531	67200.828125
1053.005859	66495.093750
1051.866211	66939.398438
1050.726563	67276.906250
1049.587891	67622.812500
1048.447266	67390.812500
1047.307617	67591.609375
1046.167969	67338.382813
1045.027344	67368.648438
1043.886719	67765.335938
1042.746094	67569.718750
1041.604492	67201.671875
1040.463867	67340.515625
1039.322266	68069.015625
1038.180664	67094.445313
1037.038086	67669.492188
1035.896484	66925.132813
1034.753906	67289.390625
1033.611328	67009.046875
1032.468750	67026.515625
1031.326172	67805.140625
1030.182617	67282.515625
1029.040039	67529.453125
1027.896484	67997.304688
1026.751953	67632.132813
1025.608398	68186.882813
1024.463867	67792.070313
1023.319336	67454.742188
1022.174805	67794.773438
1021.030273	67839.632813
1019.885742	67712.570313
1018.740234	68423.687500
1017.594727	67993.187500
1016.449219	68186.445313
1015.303711	67936.398438
1014.157227	67931.335938
1013.010742	67926.273438
1011.864258	67921.203125
1010.717773	67916.140625
1009.571289	67911.078125
1008.423828	67906.007813
1007.276367	67900.945313
1006.128906	67895.875000
1004.981445	68215.796875
1003.833008	68641.429688
1002.684570	69356.859375
1001.536133	69212.914063
1000.387695	69157.875000
999.239258	69208.617188
998.089844	69546.953125
996.941406	69686.406250
995.791992	68942.117188
994.641602	69671.343750
993.492188	68942.125000
992.341797	68580.812500
991.191406	68817.468750
990.041016	68652.742188
988.890625	68716.132813
987.739258	68325.554688
986.588867	68857.609375
985.437500	68564.234375
984.285156	68036.734375
983.133789	68771.078125
981.981445	68125.601563
980.829102	68201.640625
979.676758	68366.210938
978.524414	68553.914063
977.372070	68385.312500
976.218750	67906.968750
975.065430	68054.601563
973.912109	68233.781250
972.757813	68935.257813
971.604492	68219.187500
970.450195	68697.210938
969.295898	68484.570313
968.141602	68522.476563
966.986328	68267.851563
965.832031	68602.429688
964.676758	68347.882813
963.521484	67609.679688
962.365234	68093.492188
961.209961	68438.359375
960.053711	68291.218750
958.897461	68383.718750
957.741211	68671.601563
956.584961	68121.117188
955.427734	68228.289063
954.270508	68001.500000
953.113281	67554.328125
951.956055	67919.757813
950.797852	67856.859375
949.639648	67120.343750
948.481445	67290.515625
947.323242	67439.632813
946.165039	67301.351563
945.005859	67444.125000
943.847656	67140.257813
942.687500	67071.273438
941.528320	66633.445313
940.369141	67165.976563
939.208984	67214.343750
938.048828	67268.976563
936.888672	66908.914063
935.728516	66892.382813
934.567383	67497.632813
933.406250	67028.867188
932.245117	67129.507813
931.083984	67449.812500
929.922852	67504.304688
928.760742	67261.773438
927.598633	67253.539063
926.436523	66998.585938
925.274414	67540.187500
924.111328	67364.695313
922.948242	67300.015625
921.785156	67475.625000
920.622070	67352.453125
919.458984	67680.445313
918.294922	68075.132813
917.130859	67943.562500
915.966797	67690.968750
914.802734	67851.687500
913.637695	68089.539063
912.472656	68473.343750
911.307617	68208.312500
910.142578	68185.281250
908.977539	68660.585938
907.811523	69189.914063
906.645508	69093.757813
905.479492	68849.679688
904.313477	68845.289063
903.146484	68820.062500
901.980469	68809.429688
900.813477	68438.546875
899.646484	68398.828125
898.478516	68656.789063
897.311523	68109.234375
896.143555	67555.625000
894.975586	67957.140625
893.806641	67946.656250
892.638672	67763.562500
891.469727	67538.945313
890.300781	67713.554688
889.131836	67613.734375
887.962891	67580.445313
886.792969	68355.406250
885.623047	67374.718750
884.453125	68118.273438
883.283203	68005.992188
882.112305	67835.617188
880.942383	68236.156250
879.771484	68215.226563
878.600586	68080.171875
877.428711	68636.031250
876.257813	68650.296875
875.085938	68544.265625
873.914063	69012.632813
872.741211	68780.109375
871.569336	69246.179688
870.396484	68881.054688
869.223633	68574.085938
868.050781	69197.367188
866.877930	69259.117188
865.704102	68937.742188
864.530273	69005.718750
863.356445	69659.500000
862.182617	69839.078125
861.007813	70459.343750
859.833984	71064.898438
858.659180	70921.414063
857.484375	71197.812500
856.308594	70762.804688
855.133789	70185.296875
853.958008	70112.351563
852.782227	69727.367188
851.605469	69834.289063
850.429688	69317.281250
849.252930	69847.648438
848.076172	69900.789063
846.899414	69602.898438
845.722656	70058.601563
844.544922	70157.062500
843.367188	70018.179688
842.189453	70615.890625
841.011719	70755.445313
839.833008	71078.500000
838.655273	71716.914063
837.476563	71860.296875
836.296875	72003.625000
835.118164	72233.453125
833.938477	72477.617188
832.758789	71386.734375
831.579102	71128.390625
830.399414	70931.906250
829.219727	69955.156250
828.039063	69431.648438
826.858398	68858.937500
825.677734	68405.789063
824.496094	68440.414063
823.315430	68106.812500
822.133789	67362.000000
820.952148	67347.437500
819.769531	67040.945313
818.587891	66611.226563
817.405273	66668.734375
816.222656	66222.804688
815.040039	66171.476563
813.856445	65855.195313
812.673828	65631.445313
811.490234	65637.734375
810.305664	65350.464844
809.122070	65512.789063
807.938477	65592.960938
806.753906	65199.164063
805.569336	65148.074219
804.383789	65224.164063
803.199219	64740.414063
802.013672	65128.171875
800.828125	64632.316406
799.642578	64310.843750
798.457031	64300.941406
797.270508	64248.019531
796.083984	64078.359375
794.897461	63771.554688
793.710938	63602.042969
792.523438	63461.250000
791.336914	62849.750000
790.149414	63212.554688
788.961914	62844.796875
787.773438	62900.617188
786.585938	62944.140625
785.397461	62537.781250
784.208984	62284.902344
783.019531	62694.402344
781.831055	62169.769531
780.641602	62011.082031
779.452148	62113.953125
778.262695	61892.011719
777.072266	61327.062500
775.882813	61836.316406
774.692383	61161.343750
773.501953	61570.421875
772.310547	61316.125000
771.120117	61137.410156
769.928711	60991.394531
768.737305	61000.437500
767.544922	61093.082031
766.353516	61183.648438
765.161133	60984.726563
763.968750	61374.859375
762.776367	61571.273438
761.583984	61504.800781
760.390625	62090.156250
759.197266	61864.761719
758.003906	62427.425781
756.810547	62928.804688
755.616211	62717.617188
754.421875	62893.156250
753.227539	62793.949219
752.033203	62977.539063
750.838867	62786.828125
749.643555	62520.945313
748.448242	62029.488281
747.252930	62162.253906
746.057617	61831.593750
744.861328	61474.636719
743.665039	61091.402344
742.468750	60708.308594
741.272461	60672.625000
740.075195	60892.781250
738.878906	60800.230469
737.681641	60565.628906
736.484375	60889.171875
735.286133	60131.175781
734.087891	60057.078125
732.890625	60157.429688
731.691406	60144.179688
730.493164	60246.500000
729.294922	60318.371094
728.095703	59849.097656
726.896484	59560.332031
725.696289	59763.968750
724.497070	60279.453125
723.296875	59772.046875
722.096680	59663.703125
720.896484	59743.667969
719.696289	59461.304688
718.495117	59699.113281
717.293945	59501.832031
716.092773	59678.855469
714.891602	59511.984375
713.689453	59302.707031
712.487305	59760.679688
711.285156	59547.386719
710.083008	58867.320313
708.880859	59781.769531
707.677734	59602.925781
706.474609	59157.527344
705.271484	59188.890625
704.068359	59286.867188
702.864258	59657.332031
701.660156	59216.281250
700.456055	59602.761719
699.251953	59395.917969
698.046875	59602.683594
696.841797	59089.355469
695.636719	59074.281250
694.431641	59363.636719
693.226563	59479.535156
692.020508	60022.636719
690.814453	59269.914063
689.608398	59385.753906
688.402344	59751.312500
687.195313	59184.324219
685.988281	59360.511719
684.781250	59444.027344
683.574219	60101.128906
682.366211	60246.855469
681.158203	59784.914063
679.950195	59783.792969
678.742188	60044.121094
677.534180	60334.515625
676.325195	60520.253906
675.116211	60096.871094
673.907227	60366.984375
672.697266	60751.527344
671.488281	60521.187500
670.278320	60447.597656
669.068359	60570.835938
667.858398	60306.519531
666.647461	59642.816406
665.436523	59764.121094
664.225586	60274.671875
663.014648	59717.675781
661.802734	59674.402344
660.591797	59502.789063
659.379883	59341.261719
658.167969	58656.539063
656.955078	59032.410156
655.743164	58616.539063
654.530273	58579.515625
653.317383	58732.816406
652.103516	58603.644531
650.890625	58786.914063
649.676758	58839.976563
648.462891	58530.683594
647.249023	58843.953125
646.034180	59045.039063
644.819336	58509.800781
643.604492	58670.863281
642.389648	58675.871094
641.174805	59130.769531
639.958984	59075.707031
638.743164	59024.660156
637.527344	58587.933594
636.311523	58780.753906
635.094727	59205.230469
633.877930	59252.054688
632.661133	58755.691406
631.444336	58497.101563
630.226563	58462.179688
629.008789	57942.289063
627.791016	57865.574219
626.573242	58030.289063
625.355469	58302.648438
624.136719	57874.906250
622.917969	57844.109375
621.699219	57647.859375
620.480469	58007.777344
619.260742	57859.390625
618.041016	58595.703125
616.821289	57877.523438
615.601563	57868.656250
614.380859	57648.707031
613.160156	57458.703125
611.939453	57929.640625
610.718750	57490.875000
609.497070	57850.191406
608.276367	57379.769531
607.054688	57685.261719
605.832031	57891.199219
604.610352	57671.554688
603.387695	57780.003906
602.165039	57860.585938
600.942383	57712.601563
599.719727	57071.937500
598.496094	57742.574219
597.272461	57483.468750
596.048828	57516.359375
594.825195	57499.597656
593.600586	57562.242188
592.375977	57757.824219
591.151367	57330.285156
589.926758	57142.949219
588.701172	57138.164063
587.476563	57494.300781
586.250977	57037.382813
585.024414	57054.414063
583.798828	57190.359375
582.572266	57304.453125
581.345703	57434.347656
580.119141	57076.898438
578.892578	57426.617188
577.665039	57190.085938
576.437500	57349.593750
575.209961	57685.203125
573.982422	57678.312500
572.753906	58071.109375
571.525391	57405.378906
570.296875	57410.406250
569.068359	57799.066406
567.838867	57479.757813
566.610352	57302.894531
565.380859	57505.566406
564.150391	57670.613281
562.920898	57604.445313
561.690430	57334.843750
560.459961	57462.296875
559.229492	57506.769531
557.999023	57600.578125
556.767578	57575.921875
555.536133	57237.492188
554.304688	57210.933594
553.073242	57596.675781
551.840820	57173.617188
550.608398	57103.691406
549.375977	57434.023438
548.143555	57330.562500
546.910156	57702.105469
545.676758	57305.027344
544.443359	56675.625000
543.209961	57066.773438
541.975586	57038.300781
540.742188	56988.175781
539.507813	57251.078125
538.272461	57175.339844
537.038086	57414.484375
535.802734	57383.992188
534.567383	57341.703125
533.332031	57470.539063
532.096680	58134.175781
530.860352	57659.242188
529.624023	57353.527344
528.387695	57085.265625
527.151367	57469.449219
525.914063	57401.640625
524.676758	57324.039063
523.439453	56775.152344
522.202148	56960.789063
520.963867	57085.496094
519.725586	57343.617188
518.487305	57020.796875
517.249023	57355.343750
516.009766	57240.558594
514.771484	57551.398438
513.532227	57330.734375
512.291992	56955.273438
511.052734	57432.589844
509.812500	57094.476563
508.572266	56642.851563
507.332031	57018.082031
506.090820	57113.085938
504.850586	57151.261719
503.609375	56913.363281
502.368164	57102.285156
501.125977	57003.433594
499.884766	57002.457031
498.642578	56921.265625
497.400391	57604.906250
496.157227	56663.136719
494.915039	56425.625000
493.671875	57062.042969
492.428711	56990.675781
491.184570	57339.480469
489.941406	57266.128906
488.697266	56886.113281
487.453125	57836.277344
486.208984	57302.027344
484.963867	57408.339844
483.718750	57705.902344
482.473633	57361.277344
481.228516	56876.289063
479.982422	57682.949219
478.737305	57476.996094
477.491211	57624.093750
476.244141	57412.378906
474.998047	57600.363281
473.750977	58098.164063
472.503906	58513.933594
471.256836	58368.441406
470.009766	58279.488281
468.761719	58391.164063
467.513672	58424.906250
466.265625	58816.843750
465.017578	58743.433594
463.768555	58995.042969
462.519531	59172.617188
461.270508	59390.972656
460.021484	59854.304688
458.771484	59932.433594
457.521484	59907.484375
456.271484	60036.105469
455.021484	60296.835938
453.770508	60458.363281
452.519531	60643.136719
451.268555	60635.542969
450.017578	60882.355469
448.765625	61397.019531
447.514648	61393.160156
446.262695	61837.656250
445.009766	62598.285156
443.757813	63036.554688
442.504883	62535.785156
441.251953	62917.652344
439.999023	62386.062500
438.745117	61592.945313
437.492188	61387.445313
436.238281	60466.902344
434.983398	59858.664063
433.729492	59262.277344
432.474609	59353.703125
431.219727	58871.886719
429.964844	58992.386719
428.709961	58665.675781
427.454102	58793.910156
426.198242	58473.160156
424.942383	58361.472656
423.685547	58207.273438
422.429688	58246.519531
421.172852	57781.089844
419.916016	58044.648438
418.658203	57623.882813
417.401367	57292.164063
416.143555	57907.304688
414.885742	58226.652344
413.626953	57815.816406
412.369141	57953.539063
411.110352	58237.933594
409.851563	58118.792969
408.591797	58017.062500
407.333008	57994.476563
406.073242	58114.660156
404.813477	57993.691406
403.553711	57606.636719
402.292969	57765.378906
401.032227	57740.921875
