#Wave		#Intensity
2001.248047	43225.046875
2000.278320	43357.894531
1999.308594	43252.585938
1998.338867	43297.656250
1997.369141	43270.054688
1996.398438	43002.003906
1995.428711	43057.105469
1994.458008	43264.921875
1993.487305	43172.250000
1992.516602	42841.820313
1991.545898	43525.054688
1990.574219	43067.066406
1989.603516	43377.261719
1988.631836	43717.363281
1987.660156	43062.007813
1986.688477	42879.460938
1985.715820	43646.960938
1984.744141	43006.953125
1983.771484	42911.972656
1982.798828	42944.453125
1981.826172	43404.117188
1980.853516	43673.789063
1979.880859	43496.335938
1978.907227	43276.500000
1977.933594	43196.539063
1976.959961	43363.710938
1975.986328	43822.812500
1975.012695	43405.945313
1974.039063	43283.601563
1973.064453	43707.546875
1972.089844	43505.386719
1971.115234	43255.917969
1970.140625	43333.121094
1969.166016	43275.691406
1968.190430	43622.007813
1967.215820	43482.320313
1966.240234	43763.703125
1965.264648	44017.585938
1964.289063	43780.773438
1963.312500	43643.640625
1962.336914	43631.027344
1961.360352	43643.308594
1960.383789	43737.710938
1959.407227	43603.160156
1958.430664	43645.289063
1957.454102	43627.707031
1956.476563	43774.261719
1955.499023	43699.468750
1954.521484	44129.363281
1953.543945	43706.546875
1952.566406	43485.175781
1951.587891	44088.808594
1950.610352	43959.363281
1949.631836	43675.964844
1948.653320	43710.539063
1947.674805	43866.765625
1946.696289	44119.753906
1945.716797	43717.375000
1944.737305	43883.441406
1943.758789	43818.691406
1942.779297	43806.058594
1941.798828	43877.761719
1940.819336	43701.441406
1939.838867	44075.632813
1938.859375	43864.632813
1937.878906	43963.531250
1936.898438	43965.746094
1935.916992	43715.226563
1934.936523	44151.011719
1933.955078	44064.019531
1932.974609	43692.261719
1931.993164	44018.871094
1931.010742	43721.515625
1930.029297	43726.234375
1929.047852	43577.515625
1928.065430	43663.902344
1927.083008	43854.164063
1926.100586	44076.507813
1925.118164	43749.769531
1924.135742	44135.238281
1923.152344	44023.675781
1922.168945	44354.582031
1921.185547	44163.937500
1920.202148	44509.523438
1919.218750	43958.234375
1918.235352	43965.351563
1917.250977	44567.617188
1916.266602	44095.613281
1915.282227	44290.316406
1914.297852	44102.371094
1913.313477	43882.406250
1912.328125	44321.304688
1911.343750	44266.664063
1910.358398	44177.503906
1909.373047	43955.210938
1908.387695	44423.371094
1907.401367	44425.441406
1906.416016	44240.183594
1905.429688	44454.214844
1904.443359	44291.191406
1903.457031	44032.148438
1902.470703	44605.703125
1901.483398	44132.445313
1900.497070	44252.734375
1899.509766	44500.992188
1898.522461	44379.964844
1897.535156	44443.542969
1896.546875	44728.535156
1895.559570	44260.664063
1894.571289	44675.945313
1893.583008	44395.136719
1892.594727	44571.750000
1891.606445	44293.515625
1890.618164	44187.425781
1889.628906	44017.480469
1888.639648	44466.753906
1887.650391	44323.835938
1886.661133	44438.863281
1885.671875	44711.007813
1884.682617	44219.468750
1883.692383	44619.210938
1882.702148	44324.207031
1881.711914	44348.328125
1880.721680	44666.859375
1879.731445	44838.093750
1878.740234	44825.312500
1877.749023	44260.777344
1876.757813	44405.015625
1875.766602	44867.882813
1874.775391	44467.847656
1873.784180	44553.156250
1872.791992	44768.285156
1871.799805	45042.132813
1870.807617	44897.062500
1869.815430	44695.714844
1868.823242	44771.105469
1867.830078	44951.730469
1866.837891	44738.238281
1865.844727	44581.105469
1864.851563	44950.054688
1863.858398	44712.207031
1862.864258	44958.710938
1861.871094	45038.843750
1860.876953	44717.972656
1859.882813	44878.781250
1858.888672	44861.113281
1857.894531	44726.156250
1856.899414	44625.449219
1855.905273	44590.734375
1854.910156	45073.808594
1853.915039	44858.316406
1852.919922	44996.917969
1851.923828	44906.007813
1850.928711	45310.578125
1849.932617	45151.312500
1848.936523	45250.722656
1847.940430	45233.003906
1846.944336	45137.246094
1845.947266	45775.507813
1844.951172	45491.953125
1843.954102	45413.253906
1842.957031	45653.859375
1841.959961	45670.195313
1840.962891	45338.121094
1839.964844	45751.558594
1838.966797	45407.410156
1837.969727	45793.898438
1836.970703	45737.144531
1835.972656	45478.371094
1834.974609	45767.285156
1833.975586	45652.160156
1832.976563	45933.644531
1831.978516	45901.230469
1830.978516	45849.371094
1829.979492	45799.960938
1828.980469	45976.667969
1827.980469	45866.480469
1826.980469	46247.261719
1825.980469	46127.339844
1824.980469	46340.300781
1823.979492	46281.125000
1822.979492	46258.402344
1821.978516	45893.308594
1820.977539	46161.992188
1819.976563	46076.183594
1818.975586	46206.402344
1817.973633	46341.421875
1816.972656	46490.953125
1815.970703	46063.125000
1814.968750	46127.765625
1813.966797	46267.546875
1812.963867	46552.742188
1811.961914	46842.683594
1810.958984	46356.996094
1809.956055	46957.019531
1808.953125	46585.343750
1807.950195	46654.644531
1806.946289	46535.015625
1805.943359	46381.531250
1804.939453	46300.722656
1803.935547	46529.773438
1802.930664	46269.878906
1801.926758	47011.816406
1800.922852	46263.238281
1799.917969	47273.402344
1798.913086	46897.468750
1797.908203	47167.265625
1796.903320	47231.472656
1795.897461	47513.195313
1794.891602	46941.726563
1793.886719	47170.238281
1792.880859	47297.203125
1791.874023	47583.539063
1790.868164	47374.699219
1789.862305	47334.953125
1788.855469	47500.417969
1787.848633	47607.894531
1786.841797	48016.992188
1785.833984	47610.394531
1784.827148	47597.167969
1783.819336	47702.132813
1782.812500	47406.734375
1781.804688	47801.027344
1780.795898	48359.113281
1779.788086	48338.523438
1778.779297	48411.925781
1777.771484	48752.746094
1776.762695	48320.152344
1775.753906	48470.589844
1774.744141	48204.355469
1773.735352	48552.187500
1772.725586	48413.621094
1771.715820	48780.546875
1770.706055	48906.691406
1769.696289	49061.664063
1768.686523	49209.367188
1767.675781	49482.082031
1766.666016	49232.863281
1765.655273	49322.742188
1764.644531	49434.226563
1763.632813	49384.632813
1762.622070	49546.898438
1761.610352	49709.316406
1760.598633	49871.738281
1759.586914	50034.160156
1758.575195	50196.582031
1757.563477	50359.000000
1756.550781	50521.578125
1755.538086	50684.156250
1754.525391	50846.734375
1753.512695	51336.789063
1752.500000	51138.207031
1751.486328	51275.468750
1750.473633	51357.527344
1749.459961	51782.406250
1748.446289	51526.343750
1747.432617	52058.890625
1746.417969	51898.718750
1745.404297	51942.250000
1744.389648	52479.222656
1743.375000	52826.796875
1742.360352	52611.519531
1741.344727	52520.812500
1740.330078	52999.843750
1739.314453	53361.433594
1738.298828	53576.925781
1737.283203	53605.726563
1736.267578	53349.859375
1735.251953	53938.328125
1734.235352	54641.363281
1733.218750	54548.015625
1732.202148	54342.355469
1731.185547	55231.351563
1730.168945	55319.546875
1729.151367	55961.976563
1728.133789	55961.625000
1727.117188	56823.429688
1726.098633	56794.265625
1725.081055	57259.304688
1724.063477	57619.148438
1723.044922	57678.156250
1722.026367	58276.406250
1721.007813	58566.687500
1719.989258	58761.449219
1718.970703	59199.398438
1717.951172	59215.144531
1716.931641	59505.042969
1715.912109	59513.574219
1714.892578	59202.753906
1713.873047	60223.996094
1712.853516	59732.097656
1711.833008	59835.847656
1710.812500	59460.878906
1709.791992	59971.796875
1708.771484	60077.824219
1707.750000	60162.386719
1706.729492	59811.417969
1705.708008	59810.335938
1704.686523	59866.347656
1703.665039	59463.277344
1702.642578	59543.109375
1701.621094	59727.523438
1700.598633	59013.265625
1699.576172	59202.460938
1698.553711	59023.242188
1697.531250	58730.031250
1696.507813	59194.738281
1695.485352	58901.597656
1694.461914	58865.031250
1693.438477	59122.890625
1692.415039	59326.058594
1691.390625	58990.371094
1690.367188	58571.746094
1689.342773	59033.511719
1688.318359	58202.253906
1687.293945	58312.890625
1686.269531	58606.085938
1685.244141	58906.281250
1684.218750	58452.542969
1683.194336	58790.578125
1682.168945	58443.652344
1681.142578	58544.636719
1680.117188	58550.832031
1679.090820	58793.863281
1678.064453	59107.847656
1677.038086	58929.257813
1676.011719	58641.843750
1674.985352	58974.613281
1673.958008	58997.273438
1672.931641	58662.671875
1671.904297	58981.062500
1670.876953	58665.496094
1669.848633	58971.945313
1668.821289	59039.492188
1667.792969	58846.996094
1666.764648	58642.750000
1665.736328	59204.175781
1664.708008	59262.175781
1663.679688	58911.503906
1662.650391	59748.894531
1661.621094	59617.859375
1660.591797	59300.355469
1659.562500	59117.507813
1658.533203	59085.769531
1657.502930	59533.035156
1656.472656	58991.640625
1655.442383	59554.343750
1654.412109	59036.714844
1653.381836	59620.425781
1652.351563	59829.078125
1651.320313	59186.746094
1650.289063	59555.652344
1649.257813	59535.644531
1648.226563	59461.453125
1647.194336	59933.746094
1646.163086	59258.980469
1645.130859	59693.464844
1644.098633	59911.207031
1643.066406	60220.667969
1642.033203	60002.867188
1641.000977	60182.785156
1639.967773	60162.671875
1638.934570	59996.738281
1637.901367	60200.070313
1636.868164	61379.089844
1635.833984	60547.738281
1634.800781	60875.425781
1633.766602	60998.546875
1632.732422	61140.421875
1631.697266	60988.593750
1630.663086	61198.527344
1629.627930	61361.414063
1628.593750	61463.195313
1627.558594	62043.824219
1626.522461	62300.347656
1625.487305	62125.000000
1624.451172	62780.269531
1623.416016	63015.410156
1622.379883	63696.082031
1621.343750	63947.382813
1620.306641	64027.437500
1619.270508	65012.300781
1618.233398	66589.773438
1617.196289	67346.515625
1616.159180	68784.773438
1615.122070	70196.750000
1614.083984	71807.289063
1613.046875	72946.593750
1612.008789	74282.140625
1610.970703	75514.218750
1609.932617	75692.687500
1608.893555	75426.484375
1607.855469	74416.406250
1606.816406	73675.679688
1605.777344	71361.257813
1604.738281	70427.257813
1603.698242	68976.914063
1602.659180	67915.101563
1601.619141	66596.593750
1600.579102	65727.179688
1599.539063	64970.214844
1598.499023	64239.210938
1597.458008	63774.699219
1596.417969	62908.734375
1595.376953	62969.894531
1594.335938	62785.945313
1593.294922	62672.070313
1592.252930	62658.566406
1591.210938	62470.097656
1590.169922	62195.390625
1589.127930	62123.667969
1588.084961	62091.609375
1587.042969	62122.500000
1586.000000	62102.097656
1584.958008	61569.015625
1583.915039	61986.753906
1582.872070	62231.953125
1581.828125	62253.460938
1580.785156	62214.414063
1579.741211	62934.406250
1578.697266	62273.695313
1577.653320	62134.578125
1576.609375	62758.781250
1575.564453	63545.628906
1574.520508	63783.199219
1573.475586	63797.402344
1572.430664	64341.792969
1571.384766	64527.937500
1570.339844	64565.238281
1569.293945	64146.984375
1568.249023	64230.808594
1567.202148	64205.406250
1566.156250	63852.476563
1565.110352	63657.601563
1564.063477	62996.050781
1563.017578	62615.660156
1561.970703	62270.218750
1560.922852	61957.390625
1559.875977	61739.808594
1558.829102	61526.941406
1557.781250	62077.300781
1556.733398	61555.992188
1555.685547	61941.511719
1554.636719	61642.968750
1553.588867	61133.601563
1552.540039	60826.035156
1551.491211	61195.179688
1550.442383	61258.382813
1549.393555	60297.757813
1548.344727	60282.355469
1547.294922	60294.738281
1546.245117	60684.468750
1545.195313	60544.003906
1544.145508	60162.910156
1543.094727	60378.914063
1542.044922	60187.675781
1540.994141	60130.660156
1539.943359	59696.710938
1538.892578	59575.058594
1537.840820	59980.523438
1536.790039	59990.601563
1535.738281	59945.214844
1534.686523	59352.250000
1533.634766	59228.441406
1532.583008	59326.406250
1531.530273	59071.015625
1530.477539	59000.421875
1529.424805	59033.734375
1528.372070	58663.121094
1527.319336	58973.390625
1526.265625	58646.753906
1525.212891	58892.316406
1524.159180	59216.207031
1523.105469	58898.921875
1522.051758	58676.273438
1520.997070	58698.046875
1519.942383	58198.941406
1518.888672	58460.437500
1517.833984	58505.269531
1516.778320	58773.523438
1515.723633	58537.304688
1514.667969	58632.750000
1513.612305	58362.101563
1512.556641	59205.636719
1511.500977	58444.773438
1510.445313	58765.660156
1509.388672	58228.300781
1508.332031	58590.507813
1507.275391	58570.816406
1506.218750	59077.687500
1505.162109	58719.968750
1504.104492	58357.773438
1503.047852	58673.660156
1501.990234	58543.671875
1500.931641	58399.941406
1499.874023	58382.589844
1498.816406	59297.617188
1497.757813	59231.890625
1496.699219	58553.242188
1495.640625	59226.738281
1494.582031	58612.582031
1493.522461	58962.304688
1492.462891	58809.511719
1491.403320	58420.527344
1490.343750	58841.179688
1489.284180	58631.164063
1488.224609	58808.632813
1487.164063	58637.652344
1486.103516	58485.066406
1485.042969	59228.371094
1483.982422	58681.722656
1482.920898	58689.523438
1481.860352	58541.609375
1480.798828	58821.878906
1479.737305	58637.359375
1478.675781	58551.320313
1477.613281	58538.531250
1476.550781	59047.378906
1475.489258	58819.484375
1474.426758	58891.265625
1473.363281	59301.445313
1472.300781	59062.187500
1471.237305	59216.167969
1470.174805	59162.125000
1469.111328	59290.894531
1468.046875	59245.988281
1466.983398	59491.187500
1465.919922	59571.863281
1464.855469	59531.488281
1463.791016	60290.156250
1462.726563	60021.414063
1461.661133	60186.363281
1460.596680	59894.910156
1459.531250	59838.535156
1458.465820	60471.007813
1457.400391	60615.222656
1456.334961	60189.371094
1455.268555	60768.996094
1454.202148	60901.679688
1453.135742	60471.437500
1452.069336	60786.394531
1451.002930	61142.242188
1449.935547	60625.632813
1448.869141	61345.726563
1447.801758	60918.054688
1446.734375	61271.335938
1445.666016	61815.671875
1444.598633	62004.820313
1443.530273	61895.847656
1442.461914	62043.960938
1441.393555	62528.625000
1440.325195	62722.042969
1439.256836	63454.218750
1438.187500	63995.183594
1437.118164	63608.687500
1436.048828	64124.429688
1434.979492	64192.421875
1433.909180	64923.664063
1432.839844	65098.222656
1431.769531	65611.046875
1430.699219	65553.843750
1429.627930	66402.335938
1428.557617	65995.515625
1427.486328	65845.242188
1426.416016	66092.023438
1425.343750	65694.539063
1424.272461	65932.187500
1423.201172	65986.085938
1422.128906	66044.500000
1421.056641	66168.617188
1419.984375	65843.984375
1418.912109	65635.015625
1417.839844	65441.980469
1416.766602	65504.953125
1415.693359	64949.675781
1414.620117	65250.441406
1413.546875	65462.812500
1412.473633	65543.828125
1411.399414	65396.261719
1410.325195	65432.003906
1409.250977	65422.492188
1408.176758	65485.355469
1407.102539	65530.101563
1406.027344	65963.703125
1404.952148	65811.679688
1403.876953	66123.023438
1402.801758	66305.453125
1401.726563	66307.070313
1400.650391	66511.984375
1399.574219	66999.125000
1398.498047	66171.906250
1397.421875	66579.914063
1396.345703	66762.046875
1395.268555	66718.421875
1394.191406	66320.562500
1393.114258	66236.421875
1392.037109	66413.960938
1390.959961	67380.757813
1389.881836	67316.757813
1388.804688	67895.281250
1387.726563	68369.906250
1386.647461	68413.929688
1385.569336	69174.437500
1384.491211	69659.828125
1383.412109	69838.726563
1382.333008	70445.429688
1381.253906	69899.117188
1380.173828	71003.085938
1379.094727	71042.054688
1378.014648	70896.476563
1376.934570	71135.687500
1375.854492	69874.382813
1374.773438	70208.148438
1373.693359	70411.367188
1372.612305	69733.179688
1371.531250	70064.531250
1370.450195	69352.929688
1369.369141	69041.562500
1368.287109	69076.289063
1367.205078	68971.734375
1366.123047	67216.500000
1365.041016	67500.781250
1363.958984	67273.078125
1362.875977	66980.359375
1361.793945	66584.507813
1360.710938	66994.335938
1359.626953	66428.125000
1358.543945	65857.625000
1357.460938	66067.757813
1356.376953	65898.882813
1355.292969	65667.289063
1354.208984	65301.296875
1353.124023	65601.007813
1352.040039	65246.355469
1350.955078	65440.675781
1349.870117	65386.308594
1348.785156	65385.699219
1347.700195	65358.222656
1346.614258	64999.441406
1345.528320	65656.921875
1344.442383	65618.210938
1343.356445	65140.992188
1342.270508	65598.992188
1341.183594	65526.753906
1340.096680	64879.851563
1339.009766	65102.886719
1337.922852	64983.832031
1336.835938	65374.382813
1335.748047	65002.812500
1334.661133	64803.398438
1333.573242	65461.812500
1332.484375	65307.050781
1331.396484	65661.453125
1330.307617	65169.593750
1329.219727	64602.015625
1328.130859	65195.136719
1327.041992	65618.460938
1325.952148	65138.109375
1324.863281	65059.421875
1323.773438	65513.750000
1322.683594	65200.898438
1321.593750	64558.218750
1320.502930	65141.664063
1319.413086	64902.578125
1318.322266	64815.089844
1317.231445	64542.730469
1316.140625	64511.011719
1315.048828	64782.160156
1313.958008	64456.507813
1312.866211	64440.398438
1311.774414	65136.507813
1310.682617	64826.539063
1309.589844	64770.312500
1308.498047	64322.601563
1307.405273	64475.542969
1306.312500	65451.183594
1305.218750	64358.835938
1304.125977	65354.144531
1303.032227	65151.187500
1301.939453	65288.273438
1300.845703	65305.339844
1299.750977	65846.609375
1298.657227	66361.031250
1297.562500	65924.914063
1296.467773	66663.351563
1295.373047	66946.500000
1294.278320	67369.351563
1293.183594	67565.718750
1292.087891	67852.976563
1290.992188	67414.828125
1289.896484	67478.015625
1288.800781	67337.195313
1287.704102	67103.320313
1286.608398	67057.921875
1285.511719	67085.664063
1284.415039	67365.976563
1283.317383	66582.875000
1282.220703	65751.328125
1281.123047	66138.015625
1280.025391	66212.375000
1278.927734	65314.933594
1277.830078	64805.125000
1276.731445	64368.519531
1275.633789	64598.007813
1274.535156	64539.847656
1273.436523	64127.851563
1272.336914	63384.316406
1271.238281	63417.042969
1270.138672	63387.863281
1269.039063	63473.613281
1267.939453	63256.613281
1266.839844	62180.304688
1265.739258	62241.921875
1264.638672	61881.707031
1263.538086	61676.183594
1262.437500	61578.902344
1261.336914	61335.976563
1260.235352	61384.437500
1259.134766	60766.542969
1258.033203	61020.238281
1256.930664	60596.722656
1255.829102	60786.402344
1254.726563	60689.386719
1253.625000	59966.355469
1252.522461	60275.054688
1251.418945	60270.730469
1250.316406	59471.046875
1249.212891	59900.812500
1248.110352	59698.332031
1247.006836	59238.289063
1245.902344	59225.335938
1244.798828	58624.664063
1243.694336	59082.792969
1242.589844	58565.972656
1241.485352	59140.542969
1240.380859	58989.031250
1239.276367	59244.425781
1238.170898	58947.820313
1237.065430	58231.429688
1235.959961	58803.328125
1234.854492	58728.917969
1233.748047	58010.750000
1232.642578	58659.253906
1231.536133	57723.910156
1230.429688	58247.054688
1229.322266	58236.472656
1228.215820	58138.085938
1227.108398	58305.304688
1226.000977	58018.214844
1224.893555	58073.492188
1223.786133	57768.992188
1222.677734	58173.015625
1221.569336	58269.890625
1220.460938	58627.628906
1219.352539	57764.273438
1218.244141	58071.558594
1217.134766	58330.523438
1216.025391	58113.980469
1214.916016	58495.503906
1213.806641	58296.527344
1212.697266	57727.570313
1211.586914	58183.378906
1210.476563	57942.972656
1209.366211	58831.882813
1208.255859	58269.796875
1207.145508	58563.281250
1206.034180	58371.089844
1204.922852	58504.804688
1203.811523	58907.402344
1202.700195	58540.359375
1201.587891	58783.246094
1200.476563	59074.113281
1199.364258	59024.039063
1198.251953	59089.753906
1197.138672	58978.535156
1196.026367	59703.699219
1194.913086	59472.324219
1193.799805	59767.101563
1192.686523	60280.019531
1191.573242	59795.535156
1190.458984	60192.625000
1189.344727	59826.117188
1188.230469	59930.812500
1187.116211	59980.953125
1186.001953	59701.882813
1184.886719	59760.761719
1183.772461	60026.648438
1182.657227	59736.820313
1181.541016	59704.152344
1180.425781	59455.867188
1179.309570	59168.468750
1178.193359	58635.132813
1177.077148	58707.175781
1175.960938	58583.300781
1174.844727	58276.675781
1173.727539	58387.898438
1172.610352	57618.070313
1171.493164	58086.054688
1170.375977	57560.105469
1169.257813	57651.800781
1168.139648	56715.277344
1167.022461	57400.410156
1165.903320	56373.007813
1164.785156	56862.417969
1163.666992	57017.136719
1162.547852	56552.843750
1161.428711	56410.082031
1160.309570	56538.738281
1159.189453	56278.812500
1158.070313	55858.386719
1156.950195	55791.785156
1155.830078	56057.125000
1154.709961	56547.937500
1153.588867	56199.324219
1152.468750	55675.207031
1151.347656	56048.753906
1150.226563	55061.023438
1149.104492	55982.796875
1147.983398	55641.089844
1146.861328	55635.273438
1145.739258	55564.476563
1144.617188	55812.027344
1143.495117	55801.839844
1142.372070	56365.289063
1141.250000	55820.429688
1140.126953	56171.609375
1139.003906	56295.488281
1137.879883	56644.281250
1136.756836	57196.238281
1135.632813	56820.371094
1134.508789	56559.218750
1133.384766	56529.437500
1132.259766	56127.957031
1131.135742	56737.832031
1130.010742	56420.707031
1128.885742	57013.015625
1127.759766	56480.000000
1126.634766	56486.957031
1125.508789	56584.578125
1124.382813	56604.457031
1123.256836	56244.531250
1122.130859	56109.117188
1121.003906	56299.480469
1119.877930	55868.628906
1118.750977	55759.226563
1117.624023	55940.917969
1116.496094	55596.582031
1115.369141	55429.093750
1114.241211	55397.414063
1113.113281	55544.558594
1111.985352	54758.968750
1110.856445	55069.843750
1109.728516	54887.519531
1108.599609	55181.035156
1107.470703	54856.691406
1106.340820	54637.914063
1105.211914	55114.191406
1104.082031	54897.593750
1102.952148	55205.882813
1101.822266	54311.949219
1100.692383	55033.035156
1099.561523	54343.675781
1098.431641	55023.652344
1097.300781	54989.949219
1096.169922	54947.660156
1095.038086	54864.574219
1093.907227	54850.238281
1092.775391	54702.777344
1091.643555	54411.519531
1090.511719	54339.312500
1089.378906	53711.281250
1088.246094	53840.925781
1087.114258	53858.960938
1085.980469	53982.089844
1084.847656	54476.179688
1083.714844	53812.238281
1082.581055	54282.589844
1081.447266	54272.652344
1080.313477	53851.261719
1079.179688	53689.277344
1078.044922	54176.437500
1076.910156	53783.132813
1075.775391	53839.667969
1074.640625	54058.894531
1073.505859	54019.027344
1072.370117	54212.453125
1071.234375	54198.246094
1070.098633	53982.925781
1068.962891	53842.554688
1067.826172	53821.996094
1066.690430	53957.539063
1065.553711	53562.832031
1064.416992	53715.464844
1063.279297	53964.210938
1062.142578	53828.253906
1061.004883	54117.476563
1059.867188	54131.050781
1058.729492	53708.968750
1057.590820	53716.207031
1056.453125	53672.203125
1055.314453	53604.734375
1054.175781	53586.371094
1053.037109	53757.898438
1051.897461	53925.097656
1050.757813	53849.093750
1049.618164	53794.437500
1048.478516	53569.234375
1047.338867	54424.855469
1046.199219	53707.296875
1045.058594	53765.632813
1043.917969	54267.082031
1042.777344	53912.054688
1041.635742	53934.109375
1040.495117	53956.152344
1039.353516	53352.289063
1038.211914	53793.742188
1037.069336	53690.234375
1035.927734	53627.187500
1034.785156	53525.871094
1033.642578	53435.222656
1032.500000	53576.398438
1031.357422	53555.933594
1030.213867	53278.253906
1029.071289	53332.234375
1027.927734	53243.820313
1026.783203	53397.636719
1025.639648	54093.070313
1024.495117	53592.535156
1023.351563	53671.875000
1022.207031	53642.914063
1021.061523	53853.816406
1019.916992	53447.062500
1018.771484	53825.546875
1017.625977	53438.035156
1016.480469	53733.656250
1015.334961	53685.609375
1014.188477	54089.207031
1013.041992	53436.933594
1011.895508	53838.304688
1010.749023	53989.464844
1009.602539	53348.152344
1008.455078	53435.792969
1007.307617	53629.296875
1006.160156	52876.167969
1005.012695	53281.417969
1003.864258	53265.273438
1002.716797	53600.457031
1001.568359	53975.718750
1000.419922	53866.359375
999.270508	54072.210938
998.122070	54239.917969
996.972656	54515.398438
995.823242	53721.046875
994.673828	54309.339844
993.523438	53775.250000
992.373047	53566.746094
991.222656	53768.144531
990.072266	53337.937500
988.921875	54096.800781
987.771484	53616.015625
986.620117	53663.144531
985.468750	54069.058594
984.317383	53829.093750
983.165039	54038.609375
982.013672	53764.988281
980.861328	54214.859375
979.708984	53778.933594
978.555664	53473.878906
977.403320	53716.980469
976.250000	53981.062500
975.096680	53697.203125
973.943359	53571.445313
972.790039	53110.832031
971.635742	53593.839844
970.481445	53609.234375
969.327148	53277.273438
968.172852	53435.843750
967.018555	53581.722656
965.863281	53527.671875
964.708008	53343.210938
963.552734	53693.035156
962.397461	53546.457031
961.241211	53643.816406
960.084961	53314.421875
958.929688	53262.562500
957.772461	53721.332031
956.616211	53381.593750
955.458984	53472.578125
954.301758	53426.371094
953.144531	53380.164063
951.987305	53333.953125
950.830078	53287.746094
949.671875	53241.500000
948.513672	53195.253906
947.355469	53313.410156
946.196289	53028.816406
945.038086	52901.605469
943.878906	52799.597656
942.719727	52963.851563
941.560547	52887.015625
940.400391	52464.449219
939.241211	53144.058594
938.081055	52803.289063
936.919922	53055.339844
935.759766	53162.812500
934.599609	53534.027344
933.438477	53718.812500
932.277344	53736.105469
931.116211	53487.656250
929.954102	53996.601563
928.791992	53823.492188
927.630859	53752.910156
926.467773	53749.261719
925.305664	54100.988281
924.143555	53927.976563
922.980469	54432.082031
921.817383	54127.441406
920.654297	54666.832031
919.490234	54587.816406
918.327148	55160.328125
917.163086	54887.082031
915.999023	54956.265625
914.833984	55770.476563
913.669922	55399.191406
912.504883	55557.941406
911.339844	56052.449219
910.174805	56160.964844
909.008789	56600.960938
907.843750	56657.210938
906.677734	56938.542969
905.511719	57305.207031
904.345703	57227.945313
903.178711	56981.976563
902.011719	56996.437500
900.844727	56398.675781
899.677734	56167.562500
898.510742	56694.230469
897.342773	56796.132813
896.174805	56367.390625
895.006836	56265.429688
893.838867	56496.308594
892.670898	56221.746094
891.501953	56444.230469
890.333008	56284.109375
889.164063	56383.859375
887.994141	56564.621094
886.825195	56390.015625
885.655273	56011.890625
884.485352	56988.093750
883.315430	56346.265625
882.144531	56470.796875
880.973633	56634.714844
879.803711	56644.992188
878.631836	56750.710938
877.460938	56773.406250
876.289063	57468.156250
875.118164	57888.890625
873.945313	57444.808594
872.773438	57401.007813
871.601563	57612.164063
870.428711	57715.480469
869.255859	57350.484375
868.083008	58193.367188
866.910156	57795.273438
865.736328	58167.675781
864.562500	58210.734375
863.388672	58524.957031
862.214844	58572.066406
861.040039	59306.167969
859.866211	59320.007813
858.691406	59697.902344
857.516602	59781.980469
856.340820	59059.593750
855.166016	58858.449219
853.990234	59180.332031
852.814453	58756.042969
851.637695	58854.664063
850.461914	59077.199219
849.285156	58572.601563
848.108398	58528.703125
846.931641	59570.855469
845.754883	59454.531250
844.577148	59903.769531
843.399414	60082.507813
842.221680	60533.519531
841.043945	60990.550781
839.865234	61558.777344
838.687500	62318.558594
837.508789	63286.285156
836.329102	63624.960938
835.150391	64554.980469
833.970703	64470.890625
832.791992	64388.886719
831.611328	63342.957031
830.431641	62952.285156
829.251953	62366.152344
828.071289	61253.238281
826.890625	60560.605469
825.709961	60049.316406
824.528320	59696.640625
823.347656	59479.855469
822.166016	58666.710938
820.984375	58503.656250
819.801758	58490.738281
818.620117	57805.667969
817.437500	57992.230469
816.254883	57543.796875
815.072266	57738.550781
813.888672	56922.660156
812.706055	56569.136719
811.522461	56603.800781
810.338867	56486.539063
809.154297	56650.511719
807.970703	56469.664063
806.786133	55938.039063
805.601563	56495.867188
804.416992	56583.816406
803.231445	55869.957031
802.045898	55420.835938
800.861328	55489.855469
799.674805	55558.988281
798.489258	55628.062500
797.302734	55697.195313
796.117188	55520.933594
794.930664	55258.718750
793.743164	55215.687500
792.556641	55043.699219
791.369141	55043.699219
790.181641	54601.679688
788.994141	54636.539063
787.805664	54380.906250
786.618164	54352.386719
785.429688	54109.164063
784.241211	54154.304688
783.052734	53813.085938
781.863281	53647.753906
780.673828	53261.800781
779.484375	53977.144531
778.294922	53540.203125
777.105469	53444.468750
775.915039	53281.390625
774.724609	53208.191406
773.534180	53116.648438
772.343750	53429.191406
771.152344	53262.144531
769.960938	52864.644531
768.769531	53274.953125
767.578125	53324.171875
766.385742	53646.566406
765.194336	54085.031250
764.001953	53612.328125
762.808594	54203.453125
761.616211	54260.589844
760.422852	54350.292969
759.230469	54621.210938
758.037109	54930.710938
756.842773	55254.343750
755.649414	55242.015625
754.455078	55882.925781
753.260742	56014.937500
752.066406	55858.039063
750.871094	55717.464844
749.676758	55790.457031
748.481445	55871.550781
747.286133	55281.816406
746.089844	55330.453125
744.894531	55104.753906
743.698242	55137.144531
742.501953	55128.902344
741.304688	54631.226563
740.108398	54807.843750
738.911133	54011.992188
737.713867	53813.160156
736.516602	53943.148438
735.319336	54182.648438
734.121094	54405.832031
732.922852	54158.390625
731.724609	53884.675781
730.526367	54034.792969
729.327148	54245.660156
728.127930	54075.437500
726.928711	53862.722656
725.729492	53465.722656
724.530273	54292.292969
723.330078	53759.675781
722.129883	53215.105469
720.929688	53940.031250
719.728516	53751.851563
718.528320	53895.617188
717.327148	53669.070313
716.125977	53537.679688
714.923828	53786.566406
713.722656	53717.882813
712.520508	53853.421875
711.318359	53714.000000
710.116211	54146.570313
708.913086	54649.699219
707.710938	54492.015625
706.507813	54554.554688
705.304688	54035.457031
704.100586	54269.675781
702.897461	54528.031250
701.693359	54408.855469
700.489258	54348.242188
699.284180	54321.949219
698.080078	54941.175781
696.875000	55055.957031
695.669922	54916.613281
694.464844	54809.582031
693.258789	55313.347656
692.053711	55643.601563
690.847656	54913.859375
689.641602	55425.375000
688.434570	55161.226563
687.228516	55112.652344
686.021484	54890.933594
684.814453	55633.566406
683.607422	55313.207031
682.399414	55228.410156
681.191406	55873.980469
679.983398	55483.343750
678.775391	56040.125000
677.567383	55559.113281
676.358398	56015.144531
675.149414	56038.835938
673.940430	56452.402344
672.730469	56451.886719
671.521484	56455.390625
670.311523	56669.785156
669.101563	56669.222656
667.890625	56192.804688
666.680664	56280.656250
665.469727	56583.226563
664.258789	55733.839844
663.047852	56118.652344
661.835938	55815.281250
660.625000	55822.882813
659.413086	55824.460938
658.201172	56627.964844
656.988281	56330.730469
655.776367	56049.632813
654.563477	56111.269531
653.350586	56603.593750
652.136719	56374.675781
650.923828	56201.906250
649.709961	56583.808594
648.496094	56559.199219
647.282227	56134.304688
646.067383	56269.867188
644.852539	56579.437500
643.637695	56870.882813
642.422852	56702.230469
641.208008	56683.609375
639.992188	56670.988281
638.776367	57142.082031
637.560547	57317.226563
636.344727	57236.550781
635.127930	57423.593750
633.911133	57374.878906
632.694336	57378.101563
631.477539	57427.242188
630.259766	57494.328125
629.042969	56830.914063
627.825195	57111.593750
626.606445	56971.203125
625.388672	56996.421875
624.169922	57203.113281
622.951172	56977.039063
621.732422	57299.277344
620.513672	57186.875000
619.293945	57126.328125
618.074219	57444.363281
616.854492	56746.320313
615.634766	57104.136719
614.414063	57308.484375
613.193359	57040.898438
611.972656	57006.304688
610.751953	56854.300781
609.530273	56955.062500
608.309570	56898.613281
607.087891	56875.996094
605.866211	56815.601563
604.643555	56822.828125
603.420898	56877.765625
602.198242	56767.703125
600.975586	57011.410156
599.752930	56621.214844
598.529297	56866.835938
597.305664	57094.488281
596.082031	56918.949219
594.858398	56852.667969
593.633789	56498.585938
592.410156	56362.937500
591.185547	56725.386719
589.959961	57157.128906
588.735352	56900.437500
587.509766	57209.027344
586.284180	56298.109375
585.058594	56963.519531
583.832031	57341.285156
582.606445	56799.429688
581.379883	57456.437500
580.153320	57417.902344
578.925781	57371.457031
577.699219	57798.281250
576.471680	57634.972656
575.244141	57639.972656
574.015625	57734.019531
572.788086	57610.378906
571.559570	57087.171875
570.331055	57709.363281
569.101563	57326.730469
567.873047	57260.585938
566.643555	57437.609375
565.414063	57235.093750
564.184570	57344.863281
562.954102	56838.179688
561.724609	57264.023438
560.494141	56771.367188
559.263672	57327.378906
558.032227	56682.875000
556.800781	56976.175781
555.570313	57293.042969
554.337891	56767.285156
553.106445	57034.750000
551.874023	56475.703125
550.642578	57145.398438
549.409180	56974.937500
548.176758	56981.949219
546.944336	56809.609375
545.710938	57297.441406
544.477539	57735.832031
543.243164	56781.457031
542.009766	57097.675781
540.775391	57232.625000
539.541016	56889.144531
538.306641	57047.695313
537.071289	56972.007813
535.836914	57175.730469
534.601563	57345.933594
533.366211	57565.238281
532.129883	57642.875000
530.894531	57451.136719
529.658203	57572.007813
528.421875	57787.164063
527.184570	57668.199219
525.948242	57411.761719
524.710938	57430.398438
523.473633	57674.863281
522.235352	57567.781250
520.998047	58228.289063
519.759766	58136.839844
518.521484	58280.898438
517.283203	58175.730469
516.043945	58466.843750
514.804688	58112.601563
513.565430	58333.015625
512.326172	58059.308594
511.085938	58295.328125
509.846680	58413.671875
508.606445	58567.234375
507.366211	58446.476563
506.125000	58468.746094
504.883789	58526.250000
503.643555	58943.976563
502.401367	58247.722656
501.160156	58545.953125
499.917969	58321.613281
498.675781	58666.667969
497.433594	58544.097656
496.191406	58783.367188
494.948242	59433.156250
493.705078	58360.410156
492.461914	58931.843750
491.218750	59061.417969
489.975586	59278.859375
488.731445	59345.796875
487.487305	59176.386719
486.242188	59405.390625
484.998047	59417.593750
483.752930	59289.250000
482.507813	59529.804688
481.262695	59454.164063
480.016602	59696.542969
478.771484	60362.082031
477.525391	60167.359375
476.278320	60608.332031
475.032227	60361.000000
473.785156	60780.320313
472.538086	60519.402344
471.291016	60804.101563
470.043945	61375.031250
468.795898	61581.550781
467.547852	61425.812500
466.299805	61762.675781
465.051758	62085.785156
463.802734	62410.710938
462.553711	62733.570313
461.304688	62951.253906
460.055664	63392.523438
458.805664	63856.957031
457.555664	64103.457031
456.305664	64305.152344
455.055664	64944.058594
453.804688	64953.144531
452.553711	64954.449219
451.302734	65705.515625
450.051758	65889.226563
448.799805	66305.859375
447.548828	67623.093750
446.296875	67990.718750
445.043945	68228.171875
443.791992	68995.210938
442.539063	69088.843750
441.286133	69277.460938
440.033203	68453.796875
438.779297	67663.406250
437.526367	66663.968750
436.272461	65738.546875
435.017578	65286.253906
433.763672	64768.261719
432.508789	64523.566406
431.253906	63947.812500
429.999023	63521.359375
428.744141	63449.312500
427.488281	63251.488281
426.232422	63591.679688
424.976563	63134.648438
423.720703	63231.003906
422.463867	63242.226563
421.207031	63299.843750
419.950195	62746.542969
418.693359	62668.929688
417.435547	62800.050781
416.177734	63006.472656
414.919922	63023.500000
413.662109	62418.613281
412.403320	62568.980469
411.144531	62338.949219
409.885742	62338.707031
408.626953	62587.417969
407.367188	62942.164063
406.107422	62436.347656
404.847656	62596.167969
403.587891	62632.500000
402.327148	63015.875000
401.067383	62327.285156
