#Wave		#Intensity
2001.248047	42129.695313
2000.278320	42124.683594
1999.308594	42468.179688
1998.338867	42059.863281
1997.369141	41654.191406
1996.398438	41857.320313
1995.428711	42308.304688
1994.458008	42681.511719
1993.487305	42448.750000
1992.516602	42591.515625
1991.545898	42503.996094
1990.574219	42298.902344
1989.603516	42544.191406
1988.631836	42701.843750
1987.660156	42439.300781
1986.688477	42771.941406
1985.715820	42931.968750
1984.744141	43019.449219
1983.771484	42886.980469
1982.798828	42594.640625
1981.826172	42562.214844
1980.853516	42632.210938
1979.880859	43061.796875
1978.907227	42594.839844
1977.933594	42916.933594
1976.959961	42822.070313
1975.986328	42979.296875
1975.012695	42415.363281
1974.039063	43151.378906
1973.064453	43256.082031
1972.089844	43318.347656
1971.115234	42999.097656
1970.140625	42901.832031
1969.166016	43178.484375
1968.190430	43205.824219
1967.215820	43335.312500
1966.240234	43238.050781
1965.264648	43280.304688
1964.289063	43105.882813
1963.312500	43083.402344
1962.336914	43670.859375
1961.360352	43287.371094
1960.383789	43289.757813
1959.407227	43369.269531
1958.430664	43560.707031
1957.454102	43319.277344
1956.476563	43642.457031
1955.499023	43774.062500
1954.521484	43525.257813
1953.543945	43751.289063
1952.566406	43683.988281
1951.587891	43770.765625
1950.610352	43703.484375
1949.631836	44108.152344
1948.653320	44376.093750
1947.674805	44368.324219
1946.696289	43936.046875
1945.716797	44444.632813
1944.737305	44047.230469
1943.758789	44029.593750
1942.779297	44205.468750
1941.798828	44222.531250
1940.819336	44214.789063
1939.838867	43698.750000
1938.859375	44660.414063
1937.878906	44045.328125
1936.898438	44929.765625
1935.916992	44669.167969
1934.936523	44307.085938
1933.955078	44423.171875
1932.974609	44219.750000
1931.993164	44543.792969
1931.010742	44981.597656
1930.029297	44411.855469
1929.047852	44366.953125
1928.065430	44747.644531
1927.083008	44616.113281
1926.100586	44492.042969
1925.118164	45072.820313
1924.135742	44832.500000
1923.152344	44898.808594
1922.168945	45387.750000
1921.185547	44774.339844
1920.202148	45151.941406
1919.218750	45371.300781
1918.235352	45232.441406
1917.250977	45167.714844
1916.266602	45463.496094
1915.282227	44818.609375
1914.297852	44951.441406
1913.313477	45326.070313
1912.328125	45409.414063
1911.343750	45196.695313
1910.358398	45484.750000
1909.373047	45225.234375
1908.387695	45074.296875
1907.401367	45413.988281
1906.416016	45334.542969
1905.429688	45375.878906
1904.443359	45175.734375
1903.457031	44941.171875
1902.470703	45504.710938
1901.483398	45420.390625
1900.497070	45264.691406
1899.509766	45758.945313
1898.522461	45430.945313
1897.535156	45248.250000
1896.546875	45601.996094
1895.559570	45704.695313
1894.571289	45632.726563
1893.583008	45543.562500
1892.594727	45624.085938
1891.606445	45844.699219
1890.618164	45588.406250
1889.628906	45260.937500
1888.639648	45766.507813
1887.650391	45817.429688
1886.661133	45689.035156
1885.671875	45899.570313
1884.682617	46237.703125
1883.692383	45984.101563
1882.702148	45966.210938
1881.711914	45786.359375
1880.721680	45991.777344
1879.731445	45493.074219
1878.740234	45992.792969
1877.749023	46136.753906
1876.757813	45643.187500
1875.766602	45924.433594
1874.775391	46041.367188
1873.784180	45962.210938
1872.791992	46341.253906
1871.799805	46289.015625
1870.807617	46285.781250
1869.815430	46275.199219
1868.823242	46191.167969
1867.830078	46195.292969
1866.837891	45810.253906
1865.844727	46641.554688
1864.851563	46166.046875
1863.858398	46338.953125
1862.864258	46355.265625
1861.871094	46598.988281
1860.876953	46585.906250
1859.882813	46382.156250
1858.888672	46371.558594
1857.894531	46722.621094
1856.899414	46479.855469
1855.905273	46464.355469
1854.910156	47015.484375
1853.915039	46667.789063
1852.919922	47201.593750
1851.923828	46883.277344
1850.928711	47165.468750
1849.932617	46547.117188
1848.936523	46978.089844
1847.940430	47643.089844
1846.944336	47195.703125
1845.947266	47428.808594
1844.951172	46964.546875
1843.954102	47253.675781
1842.957031	47133.250000
1841.959961	47229.734375
1840.962891	47747.675781
1839.964844	47232.601563
1838.966797	47518.984375
1837.969727	47488.707031
1836.970703	47497.390625
1835.972656	47695.937500
1834.974609	48191.335938
1833.975586	47598.843750
1832.976563	48035.691406
1831.978516	47599.113281
1830.978516	48082.011719
1829.979492	48214.582031
1828.980469	47890.035156
1827.980469	48044.464844
1826.980469	48184.253906
1825.980469	48093.152344
1824.980469	48108.976563
1823.979492	48081.070313
1822.979492	47992.457031
1821.978516	48212.253906
1820.977539	47997.398438
1819.976563	48197.695313
1818.975586	48024.175781
1817.973633	48532.558594
1816.972656	48640.460938
1815.970703	48360.214844
1814.968750	48334.718750
1813.966797	48643.847656
1812.963867	48528.605469
1811.961914	48347.953125
1810.958984	48387.902344
1809.956055	48568.375000
1808.953125	48695.480469
1807.950195	48808.007813
1806.946289	48329.574219
1805.943359	49086.210938
1804.939453	48816.093750
1803.935547	48972.082031
1802.930664	48990.070313
1801.926758	48732.203125
1800.922852	48921.988281
1799.917969	48884.335938
1798.913086	49168.339844
1797.908203	49220.117188
1796.903320	49225.941406
1795.897461	49086.734375
1794.891602	49675.000000
1793.886719	49453.605469
1792.880859	49826.582031
1791.874023	49286.402344
1790.868164	49369.476563
1789.862305	49843.675781
1788.855469	49624.851563
1787.848633	49748.851563
1786.841797	49643.539063
1785.833984	49815.742188
1784.827148	49826.250000
1783.819336	50229.910156
1782.812500	49758.019531
1781.804688	49751.648438
1780.795898	50711.976563
1779.788086	50744.000000
1778.779297	50313.312500
1777.771484	49716.527344
1776.762695	50105.238281
1775.753906	50269.808594
1774.744141	50862.976563
1773.735352	50622.851563
1772.725586	50953.343750
1771.715820	50653.109375
1770.706055	50790.957031
1769.696289	51044.246094
1768.686523	50852.402344
1767.675781	51218.632813
1766.666016	51009.988281
1765.655273	51539.550781
1764.644531	51727.566406
1763.632813	51848.214844
1762.622070	51420.921875
1761.610352	51930.808594
1760.598633	52123.417969
1759.586914	52140.625000
1758.575195	51821.632813
1757.563477	51666.019531
1756.550781	52141.792969
1755.538086	52775.804688
1754.525391	52401.722656
1753.512695	53042.656250
1752.500000	52635.074219
1751.486328	52477.070313
1750.473633	53144.023438
1749.459961	53693.257813
1748.446289	52990.992188
1747.432617	53266.828125
1746.417969	52945.894531
1745.404297	53216.847656
1744.389648	53712.871094
1743.375000	53495.007813
1742.360352	53856.707031
1741.344727	53820.843750
1740.330078	53667.699219
1739.314453	54153.621094
1738.298828	54404.867188
1737.283203	54964.652344
1736.267578	54230.136719
1735.251953	54603.199219
1734.235352	55004.824219
1733.218750	54906.632813
1732.202148	55303.277344
1731.185547	55542.042969
1730.168945	56022.062500
1729.151367	56260.613281
1728.133789	56745.109375
1727.117188	57377.500000
1726.098633	57527.328125
1725.081055	57424.035156
1724.063477	57731.335938
1723.044922	58250.929688
1722.026367	58064.042969
1721.007813	58685.972656
1719.989258	58988.054688
1718.970703	58855.980469
1717.951172	59906.632813
1716.931641	59750.597656
1715.912109	59392.007813
1714.892578	60110.742188
1713.873047	60121.539063
1712.853516	60396.765625
1711.833008	60431.324219
1710.812500	60144.367188
1709.791992	59931.320313
1708.771484	59980.218750
1707.750000	60138.585938
1706.729492	60220.742188
1705.708008	60112.515625
1704.686523	60094.726563
1703.665039	59748.703125
1702.642578	59417.070313
1701.621094	60136.488281
1700.598633	59495.851563
1699.576172	59668.324219
1698.553711	59075.523438
1697.531250	59262.257813
1696.507813	59261.253906
1695.485352	58728.210938
1694.461914	59261.613281
1693.438477	58759.621094
1692.415039	59164.632813
1691.390625	58575.011719
1690.367188	59202.976563
1689.342773	58601.691406
1688.318359	59015.921875
1687.293945	59052.890625
1686.269531	58897.761719
1685.244141	58467.656250
1684.218750	58696.707031
1683.194336	58477.722656
1682.168945	58654.554688
1681.142578	58682.054688
1680.117188	59067.242188
1679.090820	58966.757813
1678.064453	58880.519531
1677.038086	59246.515625
1676.011719	59219.429688
1674.985352	59597.066406
1673.958008	59529.695313
1672.931641	59268.343750
1671.904297	58574.195313
1670.876953	59322.984375
1669.848633	59390.488281
1668.821289	59677.835938
1667.792969	59853.980469
1666.764648	59569.199219
1665.736328	59641.324219
1664.708008	59864.625000
1663.679688	60014.621094
1662.650391	59819.746094
1661.621094	59771.343750
1660.591797	59968.484375
1659.562500	60085.292969
1658.533203	60383.785156
1657.502930	60542.949219
1656.472656	60482.652344
1655.442383	60844.593750
1654.412109	60553.136719
1653.381836	61162.515625
1652.351563	60609.417969
1651.320313	60883.855469
1650.289063	60964.945313
1649.257813	60859.863281
1648.226563	61374.398438
1647.194336	61116.167969
1646.163086	61444.425781
1645.130859	61457.050781
1644.098633	61794.542969
1643.066406	61272.792969
1642.033203	61777.277344
1641.000977	61601.589844
1639.967773	61948.214844
1638.934570	61854.878906
1637.901367	62481.175781
1636.868164	62825.101563
1635.833984	63013.750000
1634.800781	62598.273438
1633.766602	63139.382813
1632.732422	62801.562500
1631.697266	62912.546875
1630.663086	63624.765625
1629.627930	63200.144531
1628.593750	63977.792969
1627.558594	64015.707031
1626.522461	63788.386719
1625.487305	64133.722656
1624.451172	64554.015625
1623.416016	65344.792969
1622.379883	65145.535156
1621.343750	65631.070313
1620.306641	66257.109375
1619.270508	67112.648438
1618.233398	68884.273438
1617.196289	69739.031250
1616.159180	71326.804688
1615.122070	72801.578125
1614.083984	74170.421875
1613.046875	75883.000000
1612.008789	77456.835938
1610.970703	77843.320313
1609.932617	78503.484375
1608.893555	78264.867188
1607.855469	77322.125000
1606.816406	76520.062500
1605.777344	74771.109375
1604.738281	73287.000000
1603.698242	72275.664063
1602.659180	71269.367188
1601.619141	70053.085938
1600.579102	69253.164063
1599.539063	68381.093750
1598.499023	67960.140625
1597.458008	67198.375000
1596.417969	66803.460938
1595.376953	66642.148438
1594.335938	66597.593750
1593.294922	66471.367188
1592.252930	65610.195313
1591.210938	65547.179688
1590.169922	65383.882813
1589.127930	66018.203125
1588.084961	65675.343750
1587.042969	65136.773438
1586.000000	65463.128906
1584.958008	65239.386719
1583.915039	65320.953125
1582.872070	65076.347656
1581.828125	65081.046875
1580.785156	65090.398438
1579.741211	65418.722656
1578.697266	65157.968750
1577.653320	65895.796875
1576.609375	65749.070313
1575.564453	65281.312500
1574.520508	66151.312500
1573.475586	66013.914063
1572.430664	66716.039063
1571.384766	66264.710938
1570.339844	66459.773438
1569.293945	66956.898438
1568.249023	66587.093750
1567.202148	67209.484375
1566.156250	67216.070313
1565.110352	66356.351563
1564.063477	66024.062500
1563.017578	65369.167969
1561.970703	65480.523438
1560.922852	65106.781250
1559.875977	65276.152344
1558.829102	65171.695313
1557.781250	64679.898438
1556.733398	65412.808594
1555.685547	64726.363281
1554.636719	64754.214844
1553.588867	64561.847656
1552.540039	64469.203125
1551.491211	64147.191406
1550.442383	63688.609375
1549.393555	63605.425781
1548.344727	63888.179688
1547.294922	63728.574219
1546.245117	63758.859375
1545.195313	63833.109375
1544.145508	63525.480469
1543.094727	63562.718750
1542.044922	63646.207031
1540.994141	63493.738281
1539.943359	63450.015625
1538.892578	63514.976563
1537.840820	63122.183594
1536.790039	63362.835938
1535.738281	63631.128906
1534.686523	63009.777344
1533.634766	63178.699219
1532.583008	63499.996094
1531.530273	63278.500000
1530.477539	63544.246094
1529.424805	63278.953125
1528.372070	63376.113281
1527.319336	63445.546875
1526.265625	63452.656250
1525.212891	63028.390625
1524.159180	63005.582031
1523.105469	63033.515625
1522.051758	62946.152344
1520.997070	63038.625000
1519.942383	62838.355469
1518.888672	62746.460938
1517.833984	62638.468750
1516.778320	62984.300781
1515.723633	62823.328125
1514.667969	62434.449219
1513.612305	62764.007813
1512.556641	62379.875000
1511.500977	62366.410156
1510.445313	63006.433594
1509.388672	62472.914063
1508.332031	62516.933594
1507.275391	62209.070313
1506.218750	61945.000000
1505.162109	62800.617188
1504.104492	62904.296875
1503.047852	62665.519531
1501.990234	62870.281250
1500.931641	63320.781250
1499.874023	62379.195313
1498.816406	62815.835938
1497.757813	62510.687500
1496.699219	62637.230469
1495.640625	62460.750000
1494.582031	62695.105469
1493.522461	62693.050781
1492.462891	62968.570313
1491.403320	62578.843750
1490.343750	62689.167969
1489.284180	62505.976563
1488.224609	62792.781250
1487.164063	62740.273438
1486.103516	62589.242188
1485.042969	62614.679688
1483.982422	62750.062500
1482.920898	62594.523438
1481.860352	63357.292969
1480.798828	62940.691406
1479.737305	62933.984375
1478.675781	62670.945313
1477.613281	63110.496094
1476.550781	62943.605469
1475.489258	62927.742188
1474.426758	62982.781250
1473.363281	63410.515625
1472.300781	63483.734375
1471.237305	63355.769531
1470.174805	63006.164063
1469.111328	63467.855469
1468.046875	63929.375000
1466.983398	63771.718750
1465.919922	64228.449219
1464.855469	64214.640625
1463.791016	64207.683594
1462.726563	64378.761719
1461.661133	64107.046875
1460.596680	64738.984375
1459.531250	64631.550781
1458.465820	64469.410156
1457.400391	64635.714844
1456.334961	65415.296875
1455.268555	65713.585938
1454.202148	65412.324219
1453.135742	65345.886719
1452.069336	65299.976563
1451.002930	65953.437500
1449.935547	65734.328125
1448.869141	65597.273438
1447.801758	66523.539063
1446.734375	66195.171875
1445.666016	66447.296875
1444.598633	66207.804688
1443.530273	66999.039063
1442.461914	67203.109375
1441.393555	66663.382813
1440.325195	67838.406250
1439.256836	68089.945313
1438.187500	68411.859375
1437.118164	68749.562500
1436.048828	68675.859375
1434.979492	69315.546875
1433.909180	69598.382813
1432.839844	69306.531250
1431.769531	69836.765625
1430.699219	69964.968750
1429.627930	70326.914063
1428.557617	70343.773438
1427.486328	70596.609375
1426.416016	70633.820313
1425.343750	70657.414063
1424.272461	70474.625000
1423.201172	69867.890625
1422.128906	70134.164063
1421.056641	70030.890625
1419.984375	69852.859375
1418.912109	70112.187500
1417.839844	69485.664063
1416.766602	69735.898438
1415.693359	69270.445313
1414.620117	69706.281250
1413.546875	69673.367188
1412.473633	69622.351563
1411.399414	69281.703125
1410.325195	69576.937500
1409.250977	70161.617188
1408.176758	70463.367188
1407.102539	69797.164063
1406.027344	70259.390625
1404.952148	70436.625000
1403.876953	70595.710938
1402.801758	70257.609375
1401.726563	70823.335938
1400.650391	70767.664063
1399.574219	71023.679688
1398.498047	71207.335938
1397.421875	71334.492188
1396.345703	70892.773438
1395.268555	71536.742188
1394.191406	71304.984375
1393.114258	71549.328125
1392.037109	71813.875000
1390.959961	72067.054688
1389.881836	72227.687500
1388.804688	72861.687500
1387.726563	73191.164063
1386.647461	73008.960938
1385.569336	73815.960938
1384.491211	74149.578125
1383.412109	74264.601563
1382.333008	74974.093750
1381.253906	75789.148438
1380.173828	75012.359375
1379.094727	75523.257813
1378.014648	75903.453125
1376.934570	75930.265625
1375.854492	75243.976563
1374.773438	75223.664063
1373.693359	75524.914063
1372.612305	75360.664063
1371.531250	75099.804688
1370.450195	74232.218750
1369.369141	74124.453125
1368.287109	73657.257813
1367.205078	73682.164063
1366.123047	73071.468750
1365.041016	72979.703125
1363.958984	72753.257813
1362.875977	72538.109375
1361.793945	71714.851563
1360.710938	72164.148438
1359.626953	71938.000000
1358.543945	71485.382813
1357.460938	71414.179688
1356.376953	70878.851563
1355.292969	71132.835938
1354.208984	71433.796875
1353.124023	71091.476563
1352.040039	70720.148438
1350.955078	70839.554688
1349.870117	70647.585938
1348.785156	70285.484375
1347.700195	70028.750000
1346.614258	70354.125000
1345.528320	69553.585938
1344.442383	70648.726563
1343.356445	70078.859375
1342.270508	70231.742188
1341.183594	69959.617188
1340.096680	69783.742188
1339.009766	69911.992188
1337.922852	69915.007813
1336.835938	69750.406250
1335.748047	69824.953125
1334.661133	69720.734375
1333.573242	70827.242188
1332.484375	70504.007813
1331.396484	70321.570313
1330.307617	70782.156250
1329.219727	70617.578125
1328.130859	70551.257813
1327.041992	70960.226563
1325.952148	71052.250000
1324.863281	70499.625000
1323.773438	70547.093750
1322.683594	71018.187500
1321.593750	70822.546875
1320.502930	71210.945313
1319.413086	70984.132813
1318.322266	71080.468750
1317.231445	71031.976563
1316.140625	71110.453125
1315.048828	71213.390625
1313.958008	71443.195313
1312.866211	70969.476563
1311.774414	71481.898438
1310.682617	71951.851563
1309.589844	71409.312500
1308.498047	71690.023438
1307.405273	71757.125000
1306.312500	71757.484375
1305.218750	71875.671875
1304.125977	72596.203125
1303.032227	72229.695313
1301.939453	72181.070313
1300.845703	72918.929688
1299.750977	72841.312500
1298.657227	72563.851563
1297.562500	73725.328125
1296.467773	73672.023438
1295.373047	74475.507813
1294.278320	74151.335938
1293.183594	74466.296875
1292.087891	74872.093750
1290.992188	74956.132813
1289.896484	74487.945313
1288.800781	74773.781250
1287.704102	75376.515625
1286.608398	74684.640625
1285.511719	74824.015625
1284.415039	75127.296875
1283.317383	74090.257813
1282.220703	74823.226563
1281.123047	74539.515625
1280.025391	73483.203125
1278.927734	74018.867188
1277.830078	73534.039063
1276.731445	73516.289063
1275.633789	73135.703125
1274.535156	72500.875000
1273.436523	72719.953125
1272.336914	72753.210938
1271.238281	72008.242188
1270.138672	72012.875000
1269.039063	72116.953125
1267.939453	71319.468750
1266.839844	71222.585938
1265.739258	71101.437500
1264.638672	71353.554688
1263.538086	70377.929688
1262.437500	70471.132813
1261.336914	70420.828125
1260.235352	70330.820313
1259.134766	69289.875000
1258.033203	69727.335938
1256.930664	69434.570313
1255.829102	69318.328125
1254.726563	69089.687500
1253.625000	68682.562500
1252.522461	68401.210938
1251.418945	68353.539063
1250.316406	68550.445313
1249.212891	68337.546875
1248.110352	68259.070313
1247.006836	68145.390625
1245.902344	67983.312500
1244.798828	68193.296875
1243.694336	68321.773438
1242.589844	67653.648438
1241.485352	67280.562500
1240.380859	67527.898438
1239.276367	67504.640625
1238.170898	67252.718750
1237.065430	67187.742188
1235.959961	67404.132813
1234.854492	67752.304688
1233.748047	67151.140625
1232.642578	66750.109375
1231.536133	67205.820313
1230.429688	67035.500000
1229.322266	66784.000000
1228.215820	67235.062500
1227.108398	67330.390625
1226.000977	66947.296875
1224.893555	67042.640625
1223.786133	66833.031250
1222.677734	66809.921875
1221.569336	66142.125000
1220.460938	66434.851563
1219.352539	66264.953125
1218.244141	66529.046875
1217.134766	66300.023438
1216.025391	66092.992188
1214.916016	65918.882813
1213.806641	66351.476563
1212.697266	66431.375000
1211.586914	66069.015625
1210.476563	66267.132813
1209.366211	65651.070313
1208.255859	66083.304688
1207.145508	66090.976563
1206.034180	65921.468750
1204.922852	66359.968750
1203.811523	66741.460938
1202.700195	66867.039063
1201.587891	66155.468750
1200.476563	66333.546875
1199.364258	66740.968750
1198.251953	67261.835938
1197.138672	67155.679688
1196.026367	67032.093750
1194.913086	67539.515625
1193.799805	67950.695313
1192.686523	68163.125000
1191.573242	67618.289063
1190.458984	67985.593750
1189.344727	67881.601563
1188.230469	68205.101563
1187.116211	67998.617188
1186.001953	67929.554688
1184.886719	67692.679688
1183.772461	68061.726563
1182.657227	67868.484375
1181.541016	67860.484375
1180.425781	67985.343750
1179.309570	68323.570313
1178.193359	67483.750000
1177.077148	67673.906250
1175.960938	67746.460938
1174.844727	67677.546875
1173.727539	67062.539063
1172.610352	67433.171875
1171.493164	66581.359375
1170.375977	67225.937500
1169.257813	66770.164063
1168.139648	66714.523438
1167.022461	66065.570313
1165.903320	66353.390625
1164.785156	66536.828125
1163.666992	66103.304688
1162.547852	66267.164063
1161.428711	66050.976563
1160.309570	66084.523438
1159.189453	65944.406250
1158.070313	65730.554688
1156.950195	65803.187500
1155.830078	65533.031250
1154.709961	65479.871094
1153.588867	65999.234375
1152.468750	65265.183594
1151.347656	65209.921875
1150.226563	65343.246094
1149.104492	65595.703125
1147.983398	65765.726563
1146.861328	65381.140625
1145.739258	65388.703125
1144.617188	65669.101563
1143.495117	66036.000000
1142.372070	65777.179688
1141.250000	66369.007813
1140.126953	66287.648438
1139.003906	66768.820313
1137.879883	66611.703125
1136.756836	66947.734375
1135.632813	67493.382813
1134.508789	66616.304688
1133.384766	67155.320313
1132.259766	66905.335938
1131.135742	66940.656250
1130.010742	66788.015625
1128.885742	66641.898438
1127.759766	67009.804688
1126.634766	67317.117188
1125.508789	66780.250000
1124.382813	66625.601563
1123.256836	66106.312500
1122.130859	66478.281250
1121.003906	65866.445313
1119.877930	66410.851563
1118.750977	65622.429688
1117.624023	65571.632813
1116.496094	65796.757813
1115.369141	65506.718750
1114.241211	65208.160156
1113.113281	65032.507813
1111.985352	65380.335938
1110.856445	64926.898438
1109.728516	65293.992188
1108.599609	64808.437500
1107.470703	64542.601563
1106.340820	64784.738281
1105.211914	64635.187500
1104.082031	64737.386719
1102.952148	64893.312500
1101.822266	65251.324219
1100.692383	65368.394531
1099.561523	65016.789063
1098.431641	64923.222656
1097.300781	64685.714844
1096.169922	65232.488281
1095.038086	65061.593750
1093.907227	65174.257813
1092.775391	64088.675781
1091.643555	63926.664063
1090.511719	64511.703125
1089.378906	64107.152344
1088.246094	63837.933594
1087.114258	63789.777344
1085.980469	63647.257813
1084.847656	63877.945313
1083.714844	63739.746094
1082.581055	63569.437500
1081.447266	63525.648438
1080.313477	63076.843750
1079.179688	63525.953125
1078.044922	63034.468750
1076.910156	63344.195313
1075.775391	62878.613281
1074.640625	63338.125000
1073.505859	63354.351563
1072.370117	63606.000000
1071.234375	63012.308594
1070.098633	63462.886719
1068.962891	63149.652344
1067.826172	62763.812500
1066.690430	62683.886719
1065.553711	63213.289063
1064.416992	63317.132813
1063.279297	63269.199219
1062.142578	63223.414063
1061.004883	62944.785156
1059.867188	63112.667969
1058.729492	62849.105469
1057.590820	63066.046875
1056.453125	63370.429688
1055.314453	62752.648438
1054.175781	63020.695313
1053.037109	62934.464844
1051.897461	63018.917969
1050.757813	62907.121094
1049.618164	62976.617188
1048.478516	63163.343750
1047.338867	63273.261719
1046.199219	62854.589844
1045.058594	63292.667969
1043.917969	63168.144531
1042.777344	63352.523438
1041.635742	62804.218750
1040.495117	62948.136719
1039.353516	62670.472656
1038.211914	62759.011719
1037.069336	62172.906250
1035.927734	62463.632813
1034.785156	62050.101563
1033.642578	62085.503906
1032.500000	62333.546875
1031.357422	62632.527344
1030.213867	62438.210938
1029.071289	62586.152344
1027.927734	62026.414063
1026.783203	62331.589844
1025.639648	62010.011719
1024.495117	62293.835938
1023.351563	61936.277344
1022.207031	62054.406250
1021.061523	61962.347656
1019.916992	62381.785156
1018.771484	62359.718750
1017.625977	61764.855469
1016.480469	61993.191406
1015.334961	61858.800781
1014.188477	62082.792969
1013.041992	61759.753906
1011.895508	62193.507813
1010.749023	62256.250000
1009.602539	61914.285156
1008.455078	61949.507813
1007.307617	61734.796875
1006.160156	61856.855469
1005.012695	61868.777344
1003.864258	62223.609375
1002.716797	62023.808594
1001.568359	63100.046875
1000.419922	62819.757813
999.270508	63624.695313
998.122070	64050.773438
996.972656	63131.882813
995.823242	63443.726563
994.673828	62533.738281
993.523438	62991.390625
992.373047	63484.792969
991.222656	63124.546875
990.072266	62861.585938
988.921875	62945.050781
987.771484	62965.140625
986.620117	63181.542969
985.468750	62851.214844
984.317383	63430.507813
983.165039	62897.710938
982.013672	63327.003906
980.861328	63290.039063
979.708984	62706.945313
978.555664	62615.289063
977.403320	62498.371094
976.250000	62514.261719
975.096680	62827.242188
973.943359	63173.816406
972.790039	62582.945313
971.635742	63030.515625
970.481445	62132.472656
969.327148	62449.433594
968.172852	62671.562500
967.018555	62510.609375
965.863281	62290.796875
964.708008	62767.359375
963.552734	62223.683594
962.397461	62235.351563
961.241211	62230.191406
960.084961	62098.906250
958.929688	62490.984375
957.772461	62334.480469
956.616211	62512.074219
955.458984	62607.679688
954.301758	62400.828125
953.144531	62040.769531
951.987305	62161.593750
950.830078	61679.968750
949.671875	61886.847656
948.513672	61514.550781
947.355469	61557.750000
946.196289	61684.828125
945.038086	61440.683594
943.878906	61318.234375
942.719727	61361.425781
941.560547	61582.750000
940.400391	61164.871094
939.241211	60990.167969
938.081055	61291.031250
936.919922	61250.402344
935.759766	61260.042969
934.599609	60804.906250
933.438477	61103.476563
932.277344	61182.187500
931.116211	61530.789063
929.954102	61318.601563
928.791992	61671.226563
927.630859	61387.984375
926.467773	61922.363281
925.305664	61409.222656
924.143555	62160.761719
922.980469	62076.144531
921.817383	62415.687500
920.654297	62124.250000
919.490234	62636.996094
918.327148	62552.343750
917.163086	62866.484375
915.999023	63309.917969
914.833984	63615.449219
913.669922	63484.761719
912.504883	63729.640625
911.339844	63936.878906
910.174805	64214.941406
909.008789	64832.765625
907.843750	64339.226563
906.677734	65088.105469
905.511719	65169.851563
904.345703	64955.707031
903.178711	64974.949219
902.011719	64596.378906
900.844727	63897.261719
899.677734	63725.136719
898.510742	63288.710938
897.342773	62625.593750
896.174805	63026.019531
895.006836	62302.855469
893.838867	62615.824219
892.670898	62839.250000
891.501953	62282.855469
890.333008	62668.406250
889.164063	62182.917969
887.994141	62059.195313
886.825195	62795.707031
885.655273	62167.113281
884.485352	62168.074219
883.315430	61969.679688
882.144531	62356.847656
880.973633	62054.695313
879.803711	61792.082031
878.631836	62714.421875
877.460938	62474.605469
876.289063	63114.367188
875.118164	62851.746094
873.945313	63014.285156
872.773438	63607.976563
871.601563	62889.394531
870.428711	63114.000000
869.255859	62849.535156
868.083008	62471.222656
866.910156	63263.289063
865.736328	63771.355469
864.562500	63349.593750
863.388672	64060.316406
862.214844	64346.488281
861.040039	64026.242188
859.866211	63999.898438
858.691406	64428.644531
857.516602	64087.871094
856.340820	63763.765625
855.166016	63754.019531
853.990234	63545.839844
852.814453	63540.265625
851.637695	63485.097656
850.461914	62611.871094
849.285156	63067.066406
848.108398	63522.085938
846.931641	63270.804688
845.754883	62996.906250
844.577148	64202.953125
843.399414	64234.386719
842.221680	64903.324219
841.043945	65875.242188
839.865234	66500.312500
838.687500	67267.421875
837.508789	67840.453125
836.329102	69079.062500
835.150391	69313.554688
833.970703	69022.531250
832.791992	68220.703125
831.611328	68135.953125
830.431641	66898.000000
829.251953	66486.148438
828.071289	64740.484375
826.890625	64003.984375
825.709961	63724.589844
824.528320	63025.578125
823.347656	62285.683594
822.166016	62490.074219
820.984375	61653.898438
819.801758	62028.964844
818.620117	61816.011719
817.437500	61132.500000
816.254883	60794.441406
815.072266	60853.003906
813.888672	60511.007813
812.706055	60220.480469
811.522461	60548.082031
810.338867	60130.371094
809.154297	59989.894531
807.970703	59586.800781
806.786133	59799.371094
805.601563	59896.984375
804.416992	59705.371094
803.231445	59321.074219
802.045898	59713.941406
800.861328	59303.132813
799.674805	59583.132813
798.489258	59274.945313
797.302734	59089.792969
796.117188	58576.980469
794.930664	58574.285156
793.743164	58377.070313
792.556641	58241.343750
791.369141	58332.855469
790.181641	58301.546875
788.994141	58194.542969
787.805664	57893.246094
786.618164	58068.597656
785.429688	58020.992188
784.241211	57439.789063
783.052734	57490.429688
781.863281	57246.750000
780.673828	56972.511719
779.484375	57290.832031
778.294922	57200.511719
777.105469	56644.601563
775.915039	56830.078125
774.724609	56741.929688
773.534180	57006.914063
772.343750	56843.253906
771.152344	56804.113281
769.960938	56899.617188
768.769531	56889.027344
767.578125	57127.214844
766.385742	56519.214844
765.194336	57222.136719
764.001953	57280.777344
762.808594	57638.925781
761.616211	57723.945313
760.422852	57943.367188
759.230469	58331.730469
758.037109	58245.531250
756.842773	58713.085938
755.649414	58891.437500
754.455078	58703.425781
753.260742	58863.398438
752.066406	59023.308594
750.871094	58778.417969
749.676758	58072.019531
748.481445	58014.437500
747.286133	57359.253906
746.089844	57068.101563
744.894531	57232.214844
743.698242	57412.519531
742.501953	56428.871094
741.304688	56674.238281
740.108398	56578.394531
738.911133	56409.500000
737.713867	55978.839844
736.516602	56110.453125
735.319336	55574.500000
734.121094	55856.246094
732.922852	55379.351563
731.724609	55263.578125
730.526367	54884.281250
729.327148	55232.832031
728.127930	55025.941406
726.928711	55289.226563
725.729492	55228.265625
724.530273	54920.207031
723.330078	54980.839844
722.129883	54496.785156
720.929688	54802.421875
719.728516	54468.351563
718.528320	54025.128906
717.327148	54456.117188
716.125977	54623.968750
714.923828	54391.296875
713.722656	54803.769531
712.520508	54071.773438
711.318359	54476.058594
710.116211	54494.183594
708.913086	54633.535156
707.710938	55140.515625
706.507813	54152.601563
705.304688	54340.398438
704.100586	54548.316406
702.897461	54126.304688
701.693359	53734.726563
700.489258	54285.687500
699.284180	53946.675781
698.080078	53918.441406
696.875000	54301.652344
695.669922	54452.824219
694.464844	54019.269531
693.258789	54378.054688
692.053711	54390.058594
690.847656	54200.562500
689.641602	54482.546875
688.434570	54504.589844
687.228516	54198.371094
686.021484	54671.468750
684.814453	54314.996094
683.607422	54328.992188
682.399414	54338.960938
681.191406	54222.164063
679.983398	54348.812500
678.775391	54030.933594
677.567383	54248.054688
676.358398	54501.277344
675.149414	54784.550781
673.940430	55230.503906
672.730469	54488.781250
671.521484	54773.902344
670.311523	54353.906250
669.101563	54500.375000
667.890625	54450.019531
666.680664	54415.742188
665.469727	54108.511719
664.258789	54395.375000
663.047852	54501.562500
661.835938	54611.714844
660.625000	54186.339844
659.413086	54047.863281
658.201172	54166.054688
656.988281	54043.664063
655.776367	53744.960938
654.563477	53875.156250
653.350586	53558.558594
652.136719	54171.441406
650.923828	53969.050781
649.709961	54167.171875
648.496094	53846.742188
647.282227	53986.765625
646.067383	53652.480469
644.852539	53648.429688
643.637695	53908.421875
642.422852	53538.332031
641.208008	53982.199219
639.992188	54036.058594
638.776367	54189.832031
637.560547	53636.101563
636.344727	54421.277344
635.127930	54039.507813
633.911133	54285.035156
632.694336	54230.925781
631.477539	54404.441406
630.259766	53517.914063
629.042969	54030.781250
627.825195	53805.140625
626.606445	53599.535156
625.388672	53872.730469
624.169922	53898.523438
622.951172	54061.886719
621.732422	53491.554688
620.513672	53593.136719
619.293945	53770.410156
618.074219	53999.414063
616.854492	53441.464844
615.634766	53341.808594
614.414063	53712.144531
613.193359	53447.222656
611.972656	53397.378906
610.751953	53859.035156
609.530273	53564.382813
608.309570	53265.855469
607.087891	53570.132813
605.866211	53556.097656
604.643555	53637.507813
603.420898	53583.699219
602.198242	53549.789063
600.975586	54030.574219
599.752930	53519.742188
598.529297	53686.488281
597.305664	53281.171875
596.082031	53944.324219
594.858398	53197.625000
593.633789	53531.035156
592.410156	53395.945313
591.185547	53620.054688
589.959961	53016.804688
588.735352	53328.167969
587.509766	53492.660156
586.284180	53363.644531
585.058594	53466.609375
583.832031	52970.972656
582.606445	53569.375000
581.379883	53244.285156
580.153320	53392.746094
578.925781	53562.933594
577.699219	53671.671875
576.471680	53556.652344
575.244141	53594.089844
574.015625	53851.179688
572.788086	53943.941406
571.559570	53470.878906
570.331055	53268.964844
569.101563	53527.890625
567.873047	53454.550781
566.643555	53365.421875
565.414063	53794.148438
564.184570	52892.832031
562.954102	53297.769531
561.724609	53198.851563
560.494141	53182.917969
559.263672	52787.867188
558.032227	53058.269531
556.800781	53125.261719
555.570313	52765.960938
554.337891	52647.507813
553.106445	53024.246094
551.874023	52661.218750
550.642578	53213.312500
549.409180	52570.410156
548.176758	52830.570313
546.944336	52556.527344
545.710938	52599.832031
544.477539	53112.000000
543.243164	52603.656250
542.009766	52692.214844
540.775391	52794.519531
539.541016	52890.882813
538.306641	52892.726563
537.071289	52648.582031
535.836914	52709.492188
534.601563	52813.652344
533.366211	52778.132813
532.129883	52911.734375
530.894531	52669.769531
529.658203	53019.554688
528.421875	52840.546875
527.184570	52799.148438
525.948242	52936.535156
524.710938	52944.230469
523.473633	52938.175781
522.235352	52818.242188
520.998047	53132.187500
519.759766	52700.187500
518.521484	53190.640625
517.283203	52858.847656
516.043945	53147.039063
514.804688	52854.597656
513.565430	52544.617188
512.326172	52907.195313
511.085938	52959.937500
509.846680	53004.816406
508.606445	52865.496094
507.366211	53053.378906
506.125000	52843.585938
504.883789	53176.304688
503.643555	52888.250000
502.401367	53299.132813
501.160156	53065.957031
499.917969	52787.859375
498.675781	52742.679688
497.433594	53120.015625
496.191406	53332.929688
494.948242	53056.941406
493.705078	53332.339844
492.461914	53066.218750
491.218750	53163.679688
489.975586	53413.492188
488.731445	53172.898438
487.487305	53114.023438
486.242188	53299.261719
484.998047	53482.472656
483.752930	53292.789063
482.507813	53645.714844
481.262695	53551.675781
480.016602	53473.273438
478.771484	53644.562500
477.525391	53224.898438
476.278320	53963.546875
475.032227	53276.906250
473.785156	53565.035156
472.538086	53806.285156
471.291016	53498.023438
470.043945	53618.417969
468.795898	53990.000000
467.547852	54634.042969
466.299805	54510.792969
465.051758	54519.949219
463.802734	54976.695313
462.553711	55184.214844
461.304688	55718.472656
460.055664	55894.648438
458.805664	56010.472656
457.555664	56083.476563
456.305664	56267.253906
455.055664	56532.582031
453.804688	57034.871094
452.553711	57084.304688
451.302734	57409.535156
450.051758	57767.652344
448.799805	57880.984375
447.548828	58902.796875
446.296875	59260.421875
445.043945	60561.019531
443.791992	60803.718750
442.539063	60755.347656
441.286133	60286.128906
440.033203	59766.671875
438.779297	59260.976563
437.526367	57964.621094
436.272461	57228.835938
435.017578	56516.574219
433.763672	55825.890625
432.508789	55526.718750
431.253906	54842.289063
429.999023	54675.066406
428.744141	54455.640625
427.488281	54453.062500
426.232422	54309.226563
424.976563	54252.500000
423.720703	54422.109375
422.463867	53843.210938
421.207031	53825.269531
419.950195	53815.062500
418.693359	53671.492188
417.435547	54154.101563
416.177734	53908.113281
414.919922	53965.503906
413.662109	53659.765625
412.403320	53879.378906
411.144531	53371.050781
409.885742	53550.097656
408.626953	53750.300781
407.367188	54116.367188
406.107422	53675.890625
404.847656	53630.988281
403.587891	54066.285156
402.327148	53361.910156
401.067383	53292.027344
