#Wave		#Intensity
2001.221680	38510.085938
2000.251953	39299.640625
1999.282227	39227.621094
1998.312500	38797.320313
1997.342773	39081.152344
1996.372070	39154.480469
1995.402344	39453.171875
1994.431641	39215.925781
1993.460938	39013.808594
1992.490234	39404.976563
1991.518555	39328.023438
1990.547852	39641.429688
1989.576172	39106.644531
1988.604492	39675.105469
1987.632813	39725.695313
1986.661133	39573.734375
1985.689453	39866.816406
1984.716797	39437.433594
1983.745117	39433.042969
1982.772461	39773.464844
1981.799805	39734.039063
1980.827148	39579.726563
1979.853516	39967.390625
1978.880859	39863.027344
1977.907227	40325.398438
1976.933594	39611.976563
1975.959961	39600.062500
1974.986328	40114.628906
1974.011719	39878.101563
1973.038086	39918.523438
1972.063477	39442.703125
1971.088867	39687.640625
1970.114258	40039.691406
1969.138672	40169.781250
1968.164063	40225.058594
1967.188477	40384.968750
1966.212891	39971.835938
1965.237305	40206.453125
1964.261719	40535.621094
1963.286133	40227.253906
1962.309570	39948.863281
1961.333984	40464.578125
1960.357422	40726.269531
1959.380859	40313.574219
1958.404297	40137.355469
1957.426758	40267.136719
1956.450195	40282.472656
1955.472656	40506.664063
1954.495117	40037.179688
1953.517578	40567.058594
1952.540039	40813.445313
1951.561523	40694.492188
1950.583008	40610.359375
1949.605469	40479.058594
1948.626953	40360.222656
1947.647461	40596.488281
1946.668945	40194.660156
1945.690430	40232.304688
1944.710938	40746.410156
1943.731445	40352.207031
1942.751953	40756.953125
1941.772461	40769.660156
1940.791992	40459.972656
1939.812500	40661.164063
1938.832031	40931.699219
1937.851563	40812.996094
1936.871094	40753.804688
1935.890625	40768.968750
1934.909180	40969.921875
1933.928711	40613.507813
1932.947266	40750.027344
1931.965820	40844.406250
1930.984375	40470.867188
1930.002930	40867.226563
1929.020508	41132.285156
1928.038086	40917.238281
1927.056641	40665.160156
1926.074219	40771.812500
1925.090820	40747.355469
1924.108398	40604.226563
1923.125000	40836.906250
1922.142578	40641.902344
1921.159180	40859.664063
1920.175781	41329.367188
1919.191406	41080.027344
1918.208008	41408.742188
1917.223633	40900.167969
1916.240234	41063.367188
1915.255859	41031.480469
1914.271484	40928.027344
1913.286133	41179.968750
1912.301758	40755.765625
1911.316406	41592.308594
1910.331055	41264.371094
1909.345703	40813.242188
1908.360352	41274.554688
1907.375000	41030.656250
1906.388672	41001.277344
1905.402344	41196.164063
1904.416016	41430.398438
1903.429688	41388.640625
1902.443359	40940.500000
1901.457031	41157.414063
1900.469727	41317.621094
1899.482422	41455.613281
1898.495117	41428.648438
1897.507813	41300.796875
1896.520508	41928.343750
1895.532227	41355.183594
1894.543945	41443.847656
1893.556641	41330.832031
1892.568359	41441.597656
1891.579102	41426.949219
1890.590820	41970.234375
1889.601563	42012.015625
1888.613281	41564.839844
1887.624023	41444.542969
1886.634766	41766.386719
1885.644531	41746.773438
1884.655273	41557.753906
1883.665039	41403.167969
1882.674805	41945.683594
1881.684570	41768.992188
1880.694336	41300.394531
1879.704102	41629.214844
1878.712891	41646.429688
1877.722656	41594.976563
1876.731445	41965.246094
1875.740234	41531.335938
1874.748047	41519.136719
1873.756836	42065.660156
1872.764648	41997.019531
1871.773438	41502.156250
1870.781250	41595.285156
1869.788086	42028.757813
1868.795898	41960.164063
1867.803711	41979.718750
1866.810547	41744.722656
1865.817383	41962.515625
1864.824219	41683.562500
1863.831055	42243.757813
1862.837891	42155.621094
1861.843750	41864.550781
1860.849609	41840.074219
1859.855469	42380.289063
1858.861328	42460.824219
1857.867188	42255.421875
1856.872070	42101.402344
1855.877930	42286.976563
1854.882813	42208.710938
1853.887695	42262.339844
1852.892578	41874.031250
1851.896484	42083.921875
1850.901367	42293.738281
1849.905273	42357.062500
1848.909180	42398.410156
1847.913086	42337.285156
1846.916992	42242.035156
1845.919922	42495.523438
1844.923828	42795.242188
1843.926758	42600.011719
1842.929688	42897.167969
1841.932617	42295.046875
1840.935547	42326.585938
1839.937500	42779.523438
1838.939453	42796.351563
1837.942383	42518.527344
1836.943359	42401.484375
1835.945313	42829.742188
1834.947266	43004.734375
1833.948242	42641.898438
1832.949219	43551.597656
1831.951172	43203.382813
1830.951172	43047.421875
1829.952148	43248.960938
1828.953125	43173.273438
1827.953125	43727.179688
1826.953125	43272.296875
1825.953125	42873.457031
1824.953125	43402.824219
1823.952148	43064.828125
1822.952148	43042.671875
1821.951172	43676.132813
1820.950195	43284.851563
1819.949219	43672.882813
1818.948242	43165.246094
1817.946289	43516.761719
1816.945313	43630.398438
1815.943359	43501.425781
1814.941406	43464.660156
1813.939453	44026.824219
1812.936523	43812.996094
1811.934570	43519.250000
1810.931641	43506.734375
1809.928711	43627.488281
1808.925781	44506.488281
1807.921875	44094.128906
1806.918945	44115.417969
1805.915039	44156.070313
1804.912109	43973.976563
1803.908203	43818.570313
1802.903320	44132.718750
1801.899414	44562.894531
1800.894531	44663.902344
1799.890625	44721.332031
1798.885742	44399.058594
1797.880859	44333.195313
1796.875000	44373.726563
1795.870117	44692.207031
1794.864258	44406.406250
1793.858398	44787.589844
1792.852539	44878.738281
1791.846680	44967.437500
1790.840820	44853.242188
1789.833984	44741.503906
1788.828125	44958.125000
1787.821289	44964.671875
1786.814453	45207.718750
1785.806641	45250.410156
1784.799805	45073.554688
1783.791992	45227.203125
1782.784180	45580.953125
1781.776367	45616.308594
1780.768555	45907.183594
1779.760742	45330.253906
1778.751953	45794.582031
1777.743164	45740.718750
1776.735352	45848.277344
1775.725586	45806.460938
1774.716797	45591.269531
1773.708008	45978.085938
1772.698242	46083.113281
1771.688477	46127.925781
1770.678711	46389.300781
1769.668945	46397.949219
1768.659180	46608.664063
1767.648438	46610.054688
1766.637695	46455.128906
1765.626953	46470.964844
1764.616211	46756.031250
1763.605469	47089.066406
1762.593750	47152.839844
1761.583008	47471.265625
1760.571289	47160.199219
1759.559570	47283.964844
1758.547852	47549.363281
1757.535156	47653.804688
1756.523438	48209.500000
1755.510742	47977.773438
1754.498047	47662.132813
1753.485352	47809.660156
1752.472656	48415.304688
1751.458984	48003.816406
1750.445313	48263.902344
1749.432617	48569.445313
1748.417969	48548.871094
1747.404297	48645.742188
1746.390625	49173.906250
1745.375977	48899.269531
1744.361328	49077.464844
1743.346680	49576.527344
1742.332031	49392.953125
1741.317383	49590.113281
1740.302734	49880.558594
1739.287109	50024.906250
1738.271484	50765.027344
1737.255859	50246.453125
1736.240234	50902.550781
1735.223633	50764.394531
1734.208008	51166.699219
1733.191406	51700.347656
1732.174805	51822.667969
1731.158203	52133.746094
1730.140625	52313.289063
1729.124023	52755.566406
1728.106445	52875.214844
1727.088867	53161.996094
1726.071289	53515.535156
1725.053711	53787.769531
1724.035156	54425.113281
1723.017578	54570.605469
1721.999023	54599.121094
1720.980469	54868.578125
1719.961914	54894.640625
1718.942383	55118.636719
1717.923828	55488.000000
1716.904297	55361.355469
1715.884766	55725.773438
1714.865234	55413.242188
1713.844727	55639.316406
1712.825195	55772.398438
1711.804688	55633.898438
1710.784180	55128.695313
1709.763672	55873.722656
1708.743164	55894.769531
1707.722656	55727.773438
1706.701172	55537.035156
1705.679688	55172.667969
1704.658203	55403.164063
1703.636719	55134.085938
1702.615234	55022.054688
1701.592773	54574.812500
1700.571289	54798.109375
1699.548828	54745.613281
1698.526367	55249.210938
1697.502930	54742.835938
1696.480469	54866.164063
1695.457031	54383.781250
1694.433594	54414.507813
1693.410156	55299.972656
1692.386719	54578.000000
1691.363281	54561.203125
1690.338867	54798.320313
1689.314453	54679.460938
1688.290039	54430.171875
1687.265625	54681.414063
1686.241211	54840.082031
1685.215820	54707.062500
1684.191406	54566.980469
1683.166016	54844.082031
1682.140625	54739.562500
1681.115234	54978.621094
1680.088867	54904.910156
1679.062500	55120.164063
1678.037109	55231.152344
1677.010742	55152.691406
1675.983398	55779.667969
1674.957031	55559.125000
1673.930664	55859.253906
1672.903320	55560.699219
1671.875977	55666.742188
1670.848633	55980.875000
1669.820313	55947.289063
1668.792969	56341.636719
1667.764648	56066.886719
1666.736328	56212.914063
1665.708008	56273.824219
1664.679688	56518.984375
1663.651367	56430.996094
1662.622070	56756.335938
1661.592773	56536.101563
1660.563477	56759.785156
1659.534180	56839.398438
1658.504883	57291.867188
1657.474609	57149.550781
1656.444336	57318.695313
1655.415039	57398.144531
1654.383789	57784.148438
1653.353516	57274.000000
1652.323242	57676.386719
1651.291992	57845.277344
1650.260742	58087.160156
1649.229492	57914.253906
1648.198242	58346.859375
1647.166016	58649.757813
1646.134766	58797.117188
1645.102539	58475.859375
1644.070313	58957.484375
1643.038086	59497.777344
1642.004883	59781.363281
1640.972656	59187.214844
1639.939453	59454.285156
1638.906250	59805.929688
1637.873047	59931.691406
1636.839844	60407.734375
1635.805664	60436.957031
1634.772461	60468.515625
1633.738281	60817.304688
1632.704102	61252.902344
1631.668945	60889.636719
1630.634766	61372.035156
1629.599609	61948.191406
1628.565430	62176.656250
1627.530273	62433.203125
1626.494141	62940.792969
1625.458984	63394.222656
1624.422852	63758.335938
1623.387695	63883.046875
1622.351563	64859.082031
1621.315430	66144.304688
1620.278320	67234.460938
1619.242188	69154.054688
1618.205078	70449.531250
1617.167969	72299.906250
1616.130859	74585.398438
1615.093750	77076.203125
1614.055664	79292.101563
1613.018555	80776.625000
1611.980469	82660.960938
1610.942383	83287.617188
1609.904297	83907.023438
1608.865234	82825.062500
1607.827148	81680.312500
1606.788086	79829.554688
1605.749023	77217.031250
1604.709961	75819.007813
1603.669922	73289.953125
1602.630859	72054.406250
1601.590820	70529.500000
1600.550781	68743.437500
1599.510742	68616.718750
1598.470703	67226.375000
1597.429688	66812.710938
1596.389648	66116.664063
1595.348633	65731.351563
1594.307617	65362.515625
1593.265625	65084.820313
1592.224609	64811.890625
1591.182617	64205.453125
1590.140625	64459.910156
1589.098633	64247.859375
1588.056641	63714.121094
1587.014648	64029.132813
1585.971680	63952.453125
1584.928711	63847.832031
1583.886719	64113.710938
1582.842773	63501.253906
1581.799805	63965.074219
1580.755859	64025.855469
1579.712891	64505.707031
1578.668945	63518.816406
1577.625000	63786.781250
1576.580078	63968.546875
1575.536133	64236.332031
1574.491211	64727.339844
1573.446289	64743.699219
1572.401367	64629.828125
1571.356445	64769.421875
1570.311523	65236.722656
1569.265625	65067.039063
1568.219727	64569.765625
1567.173828	64514.097656
1566.127930	64558.332031
1565.082031	64864.988281
1564.035156	64586.371094
1562.988281	64045.500000
1561.941406	63876.222656
1560.894531	64027.273438
1559.847656	64134.183594
1558.799805	63902.332031
1557.751953	64023.136719
1556.704102	64477.859375
1555.656250	64596.195313
1554.608398	64786.355469
1553.560547	64566.167969
1552.511719	63968.304688
1551.462891	64406.394531
1550.414063	64714.593750
1549.365234	64626.597656
1548.315430	64909.164063
1547.265625	64575.718750
1546.216797	64434.539063
1545.166992	64629.027344
1544.116211	65112.722656
1543.066406	64950.687500
1542.015625	64744.753906
1540.965820	64395.488281
1539.915039	64423.292969
1538.863281	64217.558594
1537.812500	64515.851563
1536.760742	64381.816406
1535.709961	64441.945313
1534.658203	63947.531250
1533.605469	63986.921875
1532.553711	63268.722656
1531.501953	63564.539063
1530.449219	63029.066406
1529.396484	62542.257813
1528.343750	62397.207031
1527.290039	62824.492188
1526.237305	62254.914063
1525.183594	61950.816406
1524.129883	61872.851563
1523.076172	62189.226563
1522.022461	62332.574219
1520.968750	62468.949219
1519.914063	62224.996094
1518.859375	62043.343750
1517.804688	62082.925781
1516.750000	61945.125000
1515.694336	62134.406250
1514.639648	61939.074219
1513.583984	61601.070313
1512.528320	61847.847656
1511.472656	61986.371094
1510.416016	61761.281250
1509.360352	62316.171875
1508.303711	62585.636719
1507.247070	62050.082031
1506.190430	61999.882813
1505.132813	62214.078125
1504.076172	61750.125000
1503.018555	62200.992188
1501.960938	62088.753906
1500.903320	62307.363281
1499.844727	61960.855469
1498.787109	61919.906250
1497.728516	62067.242188
1496.669922	61773.757813
1495.611328	61448.242188
1494.552734	61480.835938
1493.493164	61208.253906
1492.434570	62011.660156
1491.375000	61539.535156
1490.315430	60774.050781
1489.254883	61139.175781
1488.195313	61309.312500
1487.134766	60716.167969
1486.074219	61250.675781
1485.013672	60506.531250
1483.953125	60310.136719
1482.892578	61119.257813
1481.831055	61103.718750
1480.769531	60953.105469
1479.708008	60749.894531
1478.646484	60734.425781
1477.583984	60588.527344
1476.522461	61339.515625
1475.459961	61371.976563
1474.397461	60841.812500
1473.334961	61313.378906
1472.271484	61652.171875
1471.208984	60838.796875
1470.145508	61202.687500
1469.082031	61648.703125
1468.018555	61429.746094
1466.954102	61430.144531
1465.890625	61866.738281
1464.826172	62319.156250
1463.761719	62433.531250
1462.697266	61933.871094
1461.631836	62182.914063
1460.567383	62297.250000
1459.501953	62899.734375
1458.436523	62820.015625
1457.371094	62635.425781
1456.305664	62827.105469
1455.239258	62865.980469
1454.172852	62943.582031
1453.107422	63009.761719
1452.040039	63577.167969
1450.973633	63016.750000
1449.907227	62600.019531
1448.839844	62946.296875
1447.772461	63233.253906
1446.705078	63155.878906
1445.637695	63160.468750
1444.569336	63324.339844
1443.500977	63656.515625
1442.432617	64063.632813
1441.364258	64213.601563
1440.295898	64390.796875
1439.227539	64281.468750
1438.158203	64972.308594
1437.088867	65035.632813
1436.019531	65678.367188
1434.950195	65818.781250
1433.879883	65793.320313
1432.810547	65979.078125
1431.740234	66353.226563
1430.669922	66724.976563
1429.598633	66694.820313
1428.528320	67000.554688
1427.457031	67201.796875
1426.386719	67539.078125
1425.314453	67130.000000
1424.243164	67430.882813
1423.171875	67402.890625
1422.099609	67592.531250
1421.027344	67476.109375
1419.955078	67169.367188
1418.882813	67311.359375
1417.810547	67158.796875
1416.737305	67026.679688
1415.664063	66588.882813
1414.590820	67097.656250
1413.517578	66972.398438
1412.444336	66340.195313
1411.370117	66683.539063
1410.295898	67044.851563
1409.221680	66170.929688
1408.147461	66249.484375
1407.073242	65950.382813
1405.998047	66413.296875
1404.922852	66071.312500
1403.847656	66484.304688
1402.772461	66174.062500
1401.697266	66675.000000
1400.621094	66945.351563
1399.544922	66861.031250
1398.468750	67205.757813
1397.392578	67399.101563
1396.316406	67605.914063
1395.239258	68264.015625
1394.162109	68154.695313
1393.084961	68911.710938
1392.007813	69447.406250
1390.930664	70497.093750
1389.852539	70770.750000
1388.774414	71129.968750
1387.696289	72124.679688
1386.618164	72039.570313
1385.540039	72089.679688
1384.460938	72588.062500
1383.382813	73131.312500
1382.303711	73248.742188
1381.223633	72954.101563
1380.144531	73839.148438
1379.064453	73675.046875
1377.985352	73963.304688
1376.905273	73524.742188
1375.825195	73410.257813
1374.744141	73367.789063
1373.664063	73122.945313
1372.583008	72495.976563
1371.501953	72851.554688
1370.420898	72110.242188
1369.338867	71915.218750
1368.257813	71837.101563
1367.175781	71759.000000
1366.093750	71948.187500
1365.011719	71304.234375
1363.929688	71565.273438
1362.846680	71384.007813
1361.763672	71490.078125
1360.680664	71454.742188
1359.597656	71551.773438
1358.514648	71229.328125
1357.430664	70653.578125
1356.346680	70858.328125
1355.262695	70403.898438
1354.178711	69837.570313
1353.094727	69567.250000
1352.009766	69301.507813
1350.925781	68547.492188
1349.840820	68651.585938
1348.755859	68151.007813
1347.669922	67661.804688
1346.584961	67515.273438
1345.499023	67977.578125
1344.413086	67399.148438
1343.327148	67433.960938
1342.240234	67054.921875
1341.154297	66633.523438
1340.067383	66715.406250
1338.980469	67096.851563
1337.893555	67420.031250
1336.805664	66963.101563
1335.718750	67491.757813
1334.630859	67776.703125
1333.542969	67302.078125
1332.455078	67696.382813
1331.367188	67659.585938
1330.278320	67281.226563
1329.189453	67818.171875
1328.100586	68162.984375
1327.011719	68146.203125
1325.922852	68211.968750
1324.833008	68344.617188
1323.743164	68633.328125
1322.653320	69372.328125
1321.563477	69778.890625
1320.473633	70287.835938
1319.382813	70428.890625
1318.291992	71249.453125
1317.201172	72071.953125
1316.110352	72889.687500
1315.019531	73513.390625
1313.927734	73462.242188
1312.835938	73969.859375
1311.744141	73992.085938
1310.652344	74448.234375
1309.560547	73856.304688
1308.467773	72935.367188
1307.375000	72777.609375
1306.282227	73049.062500
1305.189453	71888.656250
1304.095703	71724.492188
1303.002930	71353.703125
1301.909180	71056.367188
1300.815430	71096.828125
1299.721680	71012.875000
1298.626953	70373.750000
1297.533203	70329.921875
1296.438477	71029.820313
1295.343750	70628.531250
1294.248047	71059.585938
1293.153320	71548.171875
1292.057617	71206.890625
1290.961914	71888.242188
1289.866211	71926.226563
1288.770508	72270.171875
1287.674805	71944.515625
1286.578125	72124.312500
1285.481445	72202.101563
1284.384766	72013.992188
1283.288086	71861.390625
1282.190430	72348.914063
1281.092773	71968.218750
1279.996094	71352.968750
1278.897461	71554.757813
1277.799805	71074.804688
1276.702148	70931.375000
1275.603516	71327.812500
1274.504883	70558.382813
1273.406250	70224.914063
1272.307617	70311.687500
1271.208008	69801.515625
1270.108398	69826.437500
1269.008789	69522.062500
1267.909180	69586.789063
1266.809570	69068.265625
1265.708984	68921.007813
1264.609375	68208.453125
1263.508789	68604.562500
1262.407227	68649.515625
1261.306641	67974.906250
1260.206055	67649.218750
1259.104492	67850.968750
1258.002930	67459.226563
1256.901367	67541.828125
1255.798828	67130.437500
1254.697266	66941.875000
1253.594727	66801.875000
1252.492188	66796.367188
1251.389648	66953.921875
1250.286133	66038.468750
1249.183594	66420.781250
1248.080078	66393.312500
1246.976563	66346.031250
1245.872070	66356.000000
1244.768555	66172.265625
1243.664063	66430.953125
1242.560547	66636.726563
1241.455078	65762.234375
1240.350586	66715.914063
1239.246094	66675.210938
1238.140625	66188.164063
1237.035156	66576.257813
1235.929688	66333.375000
1234.824219	66261.992188
1233.717773	66485.062500
1232.612305	66110.507813
1231.505859	66386.234375
1230.399414	65796.625000
1229.291992	65615.609375
1228.185547	66038.335938
1227.078125	66487.250000
1225.970703	65713.710938
1224.863281	65567.937500
1223.755859	65937.710938
1222.647461	65605.515625
1221.539063	65714.195313
1220.430664	65899.570313
1219.322266	65499.609375
1218.213867	65627.968750
1217.104492	64960.863281
1215.995117	65417.886719
1214.885742	65062.097656
1213.776367	65352.492188
1212.666992	65570.523438
1211.556641	64995.968750
1210.446289	65371.570313
1209.335938	65887.093750
1208.225586	65496.582031
1207.115234	65370.914063
1206.003906	65877.398438
1204.892578	66353.078125
1203.781250	65934.335938
1202.669922	66291.781250
1201.557617	66255.679688
1200.446289	66387.851563
1199.333984	66380.140625
1198.221680	66890.148438
1197.108398	66995.914063
1195.996094	66972.804688
1194.882813	67342.687500
1193.769531	66998.632813
1192.656250	67505.867188
1191.542969	67447.750000
1190.428711	67387.476563
1189.314453	67403.570313
1188.200195	67657.367188
1187.085938	67381.210938
1185.971680	67242.492188
1184.856445	66846.625000
1183.741211	66457.437500
1182.625977	66715.515625
1181.510742	66444.125000
1180.395508	66730.421875
1179.279297	66766.179688
1178.163086	66534.109375
1177.046875	66404.437500
1175.930664	66847.226563
1174.813477	66510.812500
1173.697266	67081.781250
1172.580078	66958.617188
1171.462891	66046.000000
1170.344727	66249.242188
1169.227539	65708.851563
1168.109375	65933.820313
1166.991211	65619.703125
1165.873047	65568.632813
1164.754883	65704.414063
1163.635742	65251.488281
1162.516602	65374.242188
1161.397461	65249.414063
1160.278320	65185.414063
1159.159180	65169.187500
1158.039063	64881.691406
1156.918945	65392.777344
1155.798828	65274.550781
1154.678711	64746.425781
1153.558594	65161.832031
1152.437500	65108.750000
1151.316406	64871.421875
1150.195313	65457.792969
1149.074219	65708.054688
1147.952148	65615.906250
1146.831055	65740.406250
1145.708984	65925.500000
1144.586914	66539.281250
1143.463867	67042.414063
1142.341797	67012.859375
1141.218750	67526.546875
1140.095703	67940.500000
1138.972656	67908.625000
1137.849609	68021.687500
1136.725586	67860.046875
1135.601563	68329.843750
1134.477539	68049.296875
1133.353516	68125.492188
1132.229492	67842.914063
1131.104492	67623.101563
1129.979492	67941.281250
1128.854492	67468.812500
1127.729492	67525.593750
1126.603516	67707.578125
1125.478516	68003.906250
1124.352539	67846.882813
1123.226563	68030.859375
1122.099609	67929.968750
1120.973633	67501.234375
1119.846680	67497.523438
1118.719727	67185.460938
1117.592773	67149.468750
1116.465820	67221.257813
1115.337891	66874.921875
1114.209961	66679.546875
1113.082031	66652.281250
1111.954102	66340.687500
1110.826172	66440.554688
1109.697266	66439.171875
1108.568359	66056.742188
1107.439453	66184.570313
1106.310547	65830.296875
1105.180664	66323.890625
1104.051758	65851.398438
1102.921875	66308.242188
1101.791992	66463.851563
1100.661133	66225.937500
1099.531250	66136.437500
1098.400391	66715.390625
1097.269531	66301.343750
1096.138672	66553.476563
1095.006836	66335.085938
1093.875977	66731.007813
1092.744141	65621.531250
1091.612305	65566.585938
1090.480469	65681.234375
1089.347656	65312.953125
1088.215820	65659.335938
1087.083008	65471.402344
1085.950195	65358.605469
1084.816406	65320.910156
1083.683594	65188.878906
1082.549805	65123.351563
1081.416016	64931.382813
1080.282227	65478.812500
1079.148438	65280.417969
1078.013672	65568.375000
1076.878906	64948.093750
1075.744141	65602.179688
1074.609375	65776.429688
1073.474609	65075.101563
1072.338867	65564.000000
1071.203125	65686.796875
1070.067383	64998.695313
1068.931641	65560.054688
1067.794922	64718.242188
1066.659180	64875.308594
1065.522461	65075.070313
1064.385742	64723.285156
1063.248047	65173.039063
1062.111328	65015.796875
1060.973633	65377.738281
1059.835938	64925.753906
1058.698242	64841.246094
1057.559570	65149.628906
1056.421875	64845.226563
1055.283203	65115.074219
1054.144531	64964.425781
1053.005859	64958.914063
1051.866211	64855.277344
1050.726563	65417.105469
1049.587891	65432.832031
1048.447266	65670.273438
1047.307617	65349.144531
1046.167969	65004.687500
1045.027344	65252.726563
1043.886719	65541.148438
1042.746094	65776.210938
1041.604492	65500.066406
1040.463867	65424.167969
1039.322266	65882.648438
1038.180664	65519.359375
1037.038086	65188.117188
1035.896484	65161.261719
1034.753906	65462.019531
1033.611328	65273.468750
1032.468750	64948.882813
1031.326172	65423.851563
1030.182617	64774.113281
1029.040039	65015.140625
1027.896484	65098.828125
1026.751953	65377.945313
1025.608398	64732.925781
1024.463867	65116.070313
1023.319336	65335.562500
1022.174805	65633.523438
1021.030273	65131.140625
1019.885742	65114.933594
1018.740234	65389.425781
1017.594727	65351.957031
1016.449219	65815.070313
1015.303711	65117.996094
1014.157227	65290.500000
1013.010742	64744.285156
1011.864258	64677.281250
1010.717773	65125.246094
1009.571289	65448.039063
1008.423828	65063.179688
1007.276367	65072.402344
1006.128906	65433.136719
1004.981445	65213.621094
1003.833008	65146.597656
1002.684570	66144.148438
1001.536133	66085.437500
1000.387695	66297.539063
999.239258	66429.187500
998.089844	66628.453125
996.941406	66153.132813
995.791992	66720.226563
994.641602	65687.046875
993.492188	66435.750000
992.341797	66294.640625
991.191406	65881.070313
990.041016	65676.742188
988.890625	66127.132813
987.739258	66003.062500
986.588867	66134.468750
985.437500	66139.179688
984.285156	66323.257813
983.133789	66264.632813
981.981445	66315.726563
980.829102	66269.773438
979.676758	65863.257813
978.524414	66123.101563
977.372070	66330.148438
976.218750	66197.804688
975.065430	66250.937500
973.912109	66459.945313
972.757813	66896.351563
971.604492	66454.421875
970.450195	66505.351563
969.295898	66661.515625
968.141602	66950.218750
966.986328	66984.187500
965.832031	66357.484375
964.676758	66467.265625
963.521484	66814.671875
962.365234	66655.164063
961.209961	67094.906250
960.053711	66937.500000
958.897461	67147.945313
957.741211	66914.937500
956.584961	67261.859375
955.427734	67394.390625
954.270508	67234.960938
953.113281	67044.093750
951.956055	66769.320313
950.797852	66992.093750
949.639648	67097.257813
948.481445	67007.257813
947.323242	66860.648438
946.165039	66527.414063
945.005859	66615.804688
943.847656	66867.695313
942.687500	66257.929688
941.528320	66972.976563
940.369141	66912.421875
939.208984	66692.671875
938.048828	66452.046875
936.888672	66959.171875
935.728516	66749.992188
934.567383	66662.312500
933.406250	67246.554688
932.245117	66788.390625
931.083984	67376.578125
929.922852	67207.242188
928.760742	66906.195313
927.598633	67929.000000
926.436523	68021.007813
925.274414	67604.992188
924.111328	68625.000000
922.948242	68413.812500
921.785156	67906.023438
920.622070	68371.843750
919.458984	68102.328125
918.294922	68845.656250
917.130859	68895.570313
915.966797	69193.867188
914.802734	69984.570313
913.637695	69948.695313
912.472656	70307.117188
911.307617	69822.734375
910.142578	70456.320313
908.977539	71296.085938
907.811523	71039.007813
906.645508	71517.765625
905.479492	71273.242188
904.313477	70924.625000
903.146484	70982.343750
901.980469	71135.843750
900.813477	70058.617188
899.646484	69477.289063
898.478516	70255.445313
897.311523	69919.875000
896.143555	69178.664063
894.975586	69351.031250
893.806641	69319.484375
892.638672	69077.906250
891.469727	69807.429688
890.300781	69152.148438
889.131836	69014.648438
887.962891	69220.085938
886.792969	69454.531250
885.623047	69663.960938
884.453125	69892.000000
883.283203	69509.437500
882.112305	70021.859375
880.942383	69855.289063
879.771484	70220.093750
878.600586	70518.351563
877.428711	71084.132813
876.257813	70666.492188
875.085938	70640.968750
873.914063	70797.921875
872.741211	71659.679688
871.569336	71855.757813
870.396484	70613.546875
869.223633	71389.898438
868.050781	71459.546875
866.877930	71814.984375
865.704102	72240.703125
864.530273	72546.171875
863.356445	73004.710938
862.182617	73599.671875
861.007813	74012.312500
859.833984	74548.937500
858.659180	74131.765625
857.484375	74506.843750
856.308594	74205.617188
855.133789	73668.820313
853.958008	73204.570313
852.782227	73480.328125
851.605469	73297.281250
850.429688	73225.851563
849.252930	72999.539063
848.076172	73176.000000
846.899414	73344.125000
845.722656	73830.093750
844.544922	73634.781250
843.367188	74760.210938
842.189453	75018.687500
841.011719	75549.351563
839.833008	75838.515625
838.655273	77261.671875
837.476563	77727.703125
836.296875	78142.031250
835.118164	78686.031250
833.938477	78158.375000
832.758789	78242.765625
831.579102	78005.796875
830.399414	76846.335938
829.219727	76136.148438
828.039063	75352.117188
826.858398	74247.289063
825.677734	73502.992188
824.496094	72872.117188
823.315430	72305.250000
822.133789	71528.804688
820.952148	71540.203125
819.769531	70990.335938
818.587891	71293.703125
817.405273	70686.539063
816.222656	70488.484375
815.040039	70656.179688
813.856445	69967.296875
812.673828	70239.757813
811.490234	70452.570313
810.305664	69714.828125
809.122070	69749.085938
807.938477	69982.382813
806.753906	69661.625000
805.569336	70264.085938
804.383789	70312.554688
803.199219	70178.515625
802.013672	70181.875000
800.828125	69717.875000
799.642578	69278.640625
798.457031	69357.976563
797.270508	69256.992188
796.083984	68488.304688
794.897461	68573.875000
793.710938	68014.445313
792.523438	68278.164063
791.336914	68036.234375
790.149414	67591.796875
788.961914	67255.960938
787.773438	67918.507813
786.585938	67502.968750
785.397461	66846.289063
784.208984	67040.351563
783.019531	67307.921875
781.831055	66933.664063
780.641602	66935.515625
779.452148	66622.750000
778.262695	66798.273438
777.072266	66020.023438
775.882813	66724.414063
774.692383	66456.820313
773.501953	66654.687500
772.310547	66301.492188
771.120117	66491.140625
769.928711	66113.617188
768.737305	66843.703125
767.544922	66959.726563
766.353516	66433.492188
765.161133	66602.546875
763.968750	67609.156250
762.776367	67557.851563
761.583984	67463.781250
760.390625	68139.679688
759.197266	68552.625000
758.003906	68745.500000
756.810547	69038.062500
755.616211	68951.929688
754.421875	69398.992188
753.227539	69221.390625
752.033203	69043.789063
750.838867	68866.187500
749.643555	68688.445313
748.448242	68671.585938
747.252930	68134.351563
746.057617	67286.367188
744.861328	67680.218750
743.665039	67391.304688
742.468750	67098.445313
741.272461	66527.460938
740.075195	66614.554688
738.878906	66630.554688
737.681641	66551.156250
736.484375	66153.179688
735.286133	66167.218750
734.087891	66002.742188
732.890625	66256.125000
731.691406	66349.210938
730.493164	65929.328125
729.294922	65998.109375
728.095703	65809.484375
726.896484	65513.527344
725.696289	65764.671875
724.497070	65483.011719
723.296875	65908.226563
722.096680	65164.988281
720.896484	65154.851563
719.696289	65640.601563
718.495117	65328.851563
717.293945	65067.800781
716.092773	64750.203125
714.891602	65403.515625
713.689453	65340.753906
712.487305	65296.210938
711.285156	65322.425781
710.083008	65482.011719
708.880859	65522.324219
707.677734	65174.730469
706.474609	65497.855469
705.271484	65404.843750
704.068359	65402.722656
702.864258	65136.148438
701.660156	65321.781250
700.456055	65198.589844
699.251953	64494.378906
698.046875	64924.097656
696.841797	64857.515625
695.636719	64776.835938
694.431641	65202.222656
693.226563	65460.144531
692.020508	65361.250000
690.814453	65268.437500
689.608398	64643.804688
688.402344	64603.523438
687.195313	64901.578125
685.988281	64748.503906
684.781250	64496.843750
683.574219	65106.707031
682.366211	64466.691406
681.158203	65080.347656
679.950195	64993.750000
678.742188	65086.179688
677.534180	65190.632813
676.325195	64870.843750
675.116211	64900.921875
673.907227	65206.312500
672.697266	65145.890625
671.488281	64981.023438
670.278320	65527.246094
669.068359	64534.988281
667.858398	64787.945313
666.647461	64649.351563
665.436523	64245.878906
664.225586	64502.750000
663.014648	64595.003906
661.802734	64641.085938
660.591797	64274.003906
659.379883	64352.203125
658.167969	64578.726563
656.955078	64630.777344
655.743164	64340.113281
654.530273	64636.632813
653.317383	64770.769531
652.103516	64698.550781
650.890625	64412.085938
649.676758	64596.234375
648.462891	64934.449219
647.249023	64515.996094
646.034180	64712.019531
644.819336	65398.132813
643.604492	65593.914063
642.389648	65649.617188
641.174805	65585.328125
639.958984	65674.992188
638.743164	65494.789063
637.527344	65258.687500
636.311523	65594.117188
635.094727	65258.199219
633.877930	65423.726563
632.661133	65141.875000
631.444336	64394.929688
630.226563	64289.035156
629.008789	64506.500000
627.791016	64089.332031
626.573242	63909.726563
625.355469	63947.609375
624.136719	64101.144531
622.917969	63784.046875
621.699219	63969.445313
620.480469	64517.531250
619.260742	63997.261719
618.041016	63933.449219
616.821289	63776.035156
615.601563	64323.734375
614.380859	63636.605469
613.160156	63827.742188
611.939453	63694.335938
610.718750	63521.175781
609.497070	63475.425781
608.276367	63409.796875
607.054688	63674.375000
605.832031	63391.957031
604.610352	63710.121094
603.387695	63252.855469
602.165039	63248.929688
600.942383	63680.199219
599.719727	63562.937500
598.496094	63753.621094
597.272461	63402.023438
596.048828	63280.902344
594.825195	63346.441406
593.600586	63525.101563
592.375977	63445.691406
591.151367	63062.718750
589.926758	63231.402344
588.701172	63308.777344
587.476563	62989.496094
586.250977	62898.351563
585.024414	62922.210938
583.798828	62878.675781
582.572266	63487.101563
581.345703	62979.855469
580.119141	63065.078125
578.892578	63508.738281
577.665039	63223.539063
576.437500	63015.656250
575.209961	63221.539063
573.982422	63352.140625
572.753906	63148.296875
571.525391	63120.593750
570.296875	63126.523438
569.068359	63296.582031
567.838867	63591.132813
566.610352	62881.367188
565.380859	62861.632813
564.150391	63740.996094
562.920898	63152.109375
561.690430	63436.519531
560.459961	63693.171875
559.229492	62847.925781
557.999023	63161.835938
556.767578	63009.808594
555.536133	63138.062500
554.304688	63013.710938
553.073242	62911.105469
551.840820	62788.812500
550.608398	62958.410156
549.375977	63015.558594
548.143555	62353.195313
546.910156	62166.046875
545.676758	62664.691406
544.443359	62467.699219
543.209961	62550.480469
541.975586	62556.421875
540.742188	62843.921875
539.507813	62859.644531
538.272461	62944.246094
537.038086	62904.835938
535.802734	63097.601563
534.567383	62845.722656
533.332031	62725.707031
532.096680	63195.648438
530.860352	63087.402344
529.624023	63527.609375
528.387695	63220.843750
527.151367	63863.238281
525.914063	63417.039063
524.676758	63259.734375
523.439453	63440.257813
522.202148	63410.625000
520.963867	63074.761719
519.725586	63072.679688
518.487305	62811.570313
517.249023	63011.613281
516.009766	62391.640625
514.771484	62966.269531
513.532227	62589.679688
512.291992	62826.847656
511.052734	62599.386719
509.812500	62950.121094
508.572266	62993.105469
507.332031	62732.425781
506.090820	62904.695313
504.850586	63031.859375
503.609375	63049.332031
502.368164	62939.554688
501.125977	62870.914063
499.884766	63068.421875
498.642578	62855.003906
497.400391	62821.621094
496.157227	63410.144531
494.915039	63318.003906
493.671875	63241.535156
492.428711	63227.636719
491.184570	63416.972656
489.941406	63203.753906
488.697266	63254.324219
487.453125	63525.570313
486.208984	63322.203125
484.963867	63450.808594
483.718750	63093.324219
482.473633	63618.089844
481.228516	63639.238281
479.982422	63510.160156
478.737305	63677.601563
477.491211	63332.093750
476.244141	64072.726563
474.998047	63703.878906
473.750977	64058.250000
472.503906	64305.308594
471.256836	64293.152344
470.009766	64393.972656
468.761719	64634.976563
467.513672	64352.097656
466.265625	64813.000000
465.017578	64791.011719
463.768555	65481.285156
462.519531	65371.613281
461.270508	65913.664063
460.021484	65953.710938
458.771484	66351.546875
457.521484	66543.132813
456.271484	67043.718750
455.021484	67019.375000
453.770508	67243.750000
452.519531	66955.156250
451.268555	68203.093750
450.017578	68147.453125
448.765625	68592.789063
447.514648	69612.562500
446.262695	70333.054688
445.009766	70509.914063
443.757813	70603.273438
442.504883	70842.078125
441.251953	71191.335938
439.999023	70423.554688
438.745117	70175.632813
437.492188	68470.164063
436.238281	68143.242188
434.983398	66905.757813
433.729492	66513.382813
432.474609	65970.078125
431.219727	65457.960938
429.964844	64847.289063
428.709961	64736.277344
427.454102	64965.933594
426.198242	64214.433594
424.942383	64298.996094
423.685547	64002.464844
422.429688	63663.496094
421.172852	63806.117188
419.916016	63830.750000
418.658203	63586.707031
417.401367	62969.785156
416.143555	63485.308594
414.885742	63859.621094
413.626953	63409.085938
412.369141	63516.785156
411.110352	63736.414063
409.851563	64015.796875
408.591797	63341.691406
407.333008	63235.128906
406.073242	63460.421875
404.813477	63261.285156
403.553711	63328.347656
402.292969	63275.839844
401.032227	63281.183594
