#Wave		#Intensity
2001.182617	34539.527344
2000.212891	34085.851563
1999.243164	34325.496094
1998.273438	33835.917969
1997.303711	34055.476563
1996.333008	34397.691406
1995.363281	34434.257813
1994.392578	34340.613281
1993.421875	34419.730469
1992.451172	34368.667969
1991.479492	34632.941406
1990.508789	34676.937500
1989.537109	34710.906250
1988.566406	34852.417969
1987.594727	34853.832031
1986.622070	34450.187500
1985.650391	34721.660156
1984.677734	34583.121094
1983.706055	34384.652344
1982.733398	34371.148438
1981.760742	34080.351563
1980.788086	34643.882813
1979.814453	34850.101563
1978.841797	34616.796875
1977.868164	34700.621094
1976.894531	34806.875000
1975.920898	34795.800781
1974.947266	34502.777344
1973.972656	34993.195313
1972.999023	34652.847656
1972.024414	34719.109375
1971.049805	34466.195313
1970.075195	34562.378906
1969.099609	34950.156250
1968.125000	34649.980469
1967.149414	34918.003906
1966.173828	34817.230469
1965.198242	34985.496094
1964.222656	34688.007813
1963.247070	35070.367188
1962.270508	35076.683594
1961.294922	34906.273438
1960.318359	34842.929688
1959.341797	35045.839844
1958.364258	34912.835938
1957.387695	34643.074219
1956.410156	34743.949219
1955.433594	34901.976563
1954.456055	35052.484375
1953.478516	34872.363281
1952.500000	35047.675781
1951.522461	35287.527344
1950.543945	35055.285156
1949.565430	35006.925781
1948.586914	34936.230469
1947.608398	35118.820313
1946.629883	35293.898438
1945.650391	35248.007813
1944.671875	34953.964844
1943.692383	34575.664063
1942.712891	34929.324219
1941.733398	34898.406250
1940.752930	35289.082031
1939.773438	34826.679688
1938.792969	35219.707031
1937.812500	35181.316406
1936.832031	35437.843750
1935.851563	35278.015625
1934.870117	35212.382813
1933.888672	34921.375000
1932.908203	35425.406250
1931.926758	35587.570313
1930.945313	35467.460938
1929.962891	35523.125000
1928.981445	35266.957031
1927.999023	35287.996094
1927.016602	35331.289063
1926.034180	35317.679688
1925.051758	34970.218750
1924.069336	35053.105469
1923.085938	35840.503906
1922.102539	35320.117188
1921.119141	35425.132813
1920.135742	35636.355469
1919.152344	35615.285156
1918.168945	36051.160156
1917.184570	35466.980469
1916.200195	35902.726563
1915.215820	35602.664063
1914.231445	35539.652344
1913.247070	35728.375000
1912.261719	35657.960938
1911.276367	35666.511719
1910.291992	35712.050781
1909.306641	35944.996094
1908.320313	35383.929688
1907.334961	35806.664063
1906.348633	35864.468750
1905.363281	35929.640625
1904.376953	35984.937500
1903.390625	35764.304688
1902.403320	35866.402344
1901.416992	35569.527344
1900.429688	35858.746094
1899.443359	36273.406250
1898.456055	35902.773438
1897.467773	36029.359375
1896.480469	35976.289063
1895.493164	35719.054688
1894.504883	36086.640625
1893.516602	36163.917969
1892.528320	35874.820313
1891.540039	35674.320313
1890.550781	36007.238281
1889.562500	36003.375000
1888.573242	35920.890625
1887.583984	35855.625000
1886.594727	36519.847656
1885.605469	36083.695313
1884.615234	36460.375000
1883.625000	36235.496094
1882.635742	36182.500000
1881.645508	36303.750000
1880.654297	36432.320313
1879.664063	36143.816406
1878.673828	36076.148438
1877.682617	36148.285156
1876.691406	36597.968750
1875.700195	36807.261719
1874.708984	36707.660156
1873.716797	36061.628906
1872.725586	36390.953125
1871.733398	36769.152344
1870.741211	36961.078125
1869.749023	36575.023438
1868.755859	36362.933594
1867.763672	36973.421875
1866.770508	36638.957031
1865.777344	36847.859375
1864.784180	36542.894531
1863.791016	36600.074219
1862.797852	36547.171875
1861.803711	36782.835938
1860.809570	36683.460938
1859.815430	36677.011719
1858.821289	36958.960938
1857.827148	36810.734375
1856.832031	37129.207031
1855.837891	36653.667969
1854.842773	37040.437500
1853.847656	37224.390625
1852.852539	36966.375000
1851.856445	37230.828125
1850.861328	37004.625000
1849.865234	37278.738281
1848.869141	37352.691406
1847.873047	36872.890625
1846.876953	37390.765625
1845.879883	37371.996094
1844.883789	37265.460938
1843.886719	37290.593750
1842.889648	37237.726563
1841.892578	37394.433594
1840.895508	38016.425781
1839.897461	38116.917969
1838.899414	37625.550781
1837.901367	37565.355469
1836.903320	37758.382813
1835.905273	38065.746094
1834.907227	37679.378906
1833.908203	37748.179688
1832.909180	37977.523438
1831.910156	37588.941406
1830.911133	38046.843750
1829.912109	38003.667969
1828.912109	38116.105469
1827.913086	38260.101563
1826.913086	38112.402344
1825.913086	37896.718750
1824.913086	38096.550781
1823.912109	38442.050781
1822.912109	38534.855469
1821.911133	38654.332031
1820.910156	38159.542969
1819.909180	38427.109375
1818.908203	38182.503906
1817.906250	38597.984375
1816.904297	38360.707031
1815.903320	38436.417969
1814.900391	38473.300781
1813.898438	38628.980469
1812.896484	38944.609375
1811.893555	38263.898438
1810.891602	39151.421875
1809.888672	39098.480469
1808.885742	38301.812500
1807.881836	38752.855469
1806.878906	39106.871094
1805.875000	38727.089844
1804.871094	38417.644531
1803.867188	38635.976563
1802.863281	39072.039063
1801.859375	38832.863281
1800.854492	39186.480469
1799.849609	38872.382813
1798.844727	39366.128906
1797.839844	39347.093750
1796.834961	39306.308594
1795.830078	39144.683594
1794.824219	39415.695313
1793.818359	39179.199219
1792.812500	39474.265625
1791.806641	39271.652344
1790.799805	39759.789063
1789.793945	39945.937500
1788.787109	39533.320313
1787.780273	39408.074219
1786.773438	39545.914063
1785.766602	39828.476563
1784.758789	39635.691406
1783.751953	39332.023438
1782.744141	39829.093750
1781.736328	39662.929688
1780.728516	39581.195313
1779.719727	39988.777344
1778.711914	40244.390625
1777.703125	40237.285156
1776.694336	40085.640625
1775.685547	40189.355469
1774.676758	40148.546875
1773.666992	39874.199219
1772.657227	40124.738281
1771.648438	40071.921875
1770.638672	40676.082031
1769.627930	40538.972656
1768.618164	40404.316406
1767.607422	40659.339844
1766.597656	40515.089844
1765.586914	40933.496094
1764.576172	40798.859375
1763.564453	40712.335938
1762.553711	40955.058594
1761.541992	40846.910156
1760.530273	41750.125000
1759.518555	41310.429688
1758.506836	41262.304688
1757.495117	41528.718750
1756.482422	41274.128906
1755.469727	41878.851563
1754.457031	41691.472656
1753.444336	41691.300781
1752.431641	41844.652344
1751.417969	41947.578125
1750.405273	41937.765625
1749.391602	42093.382813
1748.377930	41903.757813
1747.364258	42013.785156
1746.349609	42226.812500
1745.335938	42135.492188
1744.321289	42216.667969
1743.306641	42463.070313
1742.291992	42357.382813
1741.276367	43171.082031
1740.261719	43060.515625
1739.246094	42978.707031
1738.230469	43583.675781
1737.214844	42884.550781
1736.199219	43537.160156
1735.182617	43440.968750
1734.166992	43780.000000
1733.150391	43829.632813
1732.133789	44032.222656
1731.117188	44648.195313
1730.099609	44991.546875
1729.083008	45107.816406
1728.065430	45085.500000
1727.047852	44960.496094
1726.030273	45227.132813
1725.012695	45348.046875
1723.994141	46146.804688
1722.976563	46212.617188
1721.958008	46381.003906
1720.939453	46723.488281
1719.920898	46481.460938
1718.901367	46907.269531
1717.882813	47101.636719
1716.863281	47074.222656
1715.843750	47390.050781
1714.824219	47395.953125
1713.803711	47537.671875
1712.784180	47531.632813
1711.763672	47735.199219
1710.743164	47967.269531
1709.722656	47765.906250
1708.702148	47307.507813
1707.681641	47910.835938
1706.660156	47588.214844
1705.638672	47384.675781
1704.617188	47295.394531
1703.595703	47137.167969
1702.574219	47430.832031
1701.551758	47289.273438
1700.529297	47192.933594
1699.507813	47450.773438
1698.484375	47211.851563
1697.461914	47550.371094
1696.439453	47123.843750
1695.416016	46930.230469
1694.392578	47090.511719
1693.369141	47345.710938
1692.345703	47154.527344
1691.322266	46692.835938
1690.297852	47114.074219
1689.273438	47442.625000
1688.249023	47348.812500
1687.224609	47506.437500
1686.200195	47073.539063
1685.174805	47515.664063
1684.150391	47362.636719
1683.125000	47659.972656
1682.099609	47582.796875
1681.073242	48007.925781
1680.047852	47783.843750
1679.021484	48059.574219
1677.995117	47740.839844
1676.968750	47980.960938
1675.942383	48232.832031
1674.916016	47904.761719
1673.888672	48078.464844
1672.862305	48346.738281
1671.834961	48378.367188
1670.806641	48471.476563
1669.779297	48401.390625
1668.751953	48314.781250
1667.723633	48750.589844
1666.695313	48782.113281
1665.666992	48997.929688
1664.638672	48819.125000
1663.609375	49110.445313
1662.581055	48974.191406
1661.551758	49090.640625
1660.522461	49034.703125
1659.493164	49325.765625
1658.462891	49000.765625
1657.433594	49251.613281
1656.403320	49405.644531
1655.373047	49418.097656
1654.342773	49472.992188
1653.312500	49579.738281
1652.281250	49445.980469
1651.250977	49571.546875
1650.219727	50201.390625
1649.188477	50058.164063
1648.156250	49790.125000
1647.125000	50407.812500
1646.092773	50177.484375
1645.060547	49984.910156
1644.028320	50489.226563
1642.996094	51419.382813
1641.963867	50066.507813
1640.930664	50758.765625
1639.898438	50912.058594
1638.865234	50790.105469
1637.832031	51124.414063
1636.797852	50736.777344
1635.764648	51400.078125
1634.730469	51334.527344
1633.696289	51370.046875
1632.662109	51718.039063
1631.627930	51720.585938
1630.592773	51798.285156
1629.558594	52324.480469
1628.523438	52625.089844
1627.488281	53000.707031
1626.453125	53681.304688
1625.416992	53655.324219
1624.381836	54290.980469
1623.345703	54417.375000
1622.309570	55094.878906
1621.273438	56194.234375
1620.237305	56770.363281
1619.200195	57817.449219
1618.163086	59454.773438
1617.125977	60512.722656
1616.088867	62078.691406
1615.051758	63088.945313
1614.014648	64726.496094
1612.976563	66304.921875
1611.938477	66852.656250
1610.900391	66882.890625
1609.862305	67591.804688
1608.823242	66950.328125
1607.785156	65885.617188
1606.746094	64783.859375
1605.707031	63539.828125
1604.667969	61842.617188
1603.628906	60742.160156
1602.588867	59611.703125
1601.548828	58640.566406
1600.508789	57415.085938
1599.468750	57003.027344
1598.428711	56074.914063
1597.387695	56268.097656
1596.347656	55627.632813
1595.306641	54578.855469
1594.265625	54720.847656
1593.224609	54258.355469
1592.182617	54395.679688
1591.140625	54392.984375
1590.099609	53713.875000
1589.057617	53932.835938
1588.014648	53412.597656
1586.972656	53468.347656
1585.929688	53279.343750
1584.887695	53083.414063
1583.844727	53225.394531
1582.800781	52647.496094
1581.757813	52859.375000
1580.714844	53071.171875
1579.670898	52935.980469
1578.626953	52884.632813
1577.583008	53038.121094
1576.538086	52984.445313
1575.494141	53475.218750
1574.449219	53128.378906
1573.404297	53528.238281
1572.359375	52997.800781
1571.314453	53051.117188
1570.269531	53304.324219
1569.223633	52936.894531
1568.177734	52941.390625
1567.131836	52818.097656
1566.085938	52727.371094
1565.040039	51552.074219
1563.993164	51566.089844
1562.946289	51236.500000
1561.899414	51303.953125
1560.852539	51492.062500
1559.805664	51188.175781
1558.757813	51573.433594
1557.709961	51654.687500
1556.662109	51462.250000
1555.614258	51643.195313
1554.566406	51571.378906
1553.517578	51719.785156
1552.469727	51657.246094
1551.420898	52037.289063
1550.372070	51610.992188
1549.322266	51944.578125
1548.273438	52229.410156
1547.223633	51775.515625
1546.173828	51858.867188
1545.124023	51701.464844
1544.074219	52148.121094
1543.024414	52034.683594
1541.973633	51558.082031
1540.922852	51493.355469
1539.872070	51576.656250
1538.821289	51227.550781
1537.770508	51648.375000
1536.718750	51870.273438
1535.666992	51241.679688
1534.615234	50964.503906
1533.563477	51528.289063
1532.511719	51551.410156
1531.458984	51283.554688
1530.407227	51238.703125
1529.354492	51193.808594
1528.300781	51148.875000
1527.248047	51103.980469
1526.195313	51059.089844
1525.141602	51014.156250
1524.087891	50969.218750
1523.034180	50924.285156
1521.980469	50502.488281
1520.925781	50544.164063
1519.871094	50276.992188
1518.817383	50648.207031
1517.762695	50745.121094
1516.707031	50328.328125
1515.652344	50897.386719
1514.596680	50639.589844
1513.541016	50411.816406
1512.485352	50695.125000
1511.429688	50667.636719
1510.374023	50663.167969
1509.317383	50861.152344
1508.260742	50382.812500
1507.204102	50573.871094
1506.147461	50882.125000
1505.090820	50539.667969
1504.033203	50886.886719
1502.975586	50716.910156
1501.917969	50910.023438
1500.860352	51084.687500
1499.802734	50457.679688
1498.744141	50946.972656
1497.686523	50634.769531
1496.627930	50967.746094
1495.569336	50529.410156
1494.509766	50837.042969
1493.451172	51341.878906
1492.391602	51316.621094
1491.332031	50942.746094
1490.272461	51417.476563
1489.212891	50649.359375
1488.152344	50995.597656
1487.092773	51123.972656
1486.032227	51142.308594
1484.971680	50883.410156
1483.910156	51048.382813
1482.849609	51123.972656
1481.788086	51346.082031
1480.726563	51712.351563
1479.665039	51497.062500
1478.603516	51492.406250
1477.541992	51247.484375
1476.479492	51233.718750
1475.416992	51089.574219
1474.354492	51103.281250
1473.291992	51407.378906
1472.229492	51437.023438
1471.166016	51308.937500
1470.102539	52001.339844
1469.039063	51649.269531
1467.975586	51621.726563
1466.912109	51678.703125
1465.847656	51443.343750
1464.783203	51762.910156
1463.718750	52029.851563
1462.654297	51796.832031
1461.589844	51965.539063
1460.524414	51613.960938
1459.458984	52236.609375
1458.393555	52211.265625
1457.328125	52434.500000
1456.262695	52495.769531
1455.196289	52078.289063
1454.130859	52661.539063
1453.064453	52818.437500
1451.998047	52729.207031
1450.930664	52469.160156
1449.864258	52667.000000
1448.796875	52787.339844
1447.729492	53073.839844
1446.662109	52902.683594
1445.594727	52993.324219
1444.526367	52842.722656
1443.458008	53572.648438
1442.390625	53647.191406
1441.321289	53860.433594
1440.252930	54348.746094
1439.184570	54145.730469
1438.115234	55006.597656
1437.045898	55376.250000
1435.976563	55036.820313
1434.907227	55738.023438
1433.836914	55925.625000
1432.767578	56478.792969
1431.697266	56863.730469
1430.626953	56544.757813
1429.555664	56890.957031
1428.485352	57468.507813
1427.414063	57324.304688
1426.342773	57726.882813
1425.271484	57804.964844
1424.200195	58225.449219
1423.128906	58416.773438
1422.056641	58635.234375
1420.984375	59121.066406
1419.912109	58457.781250
1418.839844	58653.449219
1417.767578	58950.984375
1416.694336	58847.515625
1415.621094	58596.890625
1414.547852	58464.085938
1413.474609	58218.140625
1412.400391	57994.914063
1411.327148	57717.457031
1410.252930	57591.683594
1409.178711	57137.953125
1408.104492	56754.492188
1407.029297	56956.839844
1405.955078	57039.281250
1404.879883	57234.714844
1403.804688	56937.386719
1402.729492	57324.835938
1401.653320	57635.324219
1400.578125	57396.808594
1399.501953	57483.585938
1398.425781	58143.863281
1397.349609	58411.082031
1396.272461	58314.789063
1395.196289	58949.730469
1394.119141	59004.546875
1393.041992	59438.347656
1391.964844	59899.058594
1390.886719	60578.351563
1389.809570	61074.757813
1388.731445	61570.988281
1387.653320	60987.390625
1386.575195	61463.167969
1385.497070	61927.503906
1384.417969	61393.710938
1383.338867	62062.851563
1382.259766	61558.496094
1381.180664	61542.898438
1380.101563	61511.546875
1379.021484	61820.058594
1377.941406	61205.835938
1376.861328	60828.070313
1375.781250	60893.589844
1374.701172	60486.773438
1373.620117	60084.597656
1372.539063	60174.937500
1371.458008	60195.554688
1370.376953	59955.460938
1369.295898	60198.566406
1368.213867	59868.683594
1367.132813	59815.207031
1366.050781	60314.226563
1364.967773	59887.941406
1363.885742	60312.671875
1362.802734	60674.402344
1361.720703	61269.394531
1360.637695	61173.074219
1359.554688	61664.562500
1358.470703	61518.855469
1357.387695	61487.570313
1356.303711	61128.933594
1355.219727	60573.148438
1354.135742	60122.902344
1353.050781	59424.070313
1351.966797	58799.425781
1350.881836	58031.636719
1349.796875	57971.886719
1348.711914	57961.417969
1347.626953	57702.429688
1346.541016	56899.566406
1345.455078	57690.546875
1344.369141	57225.867188
1343.283203	57096.957031
1342.197266	56527.410156
1341.110352	56857.156250
1340.023438	56815.578125
1338.936523	56698.003906
1337.849609	57029.765625
1336.762695	56541.191406
1335.674805	56267.304688
1334.586914	56672.683594
1333.499023	57138.222656
1332.411133	57143.531250
1331.323242	57273.878906
1330.234375	57480.082031
1329.145508	57445.140625
1328.056641	57814.148438
1326.967773	58410.609375
1325.878906	58107.804688
1324.789063	58681.687500
1323.699219	59282.121094
1322.609375	59955.914063
1321.519531	60531.371094
1320.429688	61099.933594
1319.338867	62296.714844
1318.248047	62989.515625
1317.157227	63924.882813
1316.066406	65530.308594
1314.975586	66340.164063
1313.883789	66802.406250
1312.791992	67631.765625
1311.700195	67434.804688
1310.608398	66841.820313
1309.516602	67005.492188
1308.423828	65856.679688
1307.331055	65484.472656
1306.238281	64278.531250
1305.145508	63935.640625
1304.051758	62592.597656
1302.958984	62190.125000
1301.865234	61761.128906
1300.771484	61365.609375
1299.677734	61230.117188
1298.583008	61709.832031
1297.489258	61676.457031
1296.394531	62329.078125
1295.299805	62337.769531
1294.204102	62444.101563
1293.109375	62397.296875
1292.013672	61864.671875
1290.917969	62416.843750
1289.822266	62354.535156
1288.726563	61569.441406
1287.630859	61875.292969
1286.534180	61199.164063
1285.437500	60984.207031
1284.340820	60906.695313
1283.244141	60472.558594
1282.146484	59992.066406
1281.048828	60056.488281
1279.951172	59981.402344
1278.853516	59609.718750
1277.755859	59045.621094
1276.658203	59057.046875
1275.559570	58968.914063
1274.460938	58276.933594
1273.362305	57905.882813
1272.262695	57546.023438
1271.164063	57712.453125
1270.064453	57262.125000
1268.964844	57510.312500
1267.865234	57228.109375
1266.765625	56917.285156
1265.665039	56644.117188
1264.564453	56238.546875
1263.463867	56420.445313
1262.363281	56666.292969
1261.262695	55804.042969
1260.161133	56480.230469
1259.059570	55947.074219
1257.958008	56020.753906
1256.856445	55743.718750
1255.754883	55901.199219
1254.652344	55189.937500
1253.549805	55261.484375
1252.447266	55366.066406
1251.344727	55320.761719
1250.242188	55171.925781
1249.138672	55051.773438
1248.035156	55513.089844
1246.931641	54730.121094
1245.828125	54643.132813
1244.724609	55020.621094
1243.620117	54814.765625
1242.515625	55401.117188
1241.411133	55569.253906
1240.306641	55387.597656
1239.201172	55782.191406
1238.096680	55446.644531
1236.991211	56221.398438
1235.885742	56121.070313
1234.779297	55677.953125
1233.673828	55722.769531
1232.567383	55780.750000
1231.460938	55531.210938
1230.354492	55760.488281
1229.248047	55425.410156
1228.140625	55781.937500
1227.033203	55822.285156
1225.926758	55423.734375
1224.818359	55650.613281
1223.710938	55078.941406
1222.602539	55564.593750
1221.495117	54747.546875
1220.386719	55105.917969
1219.278320	55440.046875
1218.168945	55223.960938
1217.060547	55301.570313
1215.951172	54958.511719
1214.841797	54751.386719
1213.731445	54870.640625
1212.622070	54834.390625
1211.511719	54496.035156
1210.402344	55020.199219
1209.291992	55349.394531
1208.180664	55181.792969
1207.070313	55499.898438
1205.958984	55802.578125
1204.847656	55928.011719
1203.736328	55963.750000
1202.625000	56259.613281
1201.512695	55919.347656
1200.401367	56226.035156
1199.289063	56340.339844
1198.176758	56740.761719
1197.063477	57370.359375
1195.951172	57604.488281
1194.837891	57349.480469
1193.724609	57494.023438
1192.611328	57394.078125
1191.498047	57700.031250
1190.383789	57822.609375
1189.269531	57279.855469
1188.155273	57177.832031
1187.041016	56864.335938
1185.926758	56463.750000
1184.811523	56102.542969
1183.696289	56292.816406
1182.581055	55648.511719
1181.465820	55501.132813
1180.350586	55619.531250
1179.234375	55674.734375
1178.118164	55429.445313
1177.001953	55373.632813
1175.885742	55311.308594
1174.768555	55242.476563
1173.652344	54829.906250
1172.535156	55150.562500
1171.417969	54603.312500
1170.299805	54706.437500
1169.182617	54481.230469
1168.064453	54564.769531
1166.946289	54348.359375
1165.828125	55131.570313
1164.709961	54834.746094
1163.590820	54344.710938
1162.471680	54645.363281
1161.352539	54272.785156
1160.233398	54534.257813
1159.114258	54480.902344
1157.994141	54755.257813
1156.874023	54549.996094
1155.753906	54950.058594
1154.633789	54324.046875
1153.513672	54704.484375
1152.392578	54750.878906
1151.271484	54383.207031
1150.150391	54145.710938
1149.029297	54703.585938
1147.907227	54609.109375
1146.786133	55229.507813
1145.664063	55163.121094
1144.541992	54852.062500
1143.418945	55344.335938
1142.296875	55814.781250
1141.173828	55886.835938
1140.050781	56229.339844
1138.927734	56314.269531
1137.803711	56539.761719
1136.680664	56730.566406
1135.556641	56798.050781
1134.432617	56372.605469
1133.308594	56697.339844
1132.183594	56887.964844
1131.059570	56523.226563
1129.934570	56798.062500
1128.809570	56478.824219
1127.684570	56723.328125
1126.558594	56879.218750
1125.432617	56648.644531
1124.307617	56074.976563
1123.180664	56604.210938
1122.054688	56697.429688
1120.928711	56294.476563
1119.801758	56417.906250
1118.674805	55974.175781
1117.547852	56183.851563
1116.419922	55746.785156
1115.292969	55812.027344
1114.165039	55663.925781
1113.037109	55565.421875
1111.909180	56093.757813
1110.780273	55687.246094
1109.652344	55457.441406
1108.523438	55470.980469
1107.394531	55585.679688
1106.264648	55547.539063
1105.135742	55188.820313
1104.005859	55290.593750
1102.875977	55252.519531
1101.746094	55666.050781
1100.616211	55569.867188
1099.485352	55993.933594
1098.355469	55880.527344
1097.224609	56134.613281
1096.092773	55567.890625
1094.961914	55852.011719
1093.830078	56063.003906
1092.699219	55891.699219
1091.567383	55587.347656
1090.434570	55004.058594
1089.302734	55601.343750
1088.169922	55644.808594
1087.037109	55227.011719
1085.904297	55457.136719
1084.771484	55685.027344
1083.637695	55389.664063
1082.504883	55328.074219
1081.371094	54912.847656
1080.236328	55069.945313
1079.102539	55516.230469
1077.968750	55409.667969
1076.833984	55491.617188
1075.699219	55445.050781
1074.564453	56092.183594
1073.428711	55972.738281
1072.292969	55483.078125
1071.158203	55926.558594
1070.022461	55514.097656
1068.885742	55540.292969
1067.750000	55249.953125
1066.613281	55351.019531
1065.476563	55556.800781
1064.339844	55687.695313
1063.203125	55645.433594
1062.065430	55581.816406
1060.927734	55387.910156
1059.790039	56242.800781
1058.652344	55963.414063
1057.514648	55983.046875
1056.375977	55656.843750
1055.237305	55729.878906
1054.098633	55455.050781
1052.959961	55417.148438
1051.820313	55477.382813
1050.681641	55394.691406
1049.541992	55687.332031
1048.402344	55941.488281
1047.261719	55558.195313
1046.122070	56117.039063
1044.981445	55870.226563
1043.840820	56545.976563
1042.700195	56207.574219
1041.558594	55941.707031
1040.417969	56548.925781
1039.276367	55603.976563
1038.134766	56017.339844
1036.992188	55824.046875
1035.850586	55535.070313
1034.708008	55752.500000
1033.565430	55614.652344
1032.422852	55298.226563
1031.280273	55817.484375
1030.136719	55747.714844
1028.994141	55629.085938
1027.850586	55351.128906
1026.706055	55462.066406
1025.562500	55534.726563
1024.417969	55273.917969
1023.273438	55737.289063
1022.128906	55567.824219
1020.984375	55413.281250
1019.839844	55214.222656
1018.694336	55840.636719
1017.548828	55626.718750
1016.403320	55894.359375
1015.256836	55646.574219
1014.111328	55918.347656
1012.964844	55700.324219
1011.818359	55806.660156
1010.671875	55317.484375
1009.524414	55322.148438
1008.377930	55375.531250
1007.230469	55772.000000
1006.083008	55124.363281
1004.934570	55721.859375
1003.787109	55787.820313
1002.638672	55910.894531
1001.490234	56014.882813
1000.341797	56154.789063
999.193359	56290.414063
998.043945	56043.203125
996.894531	55872.199219
995.745117	55792.160156
994.595703	56458.273438
993.446289	55496.910156
992.295898	56262.132813
991.145508	55896.882813
989.995117	56332.257813
988.844727	56332.453125
987.693359	56056.058594
986.541992	56573.484375
985.390625	56611.617188
984.239258	56829.097656
983.087891	56459.972656
981.935547	56521.304688
980.783203	56327.417969
979.630859	56298.070313
978.478516	56595.507813
977.325195	56656.757813
976.172852	56595.750000
975.019531	56958.281250
973.865234	57004.671875
972.711914	56836.203125
971.557617	56922.609375
970.404297	56798.429688
969.250000	56375.363281
968.094727	56514.417969
966.940430	56565.035156
965.785156	56689.269531
964.629883	56666.203125
963.474609	56256.160156
962.319336	57019.625000
961.163086	57078.500000
960.007813	57252.960938
958.851563	57391.628906
957.694336	56723.359375
956.538086	56897.781250
955.380859	57601.460938
954.223633	57532.039063
953.066406	57061.601563
951.909180	57107.761719
950.751953	56839.066406
949.593750	56719.464844
948.435547	56557.937500
947.277344	56774.070313
946.118164	56759.406250
944.959961	56759.425781
943.800781	56692.347656
942.641602	56528.871094
941.482422	56396.886719
940.322266	56118.265625
939.162109	56399.128906
938.001953	56388.722656
936.841797	56361.566406
935.681641	56868.363281
934.520508	57119.558594
933.360352	56836.914063
932.198242	56774.105469
931.037109	57069.113281
929.875977	57290.792969
928.713867	57091.972656
927.551758	57497.585938
926.389648	57156.625000
925.227539	57152.343750
924.064453	57557.710938
922.901367	57768.589844
921.738281	58042.066406
920.575195	58039.703125
919.412109	58304.667969
918.248047	58385.781250
917.083984	58552.453125
915.919922	58769.160156
914.755859	58850.132813
913.590820	59227.363281
912.426758	59195.562500
911.261719	60031.460938
910.095703	59882.734375
908.930664	60315.781250
907.764648	60642.351563
906.598633	61035.492188
905.432617	60628.277344
904.266602	60792.085938
903.099609	60701.695313
901.933594	60059.410156
900.766602	60052.472656
899.599609	59602.082031
898.431641	59632.695313
897.264648	59534.261719
896.096680	59421.296875
894.928711	59123.214844
893.759766	59097.722656
892.591797	59089.296875
891.422852	59080.863281
890.253906	59072.429688
889.084961	59063.996094
887.916016	59055.562500
886.746094	58849.335938
885.576172	58817.675781
884.406250	59384.187500
883.236328	59466.644531
882.065430	59106.843750
880.895508	59482.007813
879.724609	59483.453125
878.552734	59449.621094
877.381836	59992.550781
876.209961	59883.957031
875.039063	60575.917969
873.866211	60604.101563
872.694336	60787.753906
871.522461	60563.011719
870.349609	60373.578125
869.176758	60497.078125
868.003906	60864.972656
866.830078	61472.992188
865.657227	60871.425781
864.483398	61373.621094
863.309570	61695.531250
862.135742	62002.832031
860.960938	62560.398438
859.786133	62455.710938
858.611328	62547.566406
857.436523	62535.976563
856.261719	62679.472656
855.085938	62146.886719
853.910156	61724.042969
852.734375	61813.867188
851.558594	61537.937500
850.382813	61284.832031
849.206055	61477.953125
848.029297	61664.800781
846.852539	61506.781250
845.674805	61549.050781
844.498047	62487.039063
843.320313	62968.640625
842.142578	63406.730469
840.963867	63650.757813
839.786133	64179.296875
838.607422	65012.816406
837.428711	65683.156250
836.250000	66138.875000
835.070313	66781.960938
833.891602	66606.796875
832.711914	66151.523438
831.532227	65669.632813
830.352539	64963.460938
829.171875	64564.324219
827.991211	63393.375000
826.810547	63079.062500
825.629883	62137.230469
824.449219	61934.359375
823.267578	61260.500000
822.085938	60911.839844
820.904297	61297.394531
819.722656	60776.156250
818.540039	60121.500000
817.357422	60502.867188
816.174805	59984.113281
814.992188	59975.031250
813.809570	59700.984375
812.625977	59677.578125
811.442383	59721.929688
810.258789	59604.093750
809.074219	59648.437500
807.890625	59959.535156
806.706055	59685.781250
805.521484	60142.390625
804.336914	60336.312500
803.151367	60138.503906
801.966797	60063.773438
800.781250	59886.578125
799.594727	59606.980469
798.409180	59104.136719
797.222656	58966.136719
796.037109	58729.867188
794.849609	58465.015625
793.663086	58194.113281
792.476563	58326.593750
791.289063	58121.312500
790.101563	58124.828125
788.914063	57784.621094
787.725586	57747.281250
786.538086	58022.875000
785.349609	58046.847656
784.161133	57886.808594
782.971680	57082.937500
781.783203	57317.566406
780.593750	57521.453125
779.404297	57067.433594
778.214844	57528.648438
777.024414	56960.429688
775.834961	56545.558594
774.644531	57055.597656
773.454102	56959.257813
772.262695	57448.617188
771.072266	57111.484375
769.880859	57614.910156
768.689453	56578.304688
767.497070	57153.007813
766.305664	57631.671875
765.113281	57731.015625
763.920898	57940.371094
762.728516	57929.582031
761.536133	58574.789063
760.342773	58802.195313
759.149414	58986.746094
757.956055	59468.500000
756.762695	59382.101563
755.568359	59725.191406
754.374023	59659.125000
753.179688	59991.855469
751.985352	59553.496094
750.791016	59593.246094
749.595703	59399.132813
748.400391	59190.859375
747.205078	58596.445313
746.009766	58644.464844
744.813477	58042.242188
743.617188	57895.308594
742.420898	57811.394531
741.224609	57311.195313
740.027344	57243.664063
738.830078	57263.441406
737.632813	56741.289063
736.435547	57043.222656
735.238281	57014.324219
734.040039	56772.441406
732.841797	56696.953125
731.643555	56647.851563
730.445313	56312.906250
729.246094	56385.507813
728.046875	56295.953125
726.847656	56097.007813
725.648438	56637.585938
724.449219	56250.273438
723.249023	55581.613281
722.048828	56217.136719
720.848633	55963.722656
719.647461	55983.640625
718.447266	56062.230469
717.246094	55928.351563
716.044922	55936.117188
714.842773	56370.625000
713.641602	56360.101563
712.439453	56199.972656
711.237305	56403.742188
710.035156	56047.625000
708.832031	56756.492188
707.629883	56727.710938
706.426758	56864.566406
705.223633	56482.367188
704.019531	57016.972656
702.815430	56491.550781
701.612305	56632.375000
700.408203	56349.371094
699.203125	56375.160156
697.999023	56530.039063
696.793945	56979.312500
695.588867	56819.449219
694.383789	57103.179688
693.177734	56846.593750
691.971680	56791.632813
690.766602	56980.500000
689.559570	56568.949219
688.353516	56401.269531
687.146484	56708.910156
685.939453	56746.628906
684.732422	56587.054688
683.525391	56208.156250
682.318359	56306.308594
681.110352	56434.605469
679.902344	56102.203125
678.693359	56071.597656
677.485352	56276.269531
676.276367	56110.941406
675.067383	55975.820313
673.858398	55800.558594
672.649414	56294.453125
671.439453	56068.964844
670.229492	56235.226563
669.019531	56423.515625
667.809570	56153.949219
666.598633	56446.562500
665.387695	56424.644531
664.176758	56402.726563
662.965820	56380.812500
661.754883	56358.894531
660.542969	56336.957031
659.331055	56315.023438
658.119141	56396.703125
656.906250	55945.171875
655.694336	55918.664063
654.481445	56168.667969
653.268555	56719.070313
652.054688	56011.437500
650.841797	56591.695313
649.627930	56116.593750
648.414063	57052.925781
647.200195	56671.980469
645.985352	57757.929688
644.770508	58251.277344
643.555664	58076.339844
642.340820	59089.414063
641.125977	58574.457031
639.910156	58645.445313
638.694336	58576.488281
637.478516	58387.652344
636.262695	57651.421875
635.045898	57462.824219
633.829102	57621.820313
632.612305	57315.476563
631.395508	56957.332031
630.177734	57182.199219
628.959961	56277.363281
627.742188	56210.937500
626.524414	55657.746094
625.306641	56044.246094
624.087891	56221.199219
622.869141	56110.957031
621.650391	56158.246094
620.430664	56089.910156
619.211914	56202.941406
617.992188	55847.707031
616.772461	56056.351563
615.551758	56320.687500
614.332031	55915.839844
613.111328	55750.054688
611.890625	55468.875000
610.669922	55858.492188
609.448242	55849.996094
608.226563	55887.261719
607.004883	55994.125000
605.783203	55898.097656
604.561523	56319.066406
603.338867	55674.339844
602.116211	55632.085938
600.893555	55681.253906
599.669922	55523.773438
598.447266	56009.957031
597.223633	56082.851563
596.000000	55901.546875
594.775391	55805.679688
593.551758	55946.050781
592.327148	55965.308594
591.102539	56014.320313
589.877930	56142.664063
588.652344	56132.117188
587.426758	55929.207031
586.201172	56388.601563
584.975586	56080.652344
583.750000	56682.542969
582.523438	56442.023438
581.296875	56352.164063
580.070313	56840.746094
578.842773	56742.917969
577.616211	56704.527344
576.388672	56543.406250
575.161133	57269.101563
573.932617	57232.605469
572.705078	56733.121094
571.476563	57054.796875
570.248047	57109.335938
569.018555	56754.507813
567.790039	56676.609375
566.560547	56717.339844
565.331055	56396.378906
564.101563	56472.710938
562.871094	56307.984375
561.641602	56066.281250
560.411133	56225.574219
559.179688	55968.175781
557.949219	56348.527344
556.717773	55860.261719
555.486328	55760.945313
554.254883	55815.558594
553.023438	55751.789063
551.791016	55733.402344
550.558594	55701.218750
549.326172	55747.902344
548.093750	55418.074219
546.860352	55782.093750
545.627930	55669.125000
544.393555	55839.886719
543.160156	55364.519531
541.926758	55521.484375
540.692383	55664.601563
539.458008	55595.058594
538.223633	56039.242188
536.988281	55916.515625
535.752930	55699.394531
534.517578	56214.117188
533.282227	55786.574219
532.046875	55838.984375
530.810547	56111.566406
529.574219	56427.281250
528.337891	56619.066406
527.101563	56319.554688
525.864258	56607.542969
524.626953	56622.406250
523.389648	56662.789063
522.152344	56510.738281
520.914063	56215.441406
519.675781	56053.714844
518.437500	56276.656250
517.199219	56203.257813
515.959961	56227.964844
514.721680	56384.058594
513.482422	56322.441406
512.242188	56139.296875
511.002930	55768.050781
509.762695	55863.351563
508.522461	55988.003906
507.282227	56093.019531
506.041016	55988.421875
504.800781	55954.355469
503.559570	55763.671875
502.318359	55917.574219
501.076172	55691.734375
499.833984	55745.792969
498.592773	56001.335938
497.349609	55824.500000
496.107422	56076.015625
494.864258	55877.722656
493.622070	55910.175781
492.377930	56196.707031
491.134766	56447.949219
489.891602	56484.179688
488.647461	56088.683594
487.403320	56492.136719
486.158203	56151.460938
484.914063	56244.324219
483.668945	56442.554688
482.423828	56305.039063
481.178711	56265.128906
479.932617	56393.003906
478.686523	56606.652344
477.440430	56767.562500
476.194336	57181.875000
474.948242	57005.367188
473.701172	57247.960938
472.454102	57281.957031
471.207031	57263.332031
469.958984	57096.675781
468.711914	57483.171875
467.463867	57618.339844
466.215820	57303.742188
464.966797	57668.566406
463.718750	57554.515625
462.469727	57740.144531
461.220703	57713.660156
459.970703	58354.296875
458.721680	58442.429688
457.471680	58415.820313
456.221680	58875.175781
454.970703	59151.667969
453.720703	58977.253906
452.469727	59377.953125
451.218750	59285.136719
449.966797	59654.546875
448.715820	60309.238281
447.463867	60748.195313
446.211914	61023.949219
444.959961	62163.132813
443.707031	62277.472656
442.454102	62182.269531
441.201172	62449.769531
439.948242	61606.085938
438.695313	61288.101563
437.441406	60351.910156
436.187500	59923.816406
434.933594	59048.292969
433.678711	58519.867188
432.424805	57588.769531
431.169922	57614.652344
429.914063	57539.843750
428.659180	56835.937500
427.403320	56985.804688
426.147461	57124.000000
424.891602	56822.972656
423.635742	56502.714844
422.378906	56536.484375
421.122070	56373.015625
419.865234	56629.109375
418.608398	56193.152344
417.350586	56302.308594
416.092773	56280.039063
414.834961	56340.843750
413.577148	56094.531250
412.318359	56070.375000
411.059570	56015.335938
409.800781	56342.507813
408.541992	56194.796875
407.282227	56230.445313
406.022461	55938.117188
404.762695	55971.867188
403.502930	56198.445313
402.242188	56116.441406
400.981445	56005.550781
