#Wave		#Intensity
2001.248047	36632.882813
2000.278320	37154.238281
1999.308594	36892.132813
1998.338867	36742.871094
1997.369141	36403.261719
1996.398438	37198.437500
1995.428711	37114.308594
1994.458008	36797.343750
1993.487305	36785.910156
1992.516602	37097.371094
1991.545898	37078.378906
1990.574219	37176.996094
1989.603516	37160.496094
1988.631836	37154.003906
1987.660156	36894.929688
1986.688477	37286.050781
1985.715820	37069.539063
1984.744141	37440.496094
1983.771484	37016.605469
1982.798828	37230.019531
1981.826172	37368.410156
1980.853516	37426.824219
1979.880859	37218.000000
1978.907227	37323.859375
1977.933594	37794.164063
1976.959961	37250.910156
1975.986328	37319.265625
1975.012695	37559.765625
1974.039063	37266.308594
1973.064453	37456.843750
1972.089844	37133.574219
1971.115234	37241.781250
1970.140625	37791.207031
1969.166016	37398.253906
1968.190430	37606.039063
1967.215820	37547.136719
1966.240234	37642.714844
1965.264648	37484.191406
1964.289063	37783.953125
1963.312500	38285.292969
1962.336914	38042.093750
1961.360352	37423.128906
1960.383789	37585.812500
1959.407227	38086.828125
1958.430664	37771.683594
1957.454102	37904.367188
1956.476563	38056.898438
1955.499023	38398.343750
1954.521484	37307.718750
1953.543945	37885.304688
1952.566406	37871.222656
1951.587891	37725.449219
1950.610352	37669.164063
1949.631836	38072.406250
1948.653320	38040.906250
1947.674805	38272.617188
1946.696289	38176.546875
1945.716797	37943.992188
1944.737305	38006.835938
1943.758789	38538.613281
1942.779297	38169.667969
1941.798828	38485.433594
1940.819336	38270.382813
1939.838867	37621.488281
1938.859375	38219.792969
1937.878906	38195.750000
1936.898438	37933.808594
1935.916992	38041.140625
1934.936523	37833.816406
1933.955078	38255.695313
1932.974609	38075.640625
1931.993164	37712.421875
1931.010742	38044.972656
1930.029297	38194.246094
1929.047852	38219.726563
1928.065430	37977.972656
1927.083008	37805.566406
1926.100586	38063.601563
1925.118164	38133.593750
1924.135742	38203.562500
1923.152344	38115.285156
1922.168945	38076.476563
1921.185547	38393.539063
1920.202148	38468.347656
1919.218750	38049.046875
1918.235352	38548.718750
1917.250977	38569.128906
1916.266602	38112.992188
1915.282227	38422.300781
1914.297852	38627.832031
1913.313477	38551.960938
1912.328125	38481.050781
1911.343750	38649.453125
1910.358398	38262.835938
1909.373047	38478.070313
1908.387695	38486.117188
1907.401367	38644.535156
1906.416016	38455.367188
1905.429688	38180.007813
1904.443359	38562.609375
1903.457031	38467.160156
1902.470703	38246.125000
1901.483398	38601.421875
1900.497070	38742.378906
1899.509766	38866.054688
1898.522461	38285.750000
1897.535156	38416.839844
1896.546875	38939.093750
1895.559570	38373.839844
1894.571289	38797.531250
1893.583008	38628.417969
1892.594727	38589.675781
1891.606445	38688.609375
1890.618164	38106.679688
1889.628906	38557.070313
1888.639648	38714.921875
1887.650391	38238.921875
1886.661133	38642.382813
1885.671875	38662.609375
1884.682617	38928.355469
1883.692383	38482.105469
1882.702148	38416.441406
1881.711914	39028.097656
1880.721680	38773.433594
1879.731445	38766.625000
1878.740234	38494.925781
1877.749023	38466.093750
1876.757813	38805.046875
1875.766602	38523.671875
1874.775391	38637.003906
1873.784180	38566.500000
1872.791992	38667.531250
1871.799805	38714.628906
1870.807617	39070.312500
1869.815430	38816.117188
1868.823242	38471.421875
1867.830078	38895.500000
1866.837891	38803.000000
1865.844727	39361.460938
1864.851563	38999.777344
1863.858398	39129.910156
1862.864258	39196.406250
1861.871094	38844.718750
1860.876953	39324.433594
1859.882813	38919.062500
1858.888672	39203.066406
1857.894531	38863.835938
1856.899414	39208.828125
1855.905273	39265.445313
1854.910156	39434.390625
1853.915039	39522.691406
1852.919922	39129.984375
1851.923828	39240.273438
1850.928711	39230.929688
1849.932617	39167.906250
1848.936523	39424.511719
1847.940430	39354.152344
1846.944336	39798.433594
1845.947266	39515.878906
1844.951172	39869.761719
1843.954102	39714.050781
1842.957031	39516.960938
1841.959961	40026.605469
1840.962891	40202.289063
1839.964844	39798.156250
1838.966797	39951.894531
1837.969727	39876.679688
1836.970703	39986.527344
1835.972656	40098.761719
1834.974609	39918.906250
1833.975586	40106.546875
1832.976563	40841.527344
1831.978516	40328.378906
1830.978516	40630.152344
1829.979492	40778.621094
1828.980469	40428.640625
1827.980469	40526.046875
1826.980469	40326.910156
1825.980469	40356.257813
1824.980469	40375.875000
1823.979492	40332.328125
1822.979492	40764.808594
1821.978516	40354.542969
1820.977539	41034.500000
1819.976563	40668.019531
1818.975586	40770.066406
1817.973633	40988.550781
1816.972656	40665.937500
1815.970703	41017.769531
1814.968750	41037.218750
1813.966797	41233.667969
1812.963867	41260.343750
1811.961914	41093.093750
1810.958984	41279.730469
1809.956055	40860.531250
1808.953125	41267.601563
1807.950195	41500.128906
1806.946289	41098.058594
1805.943359	41221.570313
1804.939453	41403.136719
1803.935547	41492.656250
1802.930664	41637.808594
1801.926758	41596.589844
1800.922852	41202.175781
1799.917969	41468.238281
1798.913086	40858.742188
1797.908203	41530.984375
1796.903320	41932.226563
1795.897461	41438.988281
1794.891602	41724.097656
1793.886719	42120.253906
1792.880859	41636.902344
1791.874023	41747.914063
1790.868164	41849.222656
1789.862305	41986.710938
1788.855469	42177.261719
1787.848633	42172.234375
1786.841797	41812.453125
1785.833984	42022.230469
1784.827148	42186.097656
1783.819336	42364.375000
1782.812500	42407.539063
1781.804688	42202.339844
1780.795898	42185.250000
1779.788086	42857.503906
1778.779297	42204.093750
1777.771484	42442.406250
1776.762695	42613.179688
1775.753906	41861.402344
1774.744141	42309.152344
1773.735352	42874.726563
1772.725586	42571.054688
1771.715820	42804.226563
1770.706055	43128.757813
1769.696289	42603.839844
1768.686523	42839.285156
1767.675781	42918.304688
1766.666016	43478.246094
1765.655273	43595.593750
1764.644531	43001.335938
1763.632813	42962.492188
1762.622070	43668.613281
1761.610352	43497.515625
1760.598633	43545.082031
1759.586914	43873.636719
1758.575195	43755.421875
1757.563477	44203.867188
1756.550781	43965.605469
1755.538086	44025.039063
1754.525391	44175.632813
1753.512695	44268.593750
1752.500000	44464.667969
1751.486328	44341.683594
1750.473633	44511.296875
1749.459961	44278.054688
1748.446289	44701.710938
1747.432617	44911.906250
1746.417969	44268.949219
1745.404297	45171.546875
1744.389648	44456.906250
1743.375000	45258.558594
1742.360352	45217.027344
1741.344727	45177.906250
1740.330078	45445.195313
1739.314453	45939.753906
1738.298828	45335.792969
1737.283203	45291.886719
1736.267578	45908.199219
1735.251953	46364.050781
1734.235352	46033.035156
1733.218750	46266.355469
1732.202148	46253.390625
1731.185547	46840.296875
1730.168945	46944.312500
1729.151367	47091.296875
1728.133789	47821.058594
1727.117188	47752.886719
1726.098633	48358.101563
1725.081055	48454.589844
1724.063477	48527.167969
1723.044922	48995.886719
1722.026367	48715.191406
1721.007813	49267.207031
1719.989258	49437.378906
1718.970703	49104.285156
1717.951172	50135.203125
1716.931641	49902.226563
1715.912109	50138.898438
1714.892578	50406.464844
1713.873047	50507.144531
1712.853516	50383.843750
1711.833008	50753.640625
1710.812500	50928.023438
1709.791992	50995.195313
1708.771484	51231.367188
1707.750000	50779.570313
1706.729492	50913.359375
1705.708008	50935.269531
1704.686523	51009.503906
1703.665039	51224.046875
1702.642578	51386.191406
1701.621094	51648.140625
1700.598633	51253.867188
1699.576172	51532.382813
1698.553711	51230.945313
1697.531250	51932.289063
1696.507813	51611.882813
1695.485352	51519.601563
1694.461914	51629.203125
1693.438477	51596.304688
1692.415039	51924.246094
1691.390625	52038.460938
1690.367188	52351.968750
1689.342773	52245.402344
1688.318359	52406.937500
1687.293945	52551.808594
1686.269531	52616.000000
1685.244141	52817.679688
1684.218750	53588.214844
1683.194336	53336.957031
1682.168945	53540.765625
1681.142578	53476.773438
1680.117188	53855.773438
1679.090820	53900.691406
1678.064453	53950.328125
1677.038086	54385.859375
1676.011719	54359.636719
1674.985352	53831.671875
1673.958008	54522.546875
1672.931641	55128.007813
1671.904297	54846.187500
1670.876953	54966.531250
1669.848633	54795.976563
1668.821289	54634.937500
1667.792969	55220.917969
1666.764648	55194.566406
1665.736328	55217.847656
1664.708008	55808.128906
1663.679688	55895.066406
1662.650391	55580.476563
1661.621094	55842.156250
1660.591797	56169.839844
1659.562500	56171.664063
1658.533203	55496.160156
1657.502930	55564.167969
1656.472656	55858.632813
1655.442383	56280.363281
1654.412109	55624.175781
1653.381836	56255.648438
1652.351563	55936.816406
1651.320313	55875.023438
1650.289063	56169.105469
1649.257813	56135.558594
1648.226563	56094.957031
1647.194336	55795.269531
1646.163086	56432.976563
1645.130859	56265.187500
1644.098633	56540.039063
1643.066406	56581.769531
1642.033203	56941.183594
1641.000977	56302.832031
1639.967773	56784.492188
1638.934570	56616.804688
1637.901367	56863.066406
1636.868164	57527.761719
1635.833984	57454.058594
1634.800781	57486.148438
1633.766602	57525.269531
1632.732422	57775.839844
1631.697266	58261.234375
1630.663086	58161.617188
1629.627930	58278.078125
1628.593750	58612.851563
1627.558594	58893.511719
1626.522461	58676.488281
1625.487305	58985.191406
1624.451172	59084.968750
1623.416016	59780.539063
1622.379883	59983.332031
1621.343750	60645.664063
1620.306641	60820.089844
1619.270508	61446.867188
1618.233398	62804.664063
1617.196289	63325.410156
1616.159180	64110.718750
1615.122070	65148.730469
1614.083984	66078.632813
1613.046875	67750.507813
1612.008789	68305.015625
1610.970703	69439.843750
1609.932617	69797.257813
1608.893555	69721.648438
1607.855469	69271.734375
1606.816406	68122.578125
1605.777344	67366.734375
1604.738281	66802.890625
1603.698242	65839.476563
1602.659180	64649.660156
1601.619141	64233.832031
1600.579102	63418.585938
1599.539063	62622.316406
1598.499023	62069.250000
1597.458008	61254.816406
1596.417969	61498.414063
1595.376953	60252.476563
1594.335938	60344.437500
1593.294922	60160.988281
1592.252930	60276.261719
1591.210938	60137.207031
1590.169922	59510.714844
1589.127930	60024.816406
1588.084961	59953.492188
1587.042969	59823.910156
1586.000000	59999.710938
1584.958008	60289.632813
1583.915039	60197.332031
1582.872070	60890.125000
1581.828125	61049.292969
1580.785156	61187.441406
1579.741211	62014.722656
1578.697266	62425.011719
1577.653320	62250.949219
1576.609375	62623.812500
1575.564453	63205.937500
1574.520508	63087.652344
1573.475586	63190.363281
1572.430664	64058.093750
1571.384766	63458.437500
1570.339844	63561.019531
1569.293945	63059.273438
1568.249023	62820.292969
1567.202148	62423.406250
1566.156250	62409.941406
1565.110352	61049.425781
1564.063477	61112.835938
1563.017578	60112.890625
1561.970703	60169.472656
1560.922852	59940.570313
1559.875977	59073.628906
1558.829102	59401.804688
1557.781250	59152.277344
1556.733398	59102.285156
1555.685547	59316.652344
1554.636719	58605.914063
1553.588867	58922.277344
1552.540039	58371.765625
1551.491211	58231.582031
1550.442383	58818.890625
1549.393555	58062.535156
1548.344727	57746.464844
1547.294922	58521.089844
1546.245117	58313.855469
1545.195313	58287.234375
1544.145508	58110.191406
1543.094727	57879.996094
1542.044922	57892.785156
1540.994141	58335.785156
1539.943359	58163.476563
1538.892578	57917.242188
1537.840820	58151.933594
1536.790039	58652.339844
1535.738281	58175.050781
1534.686523	57707.171875
1533.634766	58103.429688
1532.583008	57769.683594
1531.530273	58108.054688
1530.477539	58150.765625
1529.424805	58417.378906
1528.372070	58266.140625
1527.319336	57406.519531
1526.265625	57760.789063
1525.212891	57812.742188
1524.159180	57620.195313
1523.105469	57017.253906
1522.051758	57048.554688
1520.997070	57206.621094
1519.942383	56749.269531
1518.888672	57386.628906
1517.833984	56913.273438
1516.778320	56967.589844
1515.723633	56676.417969
1514.667969	57062.332031
1513.612305	56633.109375
1512.556641	56574.632813
1511.500977	56769.335938
1510.445313	56602.703125
1509.388672	55771.253906
1508.332031	56074.097656
1507.275391	56344.628906
1506.218750	56005.730469
1505.162109	55981.910156
1504.104492	55516.773438
1503.047852	55931.984375
1501.990234	56050.640625
1500.931641	55307.761719
1499.874023	55828.437500
1498.816406	55494.632813
1497.757813	55186.203125
1496.699219	55217.640625
1495.640625	55304.148438
1494.582031	55229.984375
1493.522461	55178.789063
1492.462891	55042.730469
1491.403320	55326.449219
1490.343750	54821.203125
1489.284180	55214.910156
1488.224609	55278.371094
1487.164063	55110.316406
1486.103516	55045.441406
1485.042969	55026.410156
1483.982422	55598.394531
1482.920898	55295.265625
1481.860352	55443.355469
1480.798828	55662.367188
1479.737305	55315.890625
1478.675781	56317.566406
1477.613281	55758.285156
1476.550781	56011.390625
1475.489258	55358.570313
1474.426758	55828.921875
1473.363281	55631.402344
1472.300781	56192.980469
1471.237305	56045.753906
1470.174805	56092.832031
1469.111328	56276.996094
1468.046875	56230.343750
1466.983398	56067.218750
1465.919922	56454.531250
1464.855469	56615.652344
1463.791016	57009.574219
1462.726563	57013.039063
1461.661133	57454.664063
1460.596680	57284.632813
1459.531250	57367.886719
1458.465820	57499.003906
1457.400391	57340.449219
1456.334961	57512.562500
1455.268555	58033.398438
1454.202148	58255.464844
1453.135742	58137.898438
1452.069336	58027.210938
1451.002930	57788.988281
1449.935547	58245.519531
1448.869141	58112.093750
1447.801758	58322.503906
1446.734375	58564.710938
1445.666016	59355.335938
1444.598633	59656.425781
1443.530273	60337.359375
1442.461914	60183.210938
1441.393555	60381.640625
1440.325195	61137.109375
1439.256836	61587.648438
1438.187500	61728.882813
1437.118164	62324.605469
1436.048828	62043.000000
1434.979492	62827.011719
1433.909180	62586.300781
1432.839844	62522.816406
1431.769531	62988.421875
1430.699219	62856.773438
1429.627930	63517.351563
1428.557617	63376.574219
1427.486328	63185.925781
1426.416016	63902.796875
1425.343750	63553.339844
1424.272461	63791.371094
1423.201172	64233.382813
1422.128906	64570.949219
1421.056641	65148.648438
1419.984375	64901.250000
1418.912109	65043.648438
1417.839844	65337.773438
1416.766602	65350.933594
1415.693359	64863.621094
1414.620117	64591.574219
1413.546875	64645.601563
1412.473633	63925.546875
1411.399414	64018.140625
1410.325195	63531.492188
1409.250977	63701.027344
1408.176758	64386.167969
1407.102539	64105.484375
1406.027344	65063.867188
1404.952148	64889.402344
1403.876953	65284.535156
1402.801758	65946.164063
1401.726563	66490.070313
1400.650391	67167.046875
1399.574219	66583.570313
1398.498047	66357.062500
1397.421875	66080.976563
1396.345703	65908.812500
1395.268555	65829.234375
1394.191406	65072.765625
1393.114258	65365.605469
1392.037109	65274.886719
1390.959961	65215.769531
1389.881836	64969.523438
1388.804688	64998.394531
1387.726563	64756.781250
1386.647461	65509.074219
1385.569336	65384.613281
1384.491211	65670.195313
1383.412109	66397.132813
1382.333008	66704.945313
1381.253906	66810.000000
1380.173828	66764.195313
1379.094727	66664.382813
1378.014648	67028.171875
1376.934570	66446.859375
1375.854492	66576.601563
1374.773438	66092.281250
1373.693359	65347.289063
1372.612305	65362.488281
1371.531250	64516.734375
1370.450195	64628.710938
1369.369141	64531.667969
1368.287109	63924.660156
1367.205078	64117.542969
1366.123047	63728.671875
1365.041016	63117.640625
1363.958984	63712.417969
1362.875977	63572.980469
1361.793945	63004.937500
1360.710938	63168.589844
1359.626953	62616.527344
1358.543945	62279.988281
1357.460938	62291.175781
1356.376953	62795.644531
1355.292969	62602.726563
1354.208984	62714.707031
1353.124023	62465.839844
1352.040039	62490.414063
1350.955078	61793.632813
1349.870117	61771.281250
1348.785156	62183.375000
1347.700195	62057.957031
1346.614258	62230.316406
1345.528320	62089.265625
1344.442383	62104.910156
1343.356445	61630.558594
1342.270508	62585.796875
1341.183594	61995.226563
1340.096680	62174.101563
1339.009766	61986.246094
1337.922852	62690.363281
1336.835938	62634.339844
1335.748047	62917.984375
1334.661133	63074.175781
1333.573242	63196.804688
1332.484375	63386.386719
1331.396484	63194.066406
1330.307617	63102.277344
1329.219727	63030.605469
1328.130859	63530.277344
1327.041992	63404.996094
1325.952148	63427.000000
1324.863281	64006.621094
1323.773438	63765.351563
1322.683594	63976.792969
1321.593750	63650.894531
1320.502930	64011.613281
1319.413086	63494.171875
1318.322266	63422.531250
1317.231445	63569.230469
1316.140625	63105.597656
1315.048828	62842.546875
1313.958008	63766.300781
1312.866211	63790.386719
1311.774414	64037.023438
1310.682617	63740.605469
1309.589844	63867.019531
1308.498047	63779.832031
1307.405273	64368.789063
1306.312500	64603.968750
1305.218750	65170.328125
1304.125977	65960.984375
1303.032227	67058.054688
1301.939453	67154.796875
1300.845703	68768.890625
1299.750977	69969.242188
1298.657227	71355.710938
1297.562500	73305.664063
1296.467773	74258.109375
1295.373047	74513.242188
1294.278320	74115.828125
1293.183594	74807.992188
1292.087891	74279.773438
1290.992188	73722.906250
1289.896484	72622.914063
1288.800781	72434.601563
1287.704102	71308.640625
1286.608398	70127.671875
1285.511719	69950.984375
1284.415039	69603.750000
1283.317383	68277.515625
1282.220703	67948.429688
1281.123047	67513.164063
1280.025391	67489.859375
1278.927734	66404.031250
1277.830078	66557.992188
1276.731445	66006.000000
1275.633789	65620.140625
1274.535156	65466.679688
1273.436523	65724.632813
1272.336914	65297.011719
1271.238281	64871.753906
1270.138672	64652.218750
1269.039063	64463.695313
1267.939453	64447.589844
1266.839844	63611.871094
1265.739258	63863.187500
1264.638672	63226.628906
1263.538086	63427.128906
1262.437500	63594.445313
1261.336914	63229.757813
1260.235352	62408.394531
1259.134766	62752.304688
1258.033203	62776.218750
1256.930664	62526.625000
1255.829102	62199.937500
1254.726563	62631.820313
1253.625000	62355.925781
1252.522461	61720.882813
1251.418945	62207.695313
1250.316406	61865.925781
1249.212891	61643.230469
1248.110352	61429.421875
1247.006836	61629.664063
1245.902344	61979.542969
1244.798828	61219.882813
1243.694336	61083.324219
1242.589844	61107.441406
1241.485352	60660.746094
1240.380859	61052.261719
1239.276367	61562.386719
1238.170898	61707.324219
1237.065430	61073.968750
1235.959961	61177.175781
1234.854492	61157.273438
1233.748047	62049.222656
1232.642578	61827.058594
1231.536133	61872.933594
1230.429688	61112.851563
1229.322266	61459.636719
1228.215820	62295.824219
1227.108398	62429.363281
1226.000977	62606.742188
1224.893555	62698.484375
1223.786133	63336.402344
1222.677734	63526.667969
1221.569336	63453.722656
1220.460938	63363.265625
1219.352539	63018.558594
1218.244141	63066.277344
1217.134766	63225.730469
1216.025391	62620.519531
1214.916016	62593.804688
1213.806641	62374.371094
1212.697266	62733.078125
1211.586914	62053.953125
1210.476563	62648.976563
1209.366211	62462.507813
1208.255859	62324.242188
1207.145508	62336.972656
1206.034180	63200.535156
1204.922852	62795.406250
1203.811523	62781.796875
1202.700195	62929.957031
1201.587891	62964.406250
1200.476563	63459.929688
1199.364258	63079.140625
1198.251953	63747.031250
1197.138672	63829.347656
1196.026367	64053.566406
1194.913086	64629.210938
1193.799805	64462.464844
1192.686523	64094.988281
1191.573242	64318.984375
1190.458984	64041.113281
1189.344727	63571.382813
1188.230469	64286.046875
1187.116211	63594.027344
1186.001953	63456.003906
1184.886719	63215.582031
1183.772461	63112.539063
1182.657227	63114.117188
1181.541016	62723.566406
1180.425781	62910.347656
1179.309570	62776.937500
1178.193359	62822.113281
1177.077148	61994.324219
1175.960938	62548.925781
1174.844727	62221.992188
1173.727539	61481.785156
1172.610352	61353.117188
1171.493164	62122.738281
1170.375977	61543.863281
1169.257813	61513.082031
1168.139648	60973.648438
1167.022461	61175.523438
1165.903320	61149.164063
1164.785156	60977.250000
1163.666992	60798.875000
1162.547852	61189.570313
1161.428711	61093.730469
1160.309570	61082.589844
1159.189453	61338.433594
1158.070313	60962.660156
1156.950195	60702.015625
1155.830078	61012.015625
1154.709961	60742.781250
1153.588867	60634.113281
1152.468750	60859.386719
1151.347656	60620.667969
1150.226563	61032.253906
1149.104492	61133.804688
1147.983398	60795.492188
1146.861328	60840.722656
1145.739258	60532.902344
1144.617188	61338.226563
1143.495117	61069.394531
1142.372070	61735.781250
1141.250000	61549.210938
1140.126953	61334.574219
1139.003906	61792.851563
1137.879883	61805.363281
1136.756836	61659.996094
1135.632813	61443.324219
1134.508789	61799.625000
1133.384766	62036.914063
1132.259766	62101.226563
1131.135742	61273.140625
1130.010742	61527.667969
1128.885742	61434.355469
1127.759766	61166.152344
1126.634766	61059.980469
1125.508789	61117.906250
1124.382813	61003.140625
1123.256836	61410.636719
1122.130859	61440.414063
1121.003906	60976.183594
1119.877930	60973.671875
1118.750977	61223.449219
1117.624023	60811.253906
1116.496094	61220.476563
1115.369141	60812.734375
1114.241211	61120.527344
1113.113281	60736.648438
1111.985352	61136.960938
1110.856445	60953.496094
1109.728516	61015.562500
1108.599609	61150.796875
1107.470703	61038.453125
1106.340820	60618.406250
1105.211914	61020.437500
1104.082031	60559.667969
1102.952148	60780.886719
1101.822266	60995.570313
1100.692383	61371.425781
1099.561523	60975.410156
1098.431641	60912.671875
1097.300781	60987.484375
1096.169922	60776.519531
1095.038086	60935.097656
1093.907227	60696.292969
1092.775391	60350.207031
1091.643555	60701.992188
1090.511719	60620.050781
1089.378906	60261.281250
1088.246094	59898.351563
1087.114258	60078.324219
1085.980469	60168.140625
1084.847656	60058.476563
1083.714844	59882.382813
1082.581055	59912.152344
1081.447266	59725.425781
1080.313477	60248.093750
1079.179688	60387.046875
1078.044922	59960.398438
1076.910156	60217.144531
1075.775391	59976.984375
1074.640625	60175.824219
1073.505859	60119.847656
1072.370117	60455.554688
1071.234375	60147.042969
1070.098633	60399.175781
1068.962891	60841.593750
1067.826172	61048.593750
1066.690430	60956.152344
1065.553711	61118.152344
1064.416992	61604.992188
1063.279297	61388.539063
1062.142578	61167.890625
1061.004883	61359.628906
1059.867188	60703.332031
1058.729492	60942.062500
1057.590820	61246.894531
1056.453125	60795.906250
1055.314453	60978.988281
1054.175781	60788.550781
1053.037109	60491.503906
1051.897461	60424.949219
1050.757813	60915.078125
1049.618164	60577.648438
1048.478516	59931.195313
1047.338867	60461.636719
1046.199219	60646.621094
1045.058594	60675.984375
1043.917969	60473.113281
1042.777344	60800.699219
1041.635742	60542.500000
1040.495117	60265.234375
1039.353516	60107.281250
1038.211914	60611.347656
1037.069336	60489.566406
1035.927734	60725.281250
1034.785156	60273.777344
1033.642578	59824.562500
1032.500000	60234.640625
1031.357422	59749.449219
1030.213867	60038.214844
1029.071289	60220.601563
1027.927734	60235.046875
1026.783203	59718.328125
1025.639648	60178.941406
1024.495117	60212.488281
1023.351563	60413.773438
1022.207031	60167.023438
1021.061523	60351.253906
1019.916992	60408.082031
1018.771484	59798.617188
1017.625977	60591.675781
1016.480469	60470.246094
1015.334961	60374.308594
1014.188477	60013.363281
1013.041992	60528.078125
1011.895508	60192.667969
1010.749023	60471.929688
1009.602539	60681.167969
1008.455078	60606.464844
1007.307617	60362.347656
1006.160156	60643.480469
1005.012695	60547.644531
1003.864258	60572.500000
1002.716797	61647.085938
1001.568359	61580.734375
1000.419922	61901.570313
999.270508	61928.261719
998.122070	62377.914063
996.972656	62336.839844
995.823242	62627.691406
994.673828	62261.070313
993.523438	61769.898438
992.373047	62105.054688
991.222656	62116.867188
990.072266	62348.335938
988.921875	62797.230469
987.771484	62684.328125
986.620117	62349.816406
985.468750	62342.562500
984.317383	62964.152344
983.165039	62739.472656
982.013672	62822.851563
980.861328	62912.523438
979.708984	63183.500000
978.555664	63477.566406
977.403320	62612.195313
976.250000	63188.656250
975.096680	63181.234375
973.943359	62902.050781
972.790039	63223.265625
971.635742	63032.621094
970.481445	62903.101563
969.327148	62150.503906
968.172852	62267.449219
967.018555	62575.843750
965.863281	62172.976563
964.708008	61751.320313
963.552734	62015.464844
962.397461	61781.140625
961.241211	62091.429688
960.084961	62136.746094
958.929688	62131.601563
957.772461	62254.632813
956.616211	62154.921875
955.458984	62160.269531
954.301758	62108.910156
953.144531	62387.226563
951.987305	62310.648438
950.830078	61927.644531
949.671875	62153.367188
948.513672	62110.433594
947.355469	62224.851563
946.196289	62129.480469
945.038086	62134.800781
943.878906	62270.105469
942.719727	62107.691406
941.560547	62576.191406
940.400391	62893.636719
939.241211	62555.203125
938.081055	62899.761719
936.919922	63099.683594
935.759766	63006.378906
934.599609	63312.972656
933.438477	62987.316406
932.277344	63268.683594
931.116211	63618.988281
929.954102	63845.738281
928.791992	63541.128906
927.630859	63615.140625
926.467773	63565.761719
925.305664	63558.210938
924.143555	63475.414063
922.980469	63148.152344
921.817383	63965.945313
920.654297	63803.734375
919.490234	64057.195313
918.327148	63723.792969
917.163086	64096.171875
915.999023	63942.394531
914.833984	64128.847656
913.669922	64659.515625
912.504883	65171.210938
911.339844	65630.570313
910.174805	65249.324219
909.008789	65885.718750
907.843750	65986.117188
906.677734	66236.546875
905.511719	66178.460938
904.345703	66337.078125
903.178711	65737.375000
902.011719	65773.132813
900.844727	65044.640625
899.677734	65244.980469
898.510742	65411.937500
897.342773	64577.765625
896.174805	64401.441406
895.006836	64368.730469
893.838867	64394.269531
892.670898	64388.601563
891.501953	64010.742188
890.333008	64287.871094
889.164063	64072.285156
887.994141	64187.203125
886.825195	64283.371094
885.655273	64188.386719
884.485352	64276.207031
883.315430	64150.101563
882.144531	64736.183594
880.973633	64163.730469
879.803711	64637.511719
878.631836	64938.882813
877.460938	65038.898438
876.289063	64790.394531
875.118164	65029.343750
873.945313	65338.703125
872.773438	65281.000000
871.601563	65598.484375
870.428711	65729.328125
869.255859	65615.632813
868.083008	65182.949219
866.910156	66082.218750
865.736328	65927.093750
864.562500	66660.250000
863.388672	66819.718750
862.214844	67039.148438
861.040039	66797.039063
859.866211	66836.382813
858.691406	67717.609375
857.516602	67175.617188
856.340820	67206.601563
855.166016	66319.640625
853.990234	66623.601563
852.814453	66450.062500
851.637695	66731.156250
850.461914	66437.835938
849.285156	66159.070313
848.108398	67051.320313
846.931641	67092.570313
845.754883	66945.953125
844.577148	67338.078125
843.399414	67950.851563
842.221680	68101.242188
841.043945	68915.796875
839.865234	69694.984375
838.687500	70333.656250
837.508789	71052.500000
836.329102	71412.406250
835.150391	71541.359375
833.970703	71872.195313
832.791992	71251.132813
831.611328	70560.257813
830.431641	69624.578125
829.251953	69214.281250
828.071289	68559.164063
826.890625	67653.179688
825.709961	66973.890625
824.528320	66438.875000
823.347656	66463.570313
822.166016	66405.984375
820.984375	65620.492188
819.801758	65437.671875
818.620117	65174.750000
817.437500	65205.808594
816.254883	64778.636719
815.072266	64310.535156
813.888672	63963.792969
812.706055	64192.187500
811.522461	64194.640625
810.338867	64293.574219
809.154297	64164.640625
807.970703	63894.156250
806.786133	64040.273438
805.601563	64471.464844
804.416992	63766.265625
803.231445	64012.789063
802.045898	64300.222656
800.861328	63398.656250
799.674805	63460.656250
798.489258	63676.308594
797.302734	63617.355469
796.117188	63412.992188
794.930664	63393.015625
793.743164	63100.718750
792.556641	62732.785156
791.369141	62522.585938
790.181641	62666.488281
788.994141	62800.101563
787.805664	62236.109375
786.618164	62619.265625
785.429688	62241.589844
784.241211	62548.957031
783.052734	62408.542969
781.863281	61971.839844
780.673828	61917.402344
779.484375	62279.750000
778.294922	62215.054688
777.105469	61566.312500
775.915039	61658.992188
774.724609	61902.699219
773.534180	61744.222656
772.343750	61459.281250
771.152344	61760.011719
769.960938	61513.925781
768.769531	61622.808594
767.578125	61652.121094
766.385742	61524.433594
765.194336	62301.843750
764.001953	62618.367188
762.808594	62127.863281
761.616211	62593.015625
760.422852	62505.996094
759.230469	62659.312500
758.037109	63105.773438
756.842773	63148.984375
755.649414	63098.550781
754.455078	63520.250000
753.260742	63986.554688
752.066406	63708.148438
750.871094	63505.097656
749.676758	63293.984375
748.481445	63265.925781
747.286133	63337.480469
746.089844	62520.871094
744.894531	62492.964844
743.698242	62400.054688
742.501953	62144.679688
741.304688	61889.394531
740.108398	61717.453125
738.911133	61368.957031
737.713867	61109.894531
736.516602	61662.648438
735.319336	61409.707031
734.121094	61377.972656
732.922852	60624.214844
731.724609	60846.105469
730.526367	61015.199219
729.327148	60638.949219
728.127930	61099.851563
726.928711	60818.957031
725.729492	60746.835938
724.530273	60895.519531
723.330078	60096.375000
722.129883	60230.945313
720.929688	60237.925781
719.728516	60941.164063
718.528320	60502.800781
717.327148	60572.441406
716.125977	60029.117188
714.923828	60497.246094
713.722656	60166.457031
712.520508	60500.945313
711.318359	60586.675781
710.116211	60686.519531
708.913086	60661.042969
707.710938	60916.390625
706.507813	60741.406250
705.304688	60820.937500
704.100586	61092.253906
702.897461	60832.539063
701.693359	61099.710938
700.489258	61173.050781
699.284180	61203.996094
698.080078	61027.148438
696.875000	61544.160156
695.669922	62276.738281
694.464844	61484.875000
693.258789	62201.058594
692.053711	62362.753906
690.847656	62451.847656
689.641602	63471.644531
688.434570	63628.972656
687.228516	63528.472656
686.021484	63609.214844
684.814453	62633.054688
683.607422	62828.656250
682.399414	62283.640625
681.191406	61998.367188
679.983398	61445.660156
678.775391	61633.277344
677.567383	61830.875000
676.358398	61578.058594
675.149414	61574.582031
673.940430	61372.140625
672.730469	61645.984375
671.521484	61883.558594
670.311523	61727.363281
669.101563	61249.914063
667.890625	60844.921875
666.680664	61291.230469
665.469727	61245.640625
664.258789	60672.304688
663.047852	61082.277344
661.835938	60593.429688
660.625000	60676.347656
659.413086	60673.011719
658.201172	60178.492188
656.988281	60596.171875
655.776367	60448.550781
654.563477	60473.296875
653.350586	60039.277344
652.136719	60024.027344
650.923828	60571.500000
649.709961	59907.441406
648.496094	60136.437500
647.282227	60083.140625
646.067383	59613.644531
644.852539	60090.640625
643.637695	60437.441406
642.422852	60354.117188
641.208008	60372.800781
639.992188	60361.488281
638.776367	60348.175781
637.560547	60984.359375
636.344727	60167.710938
635.127930	60725.773438
633.911133	60848.210938
632.694336	60856.773438
631.477539	60575.828125
630.259766	60470.648438
629.042969	59840.609375
627.825195	59921.175781
626.606445	60486.515625
625.388672	59848.835938
624.169922	59785.761719
622.951172	59682.824219
621.732422	60100.250000
620.513672	59638.511719
619.293945	60055.781250
618.074219	60102.292969
616.854492	59873.882813
615.634766	60021.984375
614.414063	59628.382813
613.193359	59575.382813
611.972656	59617.949219
610.751953	60110.285156
609.530273	60313.902344
608.309570	60314.519531
607.087891	59626.906250
605.866211	60403.242188
604.643555	60193.070313
603.420898	60106.222656
602.198242	60391.089844
600.975586	60856.683594
599.752930	60706.175781
598.529297	60013.414063
597.305664	60711.179688
596.082031	60924.164063
594.858398	60753.890625
593.633789	61232.769531
592.410156	60889.835938
591.185547	61848.687500
589.959961	61791.437500
588.735352	61859.167969
587.509766	61716.656250
586.284180	62561.605469
585.058594	63031.566406
583.832031	62946.382813
582.606445	63628.121094
581.379883	64153.082031
580.153320	64669.917969
578.925781	64929.089844
577.699219	65182.222656
576.471680	65563.937500
575.244141	65395.238281
574.015625	65665.945313
572.788086	65792.101563
571.559570	65562.117188
570.331055	65587.359375
569.101563	65035.160156
567.873047	64413.960938
566.643555	63915.550781
565.414063	63767.156250
564.184570	62929.167969
562.954102	62573.562500
561.724609	61864.503906
560.494141	61679.070313
559.263672	61580.582031
558.032227	60834.593750
556.800781	60394.824219
555.570313	59811.156250
554.337891	59938.015625
553.106445	59820.203125
551.874023	59400.667969
550.642578	59710.914063
549.409180	59327.042969
548.176758	59479.480469
546.944336	58902.648438
545.710938	58576.277344
544.477539	59122.785156
543.243164	58581.792969
542.009766	58881.914063
540.775391	58707.398438
539.541016	58678.621094
538.306641	58667.566406
537.071289	58815.910156
535.836914	58478.218750
534.601563	58534.082031
533.366211	58841.667969
532.129883	58675.234375
530.894531	58957.113281
529.658203	58415.273438
528.421875	58720.671875
527.184570	58564.199219
525.948242	58547.265625
524.710938	58795.496094
523.473633	58698.003906
522.235352	58745.839844
520.998047	58913.398438
519.759766	59279.125000
518.521484	59158.054688
517.283203	59356.824219
516.043945	59788.945313
514.804688	59754.132813
513.565430	60054.632813
512.326172	60155.050781
511.085938	60055.496094
509.846680	60165.667969
508.606445	59623.328125
507.366211	59641.460938
506.125000	59310.953125
504.883789	59013.851563
503.643555	58834.335938
502.401367	59005.277344
501.160156	58622.285156
499.917969	58724.710938
498.675781	58420.160156
497.433594	58931.394531
496.191406	58484.152344
494.948242	58252.160156
493.705078	58565.675781
492.461914	58296.613281
491.218750	59012.562500
489.975586	58620.421875
488.731445	58206.937500
487.487305	58686.164063
486.242188	58130.269531
484.998047	58123.191406
483.752930	58719.273438
482.507813	58507.164063
481.262695	58658.058594
480.016602	58684.039063
478.771484	58953.820313
477.525391	58539.003906
476.278320	58968.582031
475.032227	59008.121094
473.785156	58854.687500
472.538086	59206.007813
471.291016	58885.039063
470.043945	58809.621094
468.795898	59203.593750
467.547852	59221.605469
466.299805	59743.832031
465.051758	59467.816406
463.802734	59740.695313
462.553711	59816.949219
461.304688	59770.617188
460.055664	60290.289063
458.805664	60722.253906
457.555664	60586.332031
456.305664	61103.601563
455.055664	61377.734375
453.804688	61195.121094
452.553711	61729.457031
451.302734	61896.472656
450.051758	62465.425781
448.799805	62698.250000
447.548828	63016.402344
446.296875	63687.679688
445.043945	64061.792969
443.791992	64581.273438
442.539063	64797.945313
441.286133	65578.914063
440.033203	64048.183594
438.779297	63510.660156
437.526367	62506.191406
436.272461	62019.546875
435.017578	60864.597656
433.763672	61009.988281
432.508789	60215.925781
431.253906	59695.210938
429.999023	59575.476563
428.744141	59413.195313
427.488281	59041.945313
426.232422	58637.941406
424.976563	58853.187500
423.720703	58524.800781
422.463867	58888.894531
421.207031	58906.734375
419.950195	58905.234375
418.693359	58729.773438
417.435547	58490.605469
416.177734	58355.855469
414.919922	58495.468750
413.662109	58370.421875
412.403320	58542.796875
411.144531	58462.191406
409.885742	58051.531250
408.626953	58530.718750
407.367188	58623.812500
406.107422	58246.144531
404.847656	57884.046875
403.587891	58017.699219
402.327148	58436.652344
401.067383	58109.417969
