#Wave		#Intensity
2001.221680	38888.570313
2000.251953	38936.195313
1999.282227	38901.832031
1998.312500	39491.382813
1997.342773	38402.242188
1996.372070	39242.148438
1995.402344	39130.113281
1994.431641	38922.968750
1993.460938	39033.835938
1992.490234	38804.250000
1991.518555	38709.886719
1990.547852	38542.988281
1989.576172	39296.773438
1988.604492	38954.742188
1987.632813	39250.539063
1986.661133	38976.140625
1985.689453	39119.328125
1984.716797	38972.523438
1983.745117	38793.277344
1982.772461	39101.328125
1981.799805	39469.230469
1980.827148	39245.027344
1979.853516	39482.906250
1978.880859	39141.425781
1977.907227	39134.585938
1976.933594	39392.324219
1975.959961	39460.308594
1974.986328	39331.148438
1974.011719	38972.519531
1973.038086	39576.804688
1972.063477	39372.875000
1971.088867	39615.332031
1970.114258	39226.980469
1969.138672	39643.855469
1968.164063	39435.062500
1967.188477	39226.343750
1966.212891	39478.574219
1965.237305	39865.214844
1964.261719	39477.218750
1963.286133	39370.718750
1962.309570	39642.656250
1961.333984	39683.015625
1960.357422	40064.296875
1959.380859	39674.109375
1958.404297	39448.246094
1957.426758	39162.769531
1956.450195	40088.496094
1955.472656	39527.003906
1954.495117	39614.558594
1953.517578	40015.261719
1952.540039	39555.964844
1951.561523	39750.304688
1950.583008	39504.859375
1949.605469	39870.519531
1948.626953	39990.195313
1947.647461	40017.957031
1946.668945	39854.554688
1945.690430	39770.632813
1944.710938	40160.738281
1943.731445	40362.128906
1942.751953	39774.558594
1941.772461	39782.476563
1940.791992	39956.546875
1939.812500	39676.808594
1938.832031	40073.945313
1937.851563	39952.914063
1936.871094	40163.996094
1935.890625	39740.699219
1934.909180	40179.656250
1933.928711	39806.042969
1932.947266	40103.671875
1931.965820	40000.085938
1930.984375	40181.222656
1930.002930	40275.664063
1929.020508	39954.320313
1928.038086	40333.308594
1927.056641	40407.878906
1926.074219	40232.605469
1925.090820	40403.613281
1924.108398	39852.570313
1923.125000	40641.609375
1922.142578	40068.468750
1921.159180	40192.425781
1920.175781	40291.625000
1919.191406	40526.660156
1918.208008	40475.097656
1917.223633	40334.648438
1916.240234	40391.773438
1915.255859	40283.480469
1914.271484	40478.812500
1913.286133	40345.855469
1912.301758	40356.054688
1911.316406	40437.789063
1910.331055	40472.628906
1909.345703	40140.011719
1908.360352	40537.332031
1907.375000	40443.941406
1906.388672	40668.535156
1905.402344	40136.500000
1904.416016	40789.785156
1903.429688	41024.050781
1902.443359	40797.644531
1901.457031	40765.859375
1900.469727	41049.242188
1899.482422	41138.050781
1898.495117	40798.554688
1897.507813	40744.640625
1896.520508	40789.160156
1895.532227	40983.722656
1894.543945	40767.464844
1893.556641	41072.621094
1892.568359	41163.761719
1891.579102	40982.000000
1890.590820	41107.531250
1889.601563	40849.656250
1888.613281	40859.683594
1887.624023	40879.535156
1886.634766	40673.410156
1885.644531	40641.710938
1884.655273	41020.054688
1883.665039	41246.058594
1882.674805	40971.285156
1881.684570	41611.937500
1880.694336	41216.972656
1879.704102	41018.390625
1878.712891	41396.257813
1877.722656	41214.875000
1876.731445	41732.324219
1875.740234	41237.167969
1874.748047	41028.945313
1873.756836	41026.640625
1872.764648	41313.441406
1871.773438	41489.910156
1870.781250	41404.242188
1869.788086	41671.234375
1868.795898	41255.035156
1867.803711	41340.804688
1866.810547	41688.429688
1865.817383	41938.046875
1864.824219	41478.042969
1863.831055	41429.167969
1862.837891	41822.996094
1861.843750	41602.898438
1860.849609	41786.289063
1859.855469	41950.054688
1858.861328	42001.339844
1857.867188	41761.808594
1856.872070	41654.292969
1855.877930	42059.796875
1854.882813	41605.453125
1853.887695	41627.437500
1852.892578	42196.308594
1851.896484	41708.000000
1850.901367	42098.488281
1849.905273	42064.238281
1848.909180	41829.941406
1847.913086	41954.308594
1846.916992	42259.109375
1845.919922	42661.339844
1844.923828	42124.773438
1843.926758	42465.945313
1842.929688	42385.355469
1841.932617	42436.378906
1840.935547	42112.187500
1839.937500	42445.804688
1838.939453	42767.125000
1837.942383	42603.753906
1836.943359	42557.300781
1835.945313	42800.531250
1834.947266	42797.867188
1833.948242	42600.531250
1832.949219	42556.539063
1831.951172	42364.175781
1830.951172	42755.574219
1829.952148	43069.023438
1828.953125	43020.109375
1827.953125	43141.363281
1826.953125	42791.085938
1825.953125	43354.582031
1824.953125	42649.683594
1823.952148	42637.312500
1822.952148	43045.097656
1821.951172	42833.546875
1820.950195	42794.441406
1819.949219	42731.074219
1818.948242	43429.777344
1817.946289	42990.210938
1816.945313	43106.367188
1815.943359	43038.128906
1814.941406	42790.449219
1813.939453	43156.328125
1812.936523	43476.007813
1811.934570	43010.222656
1810.931641	43283.769531
1809.928711	43494.218750
1808.925781	43430.832031
1807.921875	43655.707031
1806.918945	43500.281250
1805.915039	43327.960938
1804.912109	43504.312500
1803.908203	43542.632813
1802.903320	44018.972656
1801.899414	43457.109375
1800.894531	44008.289063
1799.890625	43923.125000
1798.885742	43738.839844
1797.880859	43600.554688
1796.875000	43537.261719
1795.870117	44206.371094
1794.864258	44162.324219
1793.858398	44004.726563
1792.852539	44168.484375
1791.846680	44180.015625
1790.840820	44297.800781
1789.833984	44446.929688
1788.828125	44576.691406
1787.821289	44392.628906
1786.814453	44560.960938
1785.806641	44712.343750
1784.799805	44774.414063
1783.791992	44609.734375
1782.784180	44727.261719
1781.776367	44772.410156
1780.768555	44672.898438
1779.760742	45161.531250
1778.751953	44895.707031
1777.743164	44931.148438
1776.735352	44730.496094
1775.725586	44696.101563
1774.716797	45379.351563
1773.708008	45554.328125
1772.698242	45129.816406
1771.688477	45514.167969
1770.678711	45210.136719
1769.668945	45084.257813
1768.659180	45220.628906
1767.648438	45575.824219
1766.637695	45481.203125
1765.626953	45687.152344
1764.616211	45777.640625
1763.605469	45351.347656
1762.593750	45713.406250
1761.583008	46027.281250
1760.571289	45824.570313
1759.559570	46020.625000
1758.547852	45697.914063
1757.535156	46354.894531
1756.523438	46008.230469
1755.510742	46252.109375
1754.498047	46678.273438
1753.485352	46413.300781
1752.472656	46551.425781
1751.458984	46488.031250
1750.445313	46489.406250
1749.432617	46536.328125
1748.417969	47014.714844
1747.404297	47066.320313
1746.390625	47266.472656
1745.375977	47337.175781
1744.361328	47345.574219
1743.346680	47248.585938
1742.332031	47738.300781
1741.317383	47574.234375
1740.302734	47845.886719
1739.287109	48045.640625
1738.271484	48455.894531
1737.255859	48995.195313
1736.240234	49208.988281
1735.223633	48858.281250
1734.208008	49275.265625
1733.191406	49498.453125
1732.174805	49848.242188
1731.158203	49958.917969
1730.140625	50449.480469
1729.124023	50841.917969
1728.106445	50966.683594
1727.088867	51244.250000
1726.071289	51538.429688
1725.053711	51834.890625
1724.035156	52040.539063
1723.017578	52296.234375
1721.999023	52275.042969
1720.980469	52766.781250
1719.961914	53217.796875
1718.942383	53201.218750
1717.923828	52941.429688
1716.904297	53525.671875
1715.884766	53370.792969
1714.865234	53287.460938
1713.844727	53723.593750
1712.825195	53528.257813
1711.804688	53540.214844
1710.784180	53125.878906
1709.763672	53652.203125
1708.743164	53861.714844
1707.722656	53245.218750
1706.701172	53012.082031
1705.679688	53254.902344
1704.658203	53119.378906
1703.636719	52698.480469
1702.615234	52843.718750
1701.592773	52713.089844
1700.571289	53414.546875
1699.548828	53003.394531
1698.526367	53245.898438
1697.502930	52651.964844
1696.480469	52476.339844
1695.457031	52858.933594
1694.433594	52122.894531
1693.410156	52852.062500
1692.386719	53065.835938
1691.363281	52624.453125
1690.338867	52838.187500
1689.314453	52667.476563
1688.290039	52942.800781
1687.265625	53025.910156
1686.241211	53080.531250
1685.215820	52558.992188
1684.191406	52765.386719
1683.166016	52926.671875
1682.140625	52834.339844
1681.115234	53111.648438
1680.088867	52969.570313
1679.062500	53142.535156
1678.037109	53639.859375
1677.010742	53272.835938
1675.983398	53393.574219
1674.957031	53407.765625
1673.930664	53601.789063
1672.903320	53911.667969
1671.875977	53935.214844
1670.848633	54150.320313
1669.820313	53930.253906
1668.792969	54147.644531
1667.764648	54336.589844
1666.736328	54230.042969
1665.708008	54752.078125
1664.679688	54666.753906
1663.651367	54657.046875
1662.622070	55150.378906
1661.592773	55423.937500
1660.563477	55213.421875
1659.534180	55562.398438
1658.504883	55479.371094
1657.474609	55424.679688
1656.444336	55955.085938
1655.415039	56256.503906
1654.383789	56112.082031
1653.353516	56335.546875
1652.323242	56063.851563
1651.291992	56522.949219
1650.260742	56826.343750
1649.229492	57261.574219
1648.198242	57588.281250
1647.166016	57486.183594
1646.134766	57320.535156
1645.102539	57896.636719
1644.070313	58999.859375
1643.038086	58280.894531
1642.004883	58616.468750
1640.972656	59351.917969
1639.939453	59821.269531
1638.906250	59443.710938
1637.873047	60298.546875
1636.839844	60605.238281
1635.805664	61421.945313
1634.772461	61636.660156
1633.738281	61472.945313
1632.704102	61657.027344
1631.668945	62374.289063
1630.634766	63011.441406
1629.599609	63793.957031
1628.565430	63317.726563
1627.530273	64440.285156
1626.494141	64198.808594
1625.458984	64161.574219
1624.422852	65459.339844
1623.387695	65140.394531
1622.351563	66015.351563
1621.315430	66697.710938
1620.278320	68036.296875
1619.242188	69496.296875
1618.205078	70006.570313
1617.167969	71885.148438
1616.130859	72912.585938
1615.093750	75082.773438
1614.055664	76863.406250
1613.018555	77467.914063
1611.980469	79493.304688
1610.942383	79980.078125
1609.904297	79876.898438
1608.865234	80017.117188
1607.827148	78774.601563
1606.788086	77658.843750
1605.749023	76297.921875
1604.709961	75038.023438
1603.669922	73738.820313
1602.630859	72729.929688
1601.590820	71370.835938
1600.550781	71703.945313
1599.510742	70684.257813
1598.470703	69788.734375
1597.429688	69603.484375
1596.389648	69378.593750
1595.348633	69501.632813
1594.307617	69293.179688
1593.265625	69651.890625
1592.224609	68990.820313
1591.182617	69039.179688
1590.140625	69561.000000
1589.098633	69725.835938
1588.056641	69533.867188
1587.014648	69686.984375
1585.971680	69784.109375
1584.928711	70321.632813
1583.886719	70201.914063
1582.842773	71060.648438
1581.799805	70852.328125
1580.755859	71000.375000
1579.712891	71283.406250
1578.668945	71722.296875
1577.625000	71502.359375
1576.580078	72462.312500
1575.536133	72265.585938
1574.491211	72399.242188
1573.446289	72283.992188
1572.401367	72673.382813
1571.356445	72576.718750
1570.311523	72531.218750
1569.265625	72729.773438
1568.219727	72935.226563
1567.173828	72975.648438
1566.127930	72363.312500
1565.082031	72926.375000
1564.035156	72351.414063
1562.988281	72185.265625
1561.941406	72260.585938
1560.894531	71727.812500
1559.847656	72086.273438
1558.799805	71282.281250
1557.751953	71900.484375
1556.704102	71393.656250
1555.656250	71084.101563
1554.608398	71154.867188
1553.560547	71318.320313
1552.511719	71143.359375
1551.462891	71230.289063
1550.414063	70890.906250
1549.365234	71146.929688
1548.315430	71560.343750
1547.265625	71299.804688
1546.216797	71194.460938
1545.166992	71665.492188
1544.116211	71580.945313
1543.066406	71635.257813
1542.015625	71691.859375
1540.965820	71366.789063
1539.915039	71391.039063
1538.863281	71493.882813
1537.812500	71587.445313
1536.760742	70971.390625
1535.709961	71194.414063
1534.658203	70678.000000
1533.605469	70808.585938
1532.553711	70142.289063
1531.501953	70478.445313
1530.449219	70024.851563
1529.396484	69645.289063
1528.343750	70015.968750
1527.290039	69230.398438
1526.237305	69379.515625
1525.183594	69034.929688
1524.129883	68593.601563
1523.076172	68507.539063
1522.022461	68193.257813
1520.968750	67388.093750
1519.914063	67551.195313
1518.859375	66914.640625
1517.804688	66709.140625
1516.750000	66697.203125
1515.694336	66413.500000
1514.639648	65872.007813
1513.583984	65305.375000
1512.528320	65664.281250
1511.472656	65376.359375
1510.416016	65226.593750
1509.360352	65300.039063
1508.303711	64906.519531
1507.247070	64648.824219
1506.190430	64680.933594
1505.132813	64772.804688
1504.076172	63982.003906
1503.018555	63756.820313
1501.960938	63651.195313
1500.903320	63690.335938
1499.844727	62895.691406
1498.787109	62794.863281
1497.728516	62241.742188
1496.669922	62657.585938
1495.611328	62180.425781
1494.552734	61467.066406
1493.493164	61270.203125
1492.434570	60662.785156
1491.375000	60617.511719
1490.315430	60402.554688
1489.254883	60121.183594
1488.195313	60275.457031
1487.134766	60445.718750
1486.074219	59055.375000
1485.013672	58893.574219
1483.953125	59206.007813
1482.892578	58883.914063
1481.831055	58610.019531
1480.769531	58505.640625
1479.708008	58513.464844
1478.646484	58354.207031
1477.583984	57931.859375
1476.522461	58061.027344
1475.459961	58002.578125
1474.397461	57392.976563
1473.334961	57849.152344
1472.271484	57427.257813
1471.208984	57412.386719
1470.145508	57406.656250
1469.082031	57796.230469
1468.018555	57470.589844
1466.954102	57215.875000
1465.890625	57504.777344
1464.826172	57562.960938
1463.761719	57292.378906
1462.697266	57496.652344
1461.631836	57413.304688
1460.567383	57195.367188
1459.501953	57171.414063
1458.436523	57177.117188
1457.371094	57479.277344
1456.305664	57523.683594
1455.239258	57258.035156
1454.172852	56976.523438
1453.107422	57180.503906
1452.040039	57370.738281
1450.973633	57073.406250
1449.907227	57343.304688
1448.839844	57362.609375
1447.772461	57359.136719
1446.705078	57528.667969
1445.637695	57784.625000
1444.569336	57617.230469
1443.500977	57666.035156
1442.432617	57687.523438
1441.364258	57768.132813
1440.295898	57816.875000
1439.227539	57795.117188
1438.158203	58275.726563
1437.088867	57872.078125
1436.019531	57713.976563
1434.950195	58441.968750
1433.879883	58485.980469
1432.810547	58598.105469
1431.740234	58885.027344
1430.669922	58463.527344
1429.598633	58893.367188
1428.528320	59052.988281
1427.457031	58772.355469
1426.386719	59546.730469
1425.314453	58361.089844
1424.243164	58727.054688
1423.171875	58698.351563
1422.099609	58161.855469
1421.027344	58026.734375
1419.955078	58075.218750
1418.882813	58241.500000
1417.810547	57576.335938
1416.737305	57978.199219
1415.664063	57834.160156
1414.590820	57801.117188
1413.517578	57602.828125
1412.444336	57526.824219
1411.370117	56855.703125
1410.295898	57291.187500
1409.221680	57846.402344
1408.147461	57571.371094
1407.073242	57893.421875
1405.998047	57794.824219
1404.922852	57825.113281
1403.847656	57349.128906
1402.772461	57804.292969
1401.697266	57595.074219
1400.621094	57912.238281
1399.544922	57682.742188
1398.468750	58202.992188
1397.392578	58416.015625
1396.316406	58459.671875
1395.239258	58792.175781
1394.162109	58361.898438
1393.084961	58479.976563
1392.007813	58492.000000
1390.930664	58966.328125
1389.852539	59147.363281
1388.774414	59247.171875
1387.696289	59714.339844
1386.618164	59841.046875
1385.540039	60233.578125
1384.460938	60004.210938
1383.382813	60820.007813
1382.303711	60962.175781
1381.223633	61554.601563
1380.144531	61511.992188
1379.064453	61455.890625
1377.985352	62200.917969
1376.905273	61894.968750
1375.825195	61942.296875
1374.744141	61931.128906
1373.664063	61452.234375
1372.583008	61295.015625
1371.501953	60931.046875
1370.420898	60358.191406
1369.338867	60376.519531
1368.257813	59417.539063
1367.175781	59653.910156
1366.093750	59672.347656
1365.011719	58855.464844
1363.929688	58930.160156
1362.846680	59081.144531
1361.763672	58332.132813
1360.680664	58056.835938
1359.597656	57898.296875
1358.514648	58152.527344
1357.430664	57798.914063
1356.346680	58434.238281
1355.262695	57594.226563
1354.178711	57431.414063
1353.094727	57320.203125
1352.009766	57157.500000
1350.925781	57252.468750
1349.840820	57161.503906
1348.755859	56801.839844
1347.669922	56746.804688
1346.584961	56286.609375
1345.499023	57073.230469
1344.413086	56682.507813
1343.327148	56616.335938
1342.240234	56686.644531
1341.154297	56613.781250
1340.067383	56402.304688
1338.980469	56168.542969
1337.893555	56574.167969
1336.805664	56470.082031
1335.718750	55939.234375
1334.630859	56445.210938
1333.542969	56276.417969
1332.455078	56409.183594
1331.367188	56084.148438
1330.278320	56373.171875
1329.189453	56068.347656
1328.100586	56638.457031
1327.011719	56318.070313
1325.922852	56394.894531
1324.833008	56893.253906
1323.743164	56198.332031
1322.653320	56139.121094
1321.563477	56314.000000
1320.473633	56595.804688
1319.382813	56541.000000
1318.291992	56762.496094
1317.201172	56674.265625
1316.110352	56880.062500
1315.019531	56698.304688
1313.927734	56425.328125
1312.835938	56646.632813
1311.744141	56854.500000
1310.652344	56712.925781
1309.560547	56865.082031
1308.467773	56959.343750
1307.375000	57133.636719
1306.282227	56816.433594
1305.189453	57112.960938
1304.095703	57629.441406
1303.002930	57241.199219
1301.909180	57097.515625
1300.815430	57398.210938
1299.721680	57583.292969
1298.626953	57555.101563
1297.533203	57775.609375
1296.438477	58417.839844
1295.343750	57745.812500
1294.248047	58441.074219
1293.153320	58401.648438
1292.057617	58362.234375
1290.961914	58932.785156
1289.866211	59376.726563
1288.770508	59419.187500
1287.674805	59530.351563
1286.578125	59051.906250
1285.481445	59158.656250
1284.384766	59429.324219
1283.288086	59383.113281
1282.190430	59744.445313
1281.092773	59286.312500
1279.996094	59184.792969
1278.897461	58709.214844
1277.799805	59236.382813
1276.702148	58803.003906
1275.603516	58579.957031
1274.504883	58633.488281
1273.406250	58790.945313
1272.307617	57860.429688
1271.208008	58040.070313
1270.108398	58100.281250
1269.008789	58178.148438
1267.909180	58503.460938
1266.809570	58031.132813
1265.708984	57404.355469
1264.609375	57184.148438
1263.508789	57231.187500
1262.407227	57192.109375
1261.306641	56607.867188
1260.206055	56961.722656
1259.104492	57169.824219
1258.002930	56740.312500
1256.901367	56533.722656
1255.798828	56399.976563
1254.697266	56504.394531
1253.594727	56403.761719
1252.492188	55844.734375
1251.389648	56257.691406
1250.286133	55903.785156
1249.183594	55690.980469
1248.080078	55859.269531
1246.976563	55877.757813
1245.872070	55215.941406
1244.768555	55254.347656
1243.664063	55345.554688
1242.560547	55177.078125
1241.455078	55153.859375
1240.350586	55165.843750
1239.246094	54617.023438
1238.140625	54472.980469
1237.035156	55017.082031
1235.929688	54800.480469
1234.824219	54616.917969
1233.717773	54327.953125
1232.612305	54478.453125
1231.505859	54345.558594
1230.399414	54730.968750
1229.291992	54982.300781
1228.185547	54463.027344
1227.078125	55067.675781
1225.970703	54724.121094
1224.863281	54123.988281
1223.755859	54519.972656
1222.647461	54360.925781
1221.539063	54482.613281
1220.430664	54716.070313
1219.322266	54598.714844
1218.213867	54698.371094
1217.104492	54526.281250
1215.995117	54487.886719
1214.885742	54497.695313
1213.776367	54371.714844
1212.666992	54613.636719
1211.556641	54157.101563
1210.446289	54160.386719
1209.335938	54139.597656
1208.225586	54289.476563
1207.115234	54809.011719
1206.003906	54674.371094
1204.892578	54651.304688
1203.781250	54503.617188
1202.669922	54690.445313
1201.557617	54656.453125
1200.446289	54768.882813
1199.333984	54184.300781
1198.221680	54471.527344
1197.108398	54915.898438
1195.996094	55111.167969
1194.882813	54987.609375
1193.769531	54772.414063
1192.656250	55146.558594
1191.542969	55529.292969
1190.428711	55268.292969
1189.314453	55410.917969
1188.200195	55769.398438
1187.085938	55935.863281
1185.971680	55873.359375
1184.856445	55969.988281
1183.741211	56491.542969
1182.625977	56237.218750
1181.510742	56386.007813
1180.395508	56419.300781
1179.279297	56650.750000
1178.163086	56128.765625
1177.046875	56930.527344
1175.930664	56985.449219
1174.813477	56241.718750
1173.697266	56875.484375
1172.580078	56649.761719
1171.462891	56563.320313
1170.344727	56489.949219
1169.227539	56292.679688
1168.109375	55734.636719
1166.991211	56241.734375
1165.873047	56146.738281
1164.754883	56095.226563
1163.635742	55878.644531
1162.516602	56493.925781
1161.397461	55549.941406
1160.278320	55698.292969
1159.159180	55772.789063
1158.039063	55510.878906
1156.918945	54934.445313
1155.798828	55612.121094
1154.678711	55506.542969
1153.558594	55474.734375
1152.437500	55362.710938
1151.316406	54632.902344
1150.195313	54724.804688
1149.074219	54556.628906
1147.952148	55216.160156
1146.831055	54694.855469
1145.708984	54838.648438
1144.586914	55716.468750
1143.463867	55329.585938
1142.341797	54955.828125
1141.218750	55216.328125
1140.095703	55877.042969
1138.972656	55769.492188
1137.849609	56261.140625
1136.725586	55740.480469
1135.601563	55864.367188
1134.477539	55540.695313
1133.353516	55331.699219
1132.229492	55019.042969
1131.104492	55080.300781
1129.979492	54955.746094
1128.854492	54714.597656
1127.729492	54626.863281
1126.603516	54185.062500
1125.478516	53883.742188
1124.352539	54126.421875
1123.226563	53754.000000
1122.099609	53981.511719
1120.973633	53874.574219
1119.846680	53759.050781
1118.719727	53175.640625
1117.592773	53107.710938
1116.465820	52660.425781
1115.337891	53124.941406
1114.209961	53218.660156
1113.082031	52465.671875
1111.954102	52751.175781
1110.826172	52720.000000
1109.697266	52150.527344
1108.568359	52351.968750
1107.439453	51804.292969
1106.310547	52210.164063
1105.180664	52232.890625
1104.051758	51543.550781
1102.921875	51818.035156
1101.791992	52225.742188
1100.661133	52046.335938
1099.531250	52011.023438
1098.400391	52119.718750
1097.269531	51998.441406
1096.138672	51948.109375
1095.006836	51865.570313
1093.875977	51888.296875
1092.744141	51393.511719
1091.612305	51240.265625
1090.480469	51054.875000
1089.347656	51204.343750
1088.215820	50602.750000
1087.083008	50988.230469
1085.950195	51116.175781
1084.816406	50828.027344
1083.683594	50655.765625
1082.549805	50200.589844
1081.416016	50197.828125
1080.282227	50188.636719
1079.148438	50644.390625
1078.013672	50202.390625
1076.878906	50180.347656
1075.744141	50520.207031
1074.609375	50519.519531
1073.474609	50345.437500
1072.338867	50235.625000
1071.203125	50312.015625
1070.067383	50375.542969
1068.931641	50139.570313
1067.794922	50502.515625
1066.659180	50020.703125
1065.522461	50159.050781
1064.385742	49643.273438
1063.248047	50010.304688
1062.111328	50180.625000
1060.973633	50226.972656
1059.835938	50019.125000
1058.698242	49651.183594
1057.559570	50342.410156
1056.421875	49722.644531
1055.283203	49982.457031
1054.144531	50344.601563
1053.005859	50122.015625
1051.866211	49856.839844
1050.726563	49905.285156
1049.587891	50166.945313
1048.447266	50125.765625
1047.307617	49941.781250
1046.167969	50286.402344
1045.027344	50211.125000
1043.886719	50165.695313
1042.746094	50026.558594
1041.604492	50592.390625
1040.463867	50436.187500
1039.322266	50186.367188
1038.180664	50153.746094
1037.038086	50189.234375
1035.896484	49997.039063
1034.753906	50183.578125
1033.611328	50108.429688
1032.468750	50224.699219
1031.326172	50211.226563
1030.182617	50720.695313
1029.040039	50634.871094
1027.896484	50657.449219
1026.751953	50499.425781
1025.608398	50681.332031
1024.463867	50869.539063
1023.319336	51095.898438
1022.174805	50579.109375
1021.030273	50699.300781
1019.885742	50647.542969
1018.740234	50351.789063
1017.594727	50978.980469
1016.449219	51175.359375
1015.303711	50748.183594
1014.157227	51025.097656
1013.010742	50890.648438
1011.864258	50955.480469
1010.717773	50693.941406
1009.571289	51123.203125
1008.423828	50779.109375
1007.276367	50583.394531
1006.128906	51200.898438
1004.981445	51172.433594
1003.833008	51798.066406
1002.684570	51758.914063
1001.536133	52037.175781
1000.387695	52215.898438
999.239258	52919.132813
998.089844	52594.289063
996.941406	52768.574219
995.791992	52632.027344
994.641602	52542.027344
993.492188	52492.210938
992.341797	52581.859375
991.191406	52487.687500
990.041016	52469.582031
988.890625	52354.343750
987.739258	52205.359375
986.588867	52050.097656
985.437500	51911.773438
984.285156	52419.218750
983.133789	52335.730469
981.981445	52039.218750
980.829102	51791.320313
979.676758	51454.949219
978.524414	51972.539063
977.372070	51724.781250
976.218750	51913.363281
975.065430	51650.953125
973.912109	51656.191406
972.757813	51829.929688
971.604492	51748.781250
970.450195	52187.730469
969.295898	51849.718750
968.141602	51488.671875
966.986328	51342.406250
965.832031	51873.671875
964.676758	52219.625000
963.521484	51795.671875
962.365234	51798.746094
961.209961	51616.804688
960.053711	51878.457031
958.897461	52047.539063
957.741211	52342.628906
956.584961	52154.410156
955.427734	51672.187500
954.270508	51559.757813
953.113281	51936.601563
951.956055	51935.425781
950.797852	52265.878906
949.639648	51540.636719
948.481445	51898.312500
947.323242	52054.468750
946.165039	51772.210938
945.005859	52079.312500
943.847656	52226.953125
942.687500	51789.687500
941.528320	51639.714844
940.369141	51827.164063
939.208984	52400.035156
938.048828	51954.675781
936.888672	51995.351563
935.728516	52075.796875
934.567383	51957.328125
933.406250	52190.542969
932.245117	51737.250000
931.083984	52336.582031
929.922852	52063.332031
928.760742	52310.992188
927.598633	52236.507813
926.436523	52101.417969
925.274414	52150.332031
924.111328	52489.746094
922.948242	52490.503906
921.785156	52896.578125
920.622070	52579.742188
919.458984	52973.117188
918.294922	52940.367188
917.130859	52784.449219
915.966797	53096.152344
914.802734	53637.308594
913.637695	53157.917969
912.472656	53442.253906
911.307617	53999.722656
910.142578	53827.082031
908.977539	54179.937500
907.811523	54051.101563
906.645508	54305.816406
905.479492	53939.437500
904.313477	54244.078125
903.146484	54163.226563
901.980469	53903.289063
900.813477	53293.605469
899.646484	53535.675781
898.478516	53296.804688
897.311523	53239.082031
896.143555	53495.585938
894.975586	53402.476563
893.806641	53315.640625
892.638672	53301.621094
891.469727	53661.875000
890.300781	53335.960938
889.131836	53269.976563
887.962891	53280.906250
886.792969	53241.960938
885.623047	53441.925781
884.453125	53326.113281
883.283203	52957.000000
882.112305	53069.699219
880.942383	53651.484375
879.771484	53685.140625
878.600586	53959.488281
877.428711	53839.546875
876.257813	54020.414063
875.085938	54230.250000
873.914063	54158.007813
872.741211	54556.386719
871.569336	54610.542969
870.396484	54370.402344
869.223633	54097.195313
868.050781	54428.992188
866.877930	54623.960938
865.704102	54750.523438
864.530273	54874.960938
863.356445	55260.179688
862.182617	55247.875000
861.007813	55440.433594
859.833984	55142.585938
858.659180	55641.226563
857.484375	55684.691406
856.308594	54963.066406
855.133789	55525.546875
853.958008	55490.453125
852.782227	54814.722656
851.605469	55091.769531
850.429688	54959.675781
849.252930	54484.761719
848.076172	54829.855469
846.899414	54718.523438
845.722656	55115.046875
844.544922	55135.789063
843.367188	55057.472656
842.189453	55521.789063
841.011719	56324.230469
839.833008	56629.335938
838.655273	56746.679688
837.476563	57360.828125
836.296875	57170.863281
835.118164	57527.093750
833.938477	56962.152344
832.758789	57101.972656
831.579102	56899.824219
830.399414	55859.601563
829.219727	55997.480469
828.039063	55569.199219
826.858398	54869.394531
825.677734	54721.339844
824.496094	54063.093750
823.315430	54155.910156
822.133789	53892.890625
820.952148	53173.468750
819.769531	53192.382813
818.587891	53478.500000
817.405273	53059.601563
816.222656	53047.695313
815.040039	52651.621094
813.856445	53103.996094
812.673828	52422.601563
811.490234	52965.187500
810.305664	52511.933594
809.122070	52362.613281
807.938477	52067.648438
806.753906	52470.367188
805.569336	52054.460938
804.383789	52147.335938
803.199219	52039.218750
802.013672	52127.960938
800.828125	51841.550781
799.642578	51827.820313
798.457031	51805.894531
797.270508	51519.695313
796.083984	51522.410156
794.897461	51187.218750
793.710938	51372.218750
792.523438	51104.730469
791.336914	51019.500000
790.149414	50964.992188
788.961914	50939.148438
787.773438	51324.480469
786.585938	50539.792969
785.397461	50644.906250
784.208984	50386.062500
783.019531	50141.621094
781.831055	50254.917969
780.641602	50296.652344
779.452148	49872.578125
778.262695	50137.003906
777.072266	49551.777344
775.882813	49658.941406
774.692383	49543.546875
773.501953	49730.269531
772.310547	49837.332031
771.120117	49462.847656
769.928711	50008.496094
768.737305	49377.132813
767.544922	49716.636719
766.353516	49574.859375
765.161133	49775.585938
763.968750	49650.152344
762.776367	49830.410156
761.583984	49275.144531
760.390625	50031.835938
759.197266	50197.660156
758.003906	50017.277344
756.810547	50777.472656
755.616211	50615.359375
754.421875	50664.949219
753.227539	50297.417969
752.033203	50572.839844
750.838867	50059.027344
749.643555	50470.625000
748.448242	50536.445313
747.252930	49746.468750
746.057617	49407.960938
744.861328	49289.031250
743.665039	49531.757813
742.468750	48693.800781
741.272461	48544.597656
740.075195	49126.406250
738.878906	48964.992188
737.681641	48758.984375
736.484375	48534.789063
735.286133	48389.800781
734.087891	48263.121094
732.890625	48260.207031
731.691406	48399.234375
730.493164	48037.441406
729.294922	48512.941406
728.095703	48155.308594
726.896484	48665.050781
725.696289	48224.457031
724.497070	48336.992188
723.296875	48066.730469
722.096680	48041.562500
720.896484	47973.890625
719.696289	47726.105469
718.495117	47806.238281
717.293945	47868.128906
716.092773	47640.726563
714.891602	48121.277344
713.689453	48344.839844
712.487305	47913.269531
711.285156	47952.835938
710.083008	47608.402344
708.880859	48070.312500
707.677734	48134.066406
706.474609	48163.453125
705.271484	47459.761719
704.068359	47471.085938
702.864258	47785.214844
701.660156	47887.300781
700.456055	47864.230469
699.251953	47778.621094
698.046875	47614.367188
696.841797	47984.636719
695.636719	47574.394531
694.431641	48075.574219
693.226563	47961.773438
692.020508	47616.250000
690.814453	48379.082031
689.608398	48720.574219
688.402344	48449.621094
687.195313	48617.781250
685.988281	48453.656250
684.781250	48424.468750
683.574219	48558.316406
682.366211	48281.597656
681.158203	48548.207031
679.950195	48372.167969
678.742188	48705.023438
677.534180	48595.375000
676.325195	48722.996094
675.116211	48961.121094
673.907227	49122.785156
672.697266	48790.097656
671.488281	49112.441406
670.278320	48655.343750
669.068359	48889.230469
667.858398	48946.339844
666.647461	48545.730469
665.436523	48528.617188
664.225586	48377.062500
663.014648	48542.554688
661.802734	48112.226563
660.591797	47676.035156
659.379883	48417.046875
658.167969	48055.136719
656.955078	47921.867188
655.743164	48041.152344
654.530273	47871.863281
653.317383	47953.046875
652.103516	47673.671875
650.890625	47871.003906
649.676758	47697.859375
648.462891	47520.773438
647.249023	47395.789063
646.034180	47288.859375
644.819336	47580.101563
643.604492	47587.191406
642.389648	47744.265625
641.174805	48033.253906
639.958984	47362.523438
638.743164	47497.562500
637.527344	47446.695313
636.311523	47935.316406
635.094727	47968.281250
633.877930	47903.367188
632.661133	47794.539063
631.444336	48021.171875
630.226563	47561.031250
629.008789	47769.656250
627.791016	47607.050781
626.573242	48019.082031
625.355469	47625.101563
624.136719	47701.925781
622.917969	47748.808594
621.699219	48106.667969
620.480469	47657.148438
619.260742	47801.652344
618.041016	48079.597656
616.821289	47349.449219
615.601563	47549.691406
614.380859	47532.804688
613.160156	47492.027344
611.939453	47142.726563
610.718750	47579.683594
609.497070	47256.359375
608.276367	47144.039063
607.054688	47236.632813
605.832031	47561.867188
604.610352	47409.777344
603.387695	47720.937500
602.165039	47620.546875
600.942383	47059.160156
599.719727	47252.980469
598.496094	47484.468750
597.272461	47106.136719
596.048828	47520.246094
594.825195	47372.347656
593.600586	47006.152344
592.375977	47167.996094
591.151367	47030.160156
589.926758	47493.480469
588.701172	47381.417969
587.476563	47029.433594
586.250977	47565.847656
585.024414	47404.269531
583.798828	47431.035156
582.572266	47360.687500
581.345703	47211.117188
580.119141	47253.746094
578.892578	47454.792969
577.665039	47669.625000
576.437500	47272.632813
575.209961	47564.609375
573.982422	47874.285156
572.753906	47613.996094
571.525391	47494.257813
570.296875	47507.082031
569.068359	47583.179688
567.838867	47578.183594
566.610352	47165.968750
565.380859	47876.507813
564.150391	47535.523438
562.920898	47431.750000
561.690430	47817.882813
560.459961	47607.441406
559.229492	47185.800781
557.999023	47782.992188
556.767578	47343.710938
555.536133	47792.636719
554.304688	48174.304688
553.073242	47725.324219
551.840820	47162.117188
550.608398	47472.695313
549.375977	47570.222656
548.143555	47768.238281
546.910156	47972.093750
545.676758	47724.632813
544.443359	47485.144531
543.209961	47375.746094
541.975586	47536.183594
540.742188	47629.617188
539.507813	47508.433594
538.272461	47467.992188
537.038086	47350.812500
535.802734	47613.406250
534.567383	47195.273438
533.332031	47823.605469
532.096680	47643.519531
530.860352	47481.187500
529.624023	47366.093750
528.387695	47445.605469
527.151367	47316.800781
525.914063	47924.742188
524.676758	47683.937500
523.439453	48030.390625
522.202148	47377.332031
520.963867	47762.972656
519.725586	47830.507813
518.487305	47366.230469
517.249023	47910.566406
516.009766	47481.753906
514.771484	47757.167969
513.532227	47724.628906
512.291992	47633.285156
511.052734	47702.703125
509.812500	47533.003906
508.572266	47745.441406
507.332031	48361.347656
506.090820	47723.507813
504.850586	47297.394531
503.609375	47885.617188
502.368164	47956.835938
501.125977	48206.125000
499.884766	48093.316406
498.642578	48019.675781
497.400391	47726.984375
496.157227	47968.296875
494.915039	48250.574219
493.671875	48356.804688
492.428711	48541.171875
491.184570	48477.285156
489.941406	48145.750000
488.697266	48324.187500
487.453125	48084.593750
486.208984	48530.492188
484.963867	48579.890625
483.718750	48605.847656
482.473633	48341.003906
481.228516	48724.066406
479.982422	48705.101563
478.737305	48760.265625
477.491211	48431.230469
476.244141	48952.406250
474.998047	48982.140625
473.750977	48889.074219
472.503906	48667.429688
471.256836	49359.605469
470.009766	49395.074219
468.761719	49165.664063
467.513672	49148.574219
466.265625	49259.984375
465.017578	49840.437500
463.768555	49867.984375
462.519531	50294.386719
461.270508	50045.597656
460.021484	50277.304688
458.771484	50576.984375
457.521484	50631.574219
456.271484	50575.339844
455.021484	50781.500000
453.770508	50773.832031
452.519531	51084.777344
451.268555	51065.394531
450.017578	51850.015625
448.765625	52339.207031
447.514648	52181.761719
446.262695	52655.171875
445.009766	53283.640625
443.757813	53828.445313
442.504883	53678.585938
441.251953	53495.808594
439.999023	53382.906250
438.745117	53095.562500
437.492188	52222.941406
436.238281	52120.023438
434.983398	51143.281250
433.729492	50639.597656
432.474609	50544.781250
431.219727	50401.582031
429.964844	50208.101563
428.709961	50130.832031
427.454102	50080.691406
426.198242	49848.667969
424.942383	50170.050781
423.685547	49673.093750
422.429688	49820.328125
421.172852	49366.160156
419.916016	49843.968750
418.658203	49324.250000
417.401367	49328.425781
416.143555	49577.972656
414.885742	49375.398438
413.626953	49449.082031
412.369141	49769.906250
411.110352	49617.601563
409.851563	49891.941406
408.591797	49467.542969
407.333008	49703.210938
406.073242	49070.656250
404.813477	49659.277344
403.553711	49428.085938
402.292969	49773.472656
401.032227	49578.964844
