Data from AgNPs_APTES_FTO_UA_100uM_CRN_0uM_R6G_10uM_Scan_RamanShift__13__10-54-51-243.txt Node

Date: Wed Jun 29 10:54:51 BST 2022
User: TCL
Spectrometer: QEP01345
Trigger mode: 4
Integration Time (sec): 7.000000E0
Scans to average: 10
Electric dark correction enabled: true
Nonlinearity correction enabled: false
Boxcar width: 0
XAxis mode: Raman Shifts
Number of Pixels in Spectrum: 1044
>>>>>Begin Spectral Data<<<<<
46.04893	0.3875
50.45542	-0.2125
54.85868	1.4875
59.25871	1.0875
63.6555	36.0875
68.04907	37.8875
72.43941	38.9875
76.82654	43.8875
81.21044	43.8875
85.59113	45.0875
89.96862	50.1875
94.34289	52.6875
98.71396	49.0875
103.08183	51.6875
107.4465	52.5875
111.80798	57.1875
116.16626	52.8875
120.52136	58.2875
124.87327	50.2875
129.222	54.8875
133.56755	51.8875
137.90993	49.3875
142.24913	49.8875
146.58517	45.4875
150.91804	48.2875
155.24774	48.7875
159.57429	52.4875
163.89768	51.0875
168.21792	62.2875
172.53501	64.6875
176.84895	82.3875
181.15975	97.8875
185.46741	125.0875
189.77193	157.3875
194.07331	198.8875
198.37157	253.9875
202.6667	307.4875
206.9587	357.8875
211.24758	413.7875
215.53334	462.5875
219.81599	527.1875
224.09553	582.5875
228.37195	642.3875
232.64527	710.7875
236.91549	788.9875
241.18261	853.9875
245.44663	928.4875
249.70755	993.1875
253.96539	1037.7875
258.22014	1084.2875
262.4718	1112.6875
266.72039	1119.3875
270.96589	1108.1875
275.20832	1097.1875
279.44768	1083.6875
283.68397	1042.7875
287.91719	1019.0875
292.14735	990.1875
296.37445	977.3875
300.59849	950.2875
304.81948	954.5875
309.03742	945.2875
313.25231	937.3875
317.46415	927.2875
321.67296	920.3875
325.87872	903.5875
330.08145	894.3875
334.28114	893.8875
338.47781	909.7875
342.67145	906.6875
346.86207	926.6875
351.04966	937.3875
355.23424	965.0875
359.4158	968.6875
363.59435	981.3875
367.76989	984.7875
371.94243	996.2875
376.11196	1002.0875
380.27849	998.2875
384.44203	1015.9875
388.60257	1016.6875
392.76012	1013.0875
396.91468	1030.6875
401.06626	1039.5875
405.21485	1041.4875
409.36047	1046.7875
413.50311	1037.3875
417.64277	1025.6875
421.77947	1025.1875
425.9132	1014.7875
430.04396	1018.1875
434.17176	1017.5875
438.2966	1037.7875
442.41849	1049.3875
446.53742	1054.5875
450.6534	1059.7875
454.76644	1074.6875
458.87653	1082.1875
462.98368	1088.9875
467.08789	1088.1875
471.18916	1102.0875
475.2875	1092.8875
479.38291	1095.8875
483.4754	1099.8875
487.56496	1097.7875
491.6516	1106.1875
495.73531	1106.9875
499.81612	1096.2875
503.89401	1094.4875
507.96899	1096.0875
512.04106	1092.5875
516.11023	1092.3875
520.1765	1088.6875
524.23987	1081.2875
528.30034	1083.5875
532.35792	1083.6875
536.41261	1079.7875
540.46441	1071.1875
544.51333	1061.2875
548.55936	1056.2875
552.60252	1066.5875
556.64279	1069.3875
560.6802	1072.9875
564.71473	1077.5875
568.7464	1080.1875
572.7752	1090.0875
576.80114	1084.6875
580.82422	1089.3875
584.84444	1080.8875
588.86181	1097.7875
592.87633	1095.9875
596.888	1105.9875
600.89682	1105.5875
604.9028	1131.4875
608.90594	1207.8875
612.90624	1290.5875
616.90371	1283.4875
620.89834	1188.0875
624.89015	1144.1875
628.87913	1150.7875
632.86528	1161.8875
636.84862	1182.6875
640.82913	1182.0875
644.80683	1169.2875
648.78172	1157.8875
652.75379	1160.8875
656.72306	1165.1875
660.68952	1174.9875
664.65319	1170.3875
668.61405	1169.0875
672.57211	1174.4875
676.52738	1203.2875
680.47986	1219.2875
684.42955	1251.3875
688.37646	1267.7875
692.32058	1255.8875
696.26192	1220.8875
700.20048	1196.8875
704.13626	1185.5875
708.06928	1178.5875
711.99952	1170.5875
715.927	1169.4875
719.85171	1169.3875
723.77365	1165.1875
727.69284	1163.3875
731.60928	1152.3875
735.52295	1156.0875
739.43388	1153.0875
743.34206	1153.2875
747.24749	1148.0875
751.15017	1142.1875
755.05012	1122.4875
758.94733	1157.5875
762.8418	1185.3875
766.73354	1224.1875
770.62254	1266.1875
774.50882	1288.2875
778.39237	1270.5875
782.27321	1234.1875
786.15132	1209.5875
790.02671	1181.3875
793.89938	1166.6875
797.76935	1170.8875
801.6366	1176.5875
805.50115	1179.7875
809.36299	1189.1875
813.22213	1192.1875
817.07857	1181.7875
820.93231	1167.5875
824.78336	1157.4875
828.63172	1143.6875
832.47738	1147.2875
836.32036	1142.2875
840.16066	1136.3875
843.99827	1150.9875
847.8332	1145.7875
851.66546	1142.4875
855.49504	1134.8875
859.32195	1137.8875
863.1462	1129.3875
866.96777	1133.2875
870.78668	1136.2875
874.60293	1136.1875
878.41652	1144.2875
882.22745	1155.7875
886.03573	1162.8875
889.84136	1172.0875
893.64433	1178.3875
897.44466	1181.4875
901.24235	1185.7875
905.0374	1177.7875
908.8298	1176.0875
912.61957	1172.5875
916.40671	1185.0875
920.19121	1183.4875
923.97308	1189.8875
927.75233	1196.5875
931.52895	1203.3875
935.30295	1185.2875
939.07433	1180.9875
942.84309	1168.4875
946.60924	1155.2875
950.37278	1155.2875
954.13371	1145.9875
957.89203	1146.5875
961.64774	1143.6875
965.40086	1126.5875
969.15137	1134.9875
972.89929	1125.3875
976.64461	1118.0875
980.38733	1120.4875
984.12747	1119.6875
987.86502	1117.3875
991.59999	1110.9875
995.33237	1122.8875
999.06217	1127.1875
1002.78939	1127.2875
1006.51404	1136.3875
1010.23611	1135.5875
1013.95561	1149.0875
1017.67255	1148.1875
1021.38692	1153.3875
1025.09872	1153.6875
1028.80796	1149.8875
1032.51465	1146.7875
1036.21877	1141.9875
1039.92035	1135.7875
1043.61937	1136.4875
1047.31584	1133.3875
1051.00976	1141.4875
1054.70114	1140.1875
1058.38998	1147.8875
1062.07627	1141.9875
1065.76003	1151.5875
1069.44126	1154.6875
1073.11995	1159.4875
1076.79611	1158.7875
1080.46974	1168.3875
1084.14085	1156.2875
1087.80943	1168.4875
1091.47549	1149.9875
1095.13903	1144.0875
1098.80005	1142.8875
1102.45857	1136.9875
1106.11456	1123.5875
1109.76805	1136.0875
1113.41903	1140.2875
1117.06751	1155.1875
1120.71348	1178.0875
1124.35696	1202.4875
1127.99793	1233.1875
1131.63641	1253.7875
1135.2724	1251.8875
1138.90589	1249.0875
1142.5369	1237.1875
1146.16542	1216.1875
1149.79145	1201.7875
1153.415	1180.0875
1157.03607	1165.4875
1160.65467	1160.3875
1164.27079	1159.1875
1167.88443	1175.0875
1171.49561	1187.7875
1175.10432	1198.4875
1178.71056	1256.2875
1182.31434	1291.7875
1185.91565	1299.2875
1189.51451	1292.6875
1193.11091	1273.9875
1196.70485	1249.5875
1200.29634	1248.2875
1203.88538	1229.9875
1207.47197	1225.0875
1211.05612	1208.1875
1214.63782	1193.7875
1218.21708	1196.3875
1221.79391	1180.7875
1225.36829	1184.7875
1228.94024	1187.9875
1232.50976	1190.4875
1236.07685	1193.9875
1239.6415	1190.3875
1243.20374	1203.2875
1246.76355	1203.2875
1250.32093	1200.8875
1253.8759	1197.9875
1257.42845	1216.6875
1260.97859	1218.9875
1264.52631	1230.3875
1268.07163	1246.1875
1271.61453	1257.1875
1275.15503	1271.4875
1278.69312	1273.4875
1282.22882	1277.1875
1285.76211	1286.7875
1289.29301	1308.4875
1292.82151	1331.5875
1296.34761	1356.9875
1299.87133	1384.5875
1303.39266	1412.9875
1306.9116	1464.2875
1310.42815	1496.8875
1313.94233	1531.7875
1317.45412	1511.5875
1320.96354	1477.8875
1324.47058	1442.7875
1327.97525	1404.7875
1331.47754	1402.4875
1334.97747	1392.8875
1338.47502	1399.3875
1341.97022	1423.3875
1345.46305	1447.2875
1348.95352	1480.2875
1352.44163	1531.2875
1355.92738	1585.1875
1359.41078	1665.4875
1362.89183	1746.1875
1366.37053	1755.6875
1369.84688	1658.7875
1373.32088	1567.0875
1376.79254	1502.5875
1380.26186	1457.0875
1383.72883	1430.1875
1387.19347	1413.8875
1390.65578	1390.0875
1394.11575	1379.1875
1397.57339	1373.5875
1401.0287	1360.8875
1404.48168	1346.7875
1407.93234	1340.3875
1411.38068	1323.7875
1414.82669	1315.1875
1418.27039	1307.5875
1421.71177	1295.3875
1425.15083	1284.7875
1428.58758	1264.0875
1432.02203	1249.6875
1435.45416	1254.9875
1438.88399	1241.6875
1442.31151	1228.5875
1445.73673	1227.6875
1449.15965	1208.2875
1452.58027	1213.6875
1455.9986	1211.7875
1459.41463	1212.8875
1462.82837	1212.2875
1466.23982	1215.6875
1469.64898	1222.1875
1473.05586	1227.9875
1476.46045	1233.8875
1479.86276	1245.2875
1483.26279	1268.4875
1486.66054	1264.8875
1490.05602	1268.3875
1493.44922	1287.3875
1496.84016	1302.8875
1500.22882	1346.5875
1503.61521	1397.7875
1506.99934	1454.3875
1510.38121	1519.3875
1513.76081	1524.7875
1517.13816	1482.2875
1520.51324	1416.7875
1523.88607	1343.6875
1527.25665	1295.9875
1530.62498	1272.1875
1533.99105	1257.2875
1537.35488	1258.0875
1540.71647	1248.9875
1544.07581	1248.6875
1547.4329	1246.8875
1550.78776	1247.4875
1554.14038	1247.9875
1557.49077	1262.3875
1560.83892	1262.4875
1564.18484	1271.8875
1567.52853	1277.0875
1570.86999	1294.3875
1574.20922	1310.6875
1577.54624	1300.7875
1580.88103	1285.0875
1584.2136	1266.8875
1587.54395	1230.0875
1590.87208	1221.0875
1594.19801	1214.0875
1597.52172	1213.0875
1600.84321	1211.7875
1604.16251	1190.5875
1607.47959	1178.0875
1610.79447	1170.0875
1614.10715	1166.3875
1617.41763	1145.5875
1620.7259	1131.5875
1624.03199	1134.6875
1627.33587	1125.7875
1630.63757	1124.2875
1633.93707	1122.4875
1637.23439	1126.2875
1640.52951	1133.8875
1643.82246	1155.6875
1647.11321	1193.7875
1650.40179	1206.3875
1653.68819	1198.6875
1656.97241	1155.3875
1660.25446	1100.4875
1663.53433	1062.8875
1666.81203	1031.1875
1670.08756	1023.6875
1673.36092	1037.3875
1676.63211	1035.3875
1679.90115	1034.3875
1683.16801	1025.7875
1686.43272	1014.1875
1689.69527	1002.5875
1692.95567	967.2875
1696.2139	933.2875
1699.46999	886.6875
1702.72392	872.4875
1705.97571	887.4875
1709.22535	899.4875
1712.47284	917.2875
1715.71819	913.6875
1718.96139	911.3875
1722.20246	908.9875
1725.44139	898.5875
1728.67818	886.9875
1731.91284	876.9875
1735.14537	866.6875
1738.37576	863.7875
1741.60403	853.9875
1744.83017	856.5875
1748.05418	835.5875
1751.27607	825.1875
1754.49584	806.4875
1757.71349	783.8875
1760.92903	779.0875
1764.14244	772.0875
1767.35375	765.9875
1770.56294	773.9875
1773.77002	779.5875
1776.97499	785.4875
1780.17785	805.5875
1783.37861	802.4875
1786.57727	810.3875
1789.77382	814.7875
1792.96828	813.9875
1796.16064	809.9875
1799.3509	807.9875
1802.53907	807.8875
1805.72514	810.2875
1808.90913	802.7875
1812.09102	809.5875
1815.27083	801.6875
1818.44856	802.1875
1821.6242	804.5875
1824.79776	795.4875
1827.96924	795.3875
1831.13864	798.0875
1834.30597	793.4875
1837.47122	794.0875
1840.6344	798.1875
1843.7955	795.3875
1846.95454	785.3875
1850.11151	792.3875
1853.26642	789.8875
1856.41926	787.1875
1859.57004	789.1875
1862.71876	790.2875
1865.86542	790.7875
1869.01003	791.3875
1872.15258	786.1875
1875.29308	781.0875
1878.43152	784.4875
1881.56792	783.8875
1884.70227	782.4875
1887.83457	783.8875
1890.96482	788.2875
1894.09304	784.2875
1897.21921	774.6875
1900.34335	778.0875
1903.46544	775.6875
1906.58551	779.6875
1909.70353	773.4875
1912.81953	776.9875
1915.93349	779.3875
1919.04543	773.5875
1922.15534	776.0875
1925.26322	770.7875
1928.36908	768.5875
1931.47292	764.4875
1934.57473	762.9875
1937.67453	770.2875
1940.77232	765.3875
1943.86808	763.9875
1946.96184	762.5875
1950.05358	756.6875
1953.14331	761.8875
1956.23103	754.7875
1959.31675	756.9875
1962.40046	751.2875
1965.48217	751.5875
1968.56188	740.8875
1971.63959	751.6875
1974.7153	744.3875
1977.78901	735.2875
1980.86073	737.9875
1983.93046	734.7875
1986.99819	737.8875
1990.06394	732.4875
1993.1277	729.8875
1996.18947	725.4875
1999.24925	725.9875
2002.30706	721.0875
2005.36288	723.1875
2008.41672	726.9875
2011.46859	720.5875
2014.51848	713.6875
2017.56639	717.4875
2020.61233	714.6875
2023.6563	717.4875
2026.6983	703.6875
2029.73833	716.5875
2032.7764	707.5875
2035.8125	709.8875
2038.84664	710.0875
2041.87881	712.3875
2044.90903	703.2875
2047.93729	706.4875
2050.96359	707.2875
2053.98794	703.5875
2057.01034	704.4875
2060.03078	711.0875
2063.04927	707.2875
2066.06582	713.7875
2069.08042	717.1875
2072.09307	721.6875
2075.10378	713.7875
2078.11255	719.7875
2081.11938	719.6875
2084.12426	719.5875
2087.12722	727.0875
2090.12824	724.9875
2093.12732	734.6875
2096.12447	737.7875
2099.11969	742.2875
2102.11299	744.9875
2105.10435	748.9875
2108.09379	747.4875
2111.08131	755.4875
2114.0669	748.6875
2117.05057	765.5875
2120.03233	756.5875
2123.01216	756.1875
2125.99008	752.4875
2128.96609	755.1875
2131.94018	754.7875
2134.91236	754.6875
2137.88263	761.2875
2140.851	755.0875
2143.81746	755.9875
2146.78201	749.8875
2149.74466	744.7875
2152.7054	745.2875
2155.66425	742.1875
2158.6212	746.3875
2161.57625	745.0875
2164.52941	750.6875
2167.48067	746.1875
2170.43004	748.1875
2173.37752	742.7875
2176.32311	743.3875
2179.26681	742.4875
2182.20863	741.9875
2185.14856	738.2875
2188.08661	741.0875
2191.02278	736.6875
2193.95707	731.6875
2196.88948	718.5875
2199.82001	724.4875
2202.74867	730.2875
2205.67545	721.8875
2208.60037	709.8875
2211.52341	708.2875
2214.44458	713.5875
2217.36388	712.1875
2220.28132	708.0875
2223.1969	699.9875
2226.11061	705.9875
2229.02246	699.4875
2231.93245	702.1875
2234.84058	704.6875
2237.74686	696.1875
2240.65128	698.0875
2243.55385	690.6875
2246.45456	700.2875
2249.35343	692.5875
2252.25044	699.1875
2255.14561	694.0875
2258.03893	687.6875
2260.93041	674.0875
2263.82004	678.5875
2266.70783	677.2875
2269.59378	687.0875
2272.4779	679.6875
2275.36017	681.8875
2278.24061	686.5875
2281.11922	676.6875
2283.996	677.8875
2286.87094	680.4875
2289.74405	679.9875
2292.61534	679.1875
2295.4848	680.3875
2298.35243	678.2875
2301.21824	677.7875
2304.08223	680.4875
2306.94439	674.1875
2309.80474	676.6875
2312.66327	675.7875
2315.51999	679.3875
2318.37489	676.6875
2321.22797	675.7875
2324.07925	677.7875
2326.92871	673.0875
2329.77637	675.8875
2332.62222	666.7875
2335.46626	666.2875
2338.3085	667.4875
2341.14893	661.7875
2343.98756	658.5875
2346.8244	667.7875
2349.65943	661.0875
2352.49267	665.9875
2355.32411	657.7875
2358.15376	656.8875
2360.98161	670.9875
2363.80768	666.4875
2366.63195	673.1875
2369.45444	667.7875
2372.27514	670.6875
2375.09405	665.9875
2377.91118	669.9875
2380.72652	667.0875
2383.54009	654.8875
2386.35187	661.5875
2389.16188	655.8875
2391.97011	666.5875
2394.77657	662.9875
2397.58125	647.1875
2400.38416	660.9875
2403.18529	656.5875
2405.98466	658.5875
2408.78226	654.8875
2411.57809	647.0875
2414.37216	657.1875
2417.16446	645.7875
2419.955	651.8875
2422.74378	653.6875
2425.5308	650.9875
2428.31606	647.8875
2431.09956	651.9875
2433.88131	642.8875
2436.6613	640.2875
2439.43954	648.6875
2442.21603	644.2875
2444.99077	644.6875
2447.76377	653.9875
2450.53501	647.9875
2453.30451	645.1875
2456.07226	641.4875
2458.83827	644.7875
2461.60254	642.7875
2464.36507	645.2875
2467.12586	642.1875
2469.88492	639.6875
2472.64224	645.6875
2475.39782	632.5875
2478.15167	629.7875
2480.90379	638.2875
2483.65417	637.4875
2486.40283	638.8875
2489.14976	643.6875
2491.89497	643.8875
2494.63845	632.1875
2497.3802	631.7875
2500.12024	627.3875
2502.85855	635.5875
2505.59514	632.9875
2508.33002	637.3875
2511.06318	640.2875
2513.79462	642.2875
2516.52435	638.9875
2519.25237	638.3875
2521.97867	640.9875
2524.70327	637.2875
2527.42616	638.9875
2530.14734	633.9875
2532.86681	632.1875
2535.58458	636.9875
2538.30065	637.4875
2541.01501	635.1875
2543.72768	631.7875
2546.43864	627.4875
2549.14791	631.4875
2551.85548	629.3875
2554.56136	629.8875
2557.26554	627.6875
2559.96803	622.0875
2562.66883	623.2875
2565.36794	617.4875
2568.06536	625.6875
2570.7611	626.0875
2573.45514	620.8875
2576.14751	625.2875
2578.83819	613.9875
2581.52719	617.8875
2584.21451	621.7875
2586.90015	613.8875
2589.58411	612.8875
2592.2664	621.2875
2594.94701	621.1875
2597.62594	615.6875
2600.30321	617.5875
2602.9788	614.8875
2605.65273	610.0875
2608.32498	609.8875
2610.99557	611.4875
2613.66449	621.7875
2616.33175	618.7875
2618.99734	614.4875
2621.66128	617.9875
2624.32355	609.7875
2626.98416	612.5875
2629.64311	608.3875
2632.30041	614.0875
2634.95605	611.0875
2637.61004	611.6875
2640.26238	608.6875
2642.91306	609.1875
2645.56209	604.6875
2648.20948	605.6875
2650.85521	605.9875
2653.4993	608.7875
2656.14175	605.5875
2658.78255	608.0875
2661.42171	606.9875
2664.05923	609.8875
2666.6951	610.0875
2669.32934	609.6875
2671.96194	607.5875
2674.59291	614.2875
2677.22224	601.0875
2679.84993	606.6875
2682.476	605.7875
2685.10043	612.3875
2687.72324	614.0875
2690.34441	611.1875
2692.96396	609.6875
2695.58188	614.9875
2698.19818	612.1875
2700.81285	606.4875
2703.4259	598.0875
2706.03733	558.0875
2708.64714	573.3875
2711.25533	588.6875
2713.86191	601.7875
2716.46687	609.4875
2719.07021	610.3875
2721.67194	617.6875
2724.27206	615.6875
2726.87057	622.3875
2729.46747	619.1875
2732.06276	625.7875
2734.65644	621.7875
2737.24852	611.4875
2739.83899	617.9875
2742.42786	624.0875
2745.01513	620.1875
2747.60079	615.5875
2750.18486	617.1875
2752.76733	610.9875
2755.3482	617.2875
2757.92747	614.5875
2760.50515	615.8875
2763.08123	612.4875
2765.65573	610.3875
2768.22863	613.5875
2770.79994	608.2875
2773.36967	612.8875
2775.9378	615.8875
2778.50435	611.2875
2781.06932	623.1875
2783.6327	614.2875
2786.1945	616.1875
2788.75471	606.5875
2791.31335	614.3875
2793.87041	614.4875
2796.42589	614.2875
2798.97979	607.1875
2801.53212	609.7875
2804.08288	607.9875
2806.63206	606.6875
2809.17967	607.3875
2811.72571	604.4875
2814.27018	604.8875
2816.81308	602.5875
2819.35442	604.2875
2821.89419	600.5875
2824.43239	599.3875
2826.96904	592.8875
2829.50412	601.2875
2832.03763	599.2875
2834.56959	601.2875
2837.1	600.5875
2839.62884	598.7875
2842.15613	595.2875
2844.68186	600.9875
2847.20604	603.9875
2849.72867	596.7875
2852.24974	606.4875
2854.76927	598.1875
2857.28724	587.6875
2859.80367	593.1875
2862.31855	599.6875
2864.83189	596.1875
2867.34368	597.9875
2869.85393	598.4875
2872.36264	605.2875
2874.8698	610.4875
2877.37543	603.8875
2879.87952	605.9875
2882.38207	602.1875
2884.88308	608.6875
2887.38256	602.0875
2889.88051	606.1875
2892.37692	611.9875
2894.8718	609.9875
2897.36515	613.5875
2899.85698	614.3875
2902.34727	618.1875
2904.83604	612.2875
2907.32328	619.7875
2909.809	624.3875
2912.29319	628.2875
2914.77587	623.2875
2917.25702	626.2875
2919.73665	626.1875
2922.21476	625.9875
2924.69136	635.3875
2927.16644	635.7875
2929.64	631.5875
2932.11205	633.3875
2934.58258	637.3875
2937.05161	633.0875
2939.51912	638.7875
2941.98513	635.5875
2944.44962	631.9875
2946.91261	636.8875
2949.37409	636.2875
2951.83407	639.3875
2954.29254	644.4875
2956.74951	638.6875
2959.20498	637.6875
2961.65895	634.7875
2964.11142	639.8875
2966.56239	640.7875
2969.01186	639.0875
2971.45984	634.0875
2973.90632	636.2875
2976.35131	635.4875
2978.7948	639.3875
2981.23681	640.1875
2983.67732	640.1875
2986.11635	636.4875
2988.55388	637.0875
2990.98993	644.5875
2993.4245	637.3875
2995.85758	645.1875
2998.28917	654.4875
3000.71928	644.3875
3003.14791	640.7875
3005.57506	648.5875
3008.00073	642.5875
3010.42493	643.1875
3012.84764	654.4875
3015.26888	653.4875
3017.68865	653.8875
3020.10694	657.2875
3022.52376	648.5875
3024.9391	658.6875
3027.35298	665.7875
3029.76539	664.3875
3032.17632	668.4875
3034.5858	667.7875
3036.9938	676.9875
3039.40034	679.7875
3041.80542	679.5875
3044.20903	681.2875
3046.61118	682.3875
3049.01187	683.1875
3051.4111	684.8875
3053.80888	688.7875
3056.20519	697.9875
3058.60005	701.2875
3060.99345	700.6875
3063.3854	700.4875
3065.7759	703.1875
3068.16494	708.5875
3070.55254	705.1875
3072.93868	715.3875
3075.32338	714.4875
3077.70662	715.3875
3080.08842	722.9875
3082.46878	723.4875
3084.84769	721.8875
3087.22515	727.6875
3089.60118	742.4875
3091.97576	744.4875
3094.3489	743.7875
3096.72061	751.3875
3099.09087	755.1875
3101.4597	767.0875
3103.82709	770.9875
3106.19305	777.0875
3108.55757	782.1875
3110.92066	784.8875
3113.28232	797.7875
3115.64255	800.2875
3118.00134	808.4875
3120.35871	806.5875
3122.71466	813.6875
3125.06917	817.2875
3127.42226	815.1875
3129.77393	829.4875
3132.12417	834.3875
3134.47299	838.8875
3136.82039	840.1875
3139.16636	855.2875
3141.51092	857.3875
3143.85406	876.0875
3146.19579	875.0875
3148.53609	880.7875
3150.87499	884.5875
3153.21246	890.3875
3155.54853	908.4875
3157.88318	901.9875
3160.21642	923.5875
3162.54826	922.4875
3164.87868	931.3875
3167.2077	943.3875
3169.5353	950.1875
3171.86151	951.5875
3174.18631	966.0875
3176.5097	963.8875
3178.83169	971.1875
3181.15228	976.6875
3183.47147	982.4875
3185.78926	989.6875
3188.10565	995.4875
3190.42065	1004.2875
3192.73424	1007.5875
3195.04645	1007.5875
3197.35725	1011.2875
3199.66667	1017.9875
3201.97469	1020.5875
3204.28132	1037.3875
3206.58656	1039.5875
3208.8904	1040.0875
3211.19287	1041.1875
3213.49394	1052.5875
3215.79363	1053.3875
3218.09193	1059.3875
3220.38884	1053.4875
3222.68438	1048.6875
3224.97853	1061.5875
3227.2713	1067.3875
3229.56269	1069.9875
3231.8527	1072.1875
3234.14133	1074.4875
3236.42858	1062.6875
3238.71446	1070.5875
3240.99896	1078.0875
3243.28209	1075.4875
3245.56384	1069.2875
3247.84423	1069.2875
3250.12324	1079.3875
3252.40088	1076.5875
3254.67715	1073.9875
3256.95205	1074.9875
3259.22558	1076.2875
3261.49775	1081.5875
3263.76855	1082.2875
3266.03799	1083.6875
3268.30606	1081.6875
3270.57277	1088.3875
3272.83812	1080.7875
3275.10211	1072.7875
3277.36474	1078.9875
3279.62601	1084.0875
3281.88593	1084.2875
3284.14448	1086.9875
3286.40168	1090.4875
3288.65753	1084.1875
3290.91202	1085.1875
3293.16516	1084.7875
3295.41695	1080.8875
3297.66738	1073.9875
3299.91647	1072.4875
3302.16421	1066.4875
3304.4106	1061.4875
3306.65564	1052.4875
3308.89933	1050.1875
3311.14169	1031.7875
3313.38269	1026.6875
3315.62236	1022.9875
3317.86068	1021.8875
3320.09766	1020.1875
3322.3333	1006.9875
3324.5676	993.8875
3326.80056	968.8875
3329.03219	978.4875
3331.26248	-0.8125
3333.49143	0.2875
3335.71905	-1.3125
