Data from AgNPs_APTES_FTO_UA_100uM_CRN_0uM_R6G_10uM_Scan_RamanShift__71__12-02-31-324.txt Node

Date: Wed Jun 29 12:02:31 BST 2022
User: TCL
Spectrometer: QEP01345
Trigger mode: 4
Integration Time (sec): 7.000000E0
Scans to average: 10
Electric dark correction enabled: true
Nonlinearity correction enabled: false
Boxcar width: 0
XAxis mode: Raman Shifts
Number of Pixels in Spectrum: 1044
>>>>>Begin Spectral Data<<<<<
46.04893	0.9375
50.45542	0.6375
54.85868	0.1375
59.25871	0.6375
63.6555	44.8375
68.04907	45.4375
72.43941	51.3375
76.82654	50.5375
81.21044	53.1375
85.59113	56.2375
89.96862	59.9375
94.34289	62.4375
98.71396	66.7375
103.08183	66.6375
107.4465	63.8375
111.80798	68.9375
116.16626	68.4375
120.52136	66.2375
124.87327	62.7375
129.222	65.2375
133.56755	62.5375
137.90993	61.0375
142.24913	61.1375
146.58517	59.8375
150.91804	64.7375
155.24774	67.9375
159.57429	74.1375
163.89768	79.4375
168.21792	90.8375
172.53501	113.0375
176.84895	143.3375
181.15975	188.1375
185.46741	252.4375
189.77193	330.9375
194.07331	432.1375
198.37157	542.9375
202.6667	671.6375
206.9587	790.0375
211.24758	918.6375
215.53334	1048.9375
219.81599	1199.7375
224.09553	1353.7375
228.37195	1541.0375
232.64527	1739.3375
236.91549	1932.4375
241.18261	2099.0375
245.44663	2245.0375
249.70755	2365.5375
253.96539	2473.0375
258.22014	2552.0375
262.4718	2636.9375
266.72039	2706.9375
270.96589	2714.7375
275.20832	2701.5375
279.44768	2627.0375
283.68397	2564.2375
287.91719	2524.1375
292.14735	2505.8375
296.37445	2551.2375
300.59849	2639.4375
304.81948	2755.7375
309.03742	2842.0375
313.25231	2855.3375
317.46415	2743.1375
321.67296	2597.2375
325.87872	2456.3375
330.08145	2400.9375
334.28114	2413.8375
338.47781	2467.8375
342.67145	2527.9375
346.86207	2625.4375
351.04966	2777.2375
355.23424	2916.8375
359.4158	3045.2375
363.59435	3087.6375
367.76989	3109.8375
371.94243	3117.2375
376.11196	3109.8375
380.27849	3125.1375
384.44203	3108.4375
388.60257	3085.7375
392.76012	3067.6375
396.91468	3083.8375
401.06626	3160.6375
405.21485	3188.0375
409.36047	3115.0375
413.50311	2991.3375
417.64277	2849.8375
421.77947	2774.4375
425.9132	2739.9375
430.04396	2737.1375
434.17176	2775.8375
438.2966	2814.7375
442.41849	2874.4375
446.53742	2970.4375
450.6534	3057.7375
454.76644	3094.3375
458.87653	3093.9375
462.98368	3077.9375
467.08789	3029.6375
471.18916	2974.4375
475.2875	2917.5375
479.38291	2887.1375
483.4754	2851.8375
487.56496	2808.0375
491.6516	2810.8375
495.73531	2819.8375
499.81612	2826.1375
503.89401	2845.6375
507.96899	2871.0375
512.04106	2893.0375
516.11023	2947.5375
520.1765	2979.2375
524.23987	2979.8375
528.30034	2984.9375
532.35792	2968.4375
536.41261	2945.4375
540.46441	2883.4375
544.51333	2861.3375
548.55936	2863.9375
552.60252	2914.9375
556.64279	2967.3375
560.6802	2995.7375
564.71473	3051.1375
568.7464	3133.1375
572.7752	3146.7375
576.80114	3047.0375
580.82422	2967.7375
584.84444	2955.1375
588.86181	2981.0375
592.87633	3071.0375
596.888	3186.3375
600.89682	3320.1375
604.9028	3657.9375
608.90594	4573.8375
612.90624	5639.8375
616.90371	5286.9375
620.89834	3892.1375
624.89015	3252.5375
628.87913	3164.1375
632.86528	3201.7375
636.84862	3251.8375
640.82913	3194.8375
644.80683	3052.6375
648.78172	2958.6375
652.75379	2951.4375
656.72306	3055.8375
660.68952	3183.2375
664.65319	3128.1375
668.61405	2979.9375
672.57211	2950.0375
676.52738	2945.4375
680.47986	2927.6375
684.42955	2898.2375
688.37646	2891.9375
692.32058	2917.1375
696.26192	2957.2375
700.20048	2999.5375
704.13626	2995.4375
708.06928	2981.1375
711.99952	2959.1375
715.927	2972.8375
719.85171	3001.1375
723.77365	3021.9375
727.69284	2998.2375
731.60928	2976.6375
735.52295	2986.1375
739.43388	2985.1375
743.34206	2989.2375
747.24749	2993.2375
751.15017	3000.1375
755.05012	2988.9375
758.94733	3155.8375
762.8418	3464.0375
766.73354	3966.3375
770.62254	4457.2375
774.50882	4746.9375
778.39237	4610.9375
782.27321	4096.5375
786.15132	3572.8375
790.02671	3249.9375
793.89938	3108.4375
797.76935	3039.3375
801.6366	3024.1375
805.50115	3028.9375
809.36299	3024.0375
813.22213	3010.7375
817.07857	3012.7375
820.93231	3006.8375
824.78336	3022.3375
828.63172	3017.3375
832.47738	3016.5375
836.32036	3004.3375
840.16066	3007.1375
843.99827	2997.7375
847.8332	2994.3375
851.66546	2991.0375
855.49504	2995.9375
859.32195	2999.8375
863.1462	2980.7375
866.96777	2971.8375
870.78668	2994.4375
874.60293	2993.5375
878.41652	3015.5375
882.22745	3044.8375
886.03573	3065.3375
889.84136	3076.0375
893.64433	3075.4375
897.44466	3052.2375
901.24235	3030.1375
905.0374	3017.1375
908.8298	2990.2375
912.61957	2980.5375
916.40671	2968.9375
920.19121	2976.1375
923.97308	2998.9375
927.75233	3043.6375
931.52895	3085.6375
935.30295	3056.4375
939.07433	3006.1375
942.84309	2946.8375
946.60924	2896.3375
950.37278	2897.8375
954.13371	2885.5375
957.89203	2884.6375
961.64774	2878.2375
965.40086	2871.9375
969.15137	2877.6375
972.89929	2870.9375
976.64461	2871.3375
980.38733	2873.6375
984.12747	2883.5375
987.86502	2899.2375
991.59999	2924.9375
995.33237	2961.1375
999.06217	3021.2375
1002.78939	3096.7375
1006.51404	3137.5375
1010.23611	3166.9375
1013.95561	3189.6375
1017.67255	3192.3375
1021.38692	3164.3375
1025.09872	3131.6375
1028.80796	3116.4375
1032.51465	3158.3375
1036.21877	3197.6375
1039.92035	3205.3375
1043.61937	3177.4375
1047.31584	3151.4375
1051.00976	3131.2375
1054.70114	3097.6375
1058.38998	3084.6375
1062.07627	3093.9375
1065.76003	3089.6375
1069.44126	3105.0375
1073.11995	3130.6375
1076.79611	3195.0375
1080.46974	3269.9375
1084.14085	3363.1375
1087.80943	3435.6375
1091.47549	3447.6375
1095.13903	3372.3375
1098.80005	3291.6375
1102.45857	3213.7375
1106.11456	3218.9375
1109.76805	3263.7375
1113.41903	3342.0375
1117.06751	3453.0375
1120.71348	3608.0375
1124.35696	3760.3375
1127.99793	3879.6375
1131.63641	3834.3375
1135.2724	3658.5375
1138.90589	3511.0375
1142.5369	3390.8375
1146.16542	3304.2375
1149.79145	3248.7375
1153.415	3216.1375
1157.03607	3226.3375
1160.65467	3259.3375
1164.27079	3315.0375
1167.88443	3470.3375
1171.49561	3692.5375
1175.10432	4061.3375
1178.71056	4595.1375
1182.31434	5109.2375
1185.91565	5285.9375
1189.51451	5119.8375
1193.11091	4769.2375
1196.70485	4415.7375
1200.29634	4180.1375
1203.88538	3990.7375
1207.47197	3745.7375
1211.05612	3555.0375
1214.63782	3440.8375
1218.21708	3404.9375
1221.79391	3389.8375
1225.36829	3415.3375
1228.94024	3402.5375
1232.50976	3369.8375
1236.07685	3356.1375
1239.6415	3359.1375
1243.20374	3382.7375
1246.76355	3412.8375
1250.32093	3447.1375
1253.8759	3495.3375
1257.42845	3590.2375
1260.97859	3710.6375
1264.52631	3852.8375
1268.07163	3979.3375
1271.61453	4073.3375
1275.15503	4089.1375
1278.69312	4093.6375
1282.22882	4115.8375
1285.76211	4189.4375
1289.29301	4322.3375
1292.82151	4477.6375
1296.34761	4644.8375
1299.87133	4941.8375
1303.39266	5373.9375
1306.9116	6059.3375
1310.42815	6705.6375
1313.94233	6909.6375
1317.45412	6502.8375
1320.96354	5875.9375
1324.47058	5270.0375
1327.97525	4804.5375
1331.47754	4491.5375
1334.97747	4375.2375
1338.47502	4405.3375
1341.97022	4542.4375
1345.46305	4813.1375
1348.95352	5207.3375
1352.44163	5728.3375
1355.92738	6459.6375
1359.41078	7565.6375
1362.89183	8495.9375
1366.37053	8109.9375
1369.84688	6679.1375
1373.32088	5451.2375
1376.79254	4796.3375
1380.26186	4500.4375
1383.72883	4272.7375
1387.19347	4038.8375
1390.65578	3836.0375
1394.11575	3669.8375
1397.57339	3575.2375
1401.0287	3553.1375
1404.48168	3531.4375
1407.93234	3536.6375
1411.38068	3569.2375
1414.82669	3602.0375
1418.27039	3634.1375
1421.71177	3600.1375
1425.15083	3548.9375
1428.58758	3558.3375
1432.02203	3638.0375
1435.45416	3740.8375
1438.88399	3775.8375
1442.31151	3735.0375
1445.73673	3733.0375
1449.15965	3706.8375
1452.58027	3680.6375
1455.9986	3589.0375
1459.41463	3555.3375
1462.82837	3583.4375
1466.23982	3663.0375
1469.64898	3780.4375
1473.05586	3848.8375
1476.46045	3937.1375
1479.86276	4011.9375
1483.26279	4121.6375
1486.66054	4244.9375
1490.05602	4418.2375
1493.44922	4669.2375
1496.84016	5002.2375
1500.22882	5487.1375
1503.61521	6191.6375
1506.99934	7070.8375
1510.38121	7711.3375
1513.76081	7668.4375
1517.13816	6899.6375
1520.51324	5852.2375
1523.88607	4984.3375
1527.25665	4469.6375
1530.62498	4187.1375
1533.99105	4035.6375
1537.35488	3945.6375
1540.71647	3873.7375
1544.07581	3867.3375
1547.4329	3865.6375
1550.78776	3870.3375
1554.14038	3885.2375
1557.49077	3881.4375
1560.83892	3933.9375
1564.18484	4051.4375
1567.52853	4244.0375
1570.86999	4421.7375
1574.20922	4533.7375
1577.54624	4501.4375
1580.88103	4238.1375
1584.2136	3937.2375
1587.54395	3737.4375
1590.87208	3773.1375
1594.19801	3978.1375
1597.52172	4295.4375
1600.84321	4453.4375
1604.16251	4368.1375
1607.47959	4105.1375
1610.79447	3801.6375
1614.10715	3527.0375
1617.41763	3349.0375
1620.7259	3227.6375
1624.03199	3196.9375
1627.33587	3205.2375
1630.63757	3283.9375
1633.93707	3404.1375
1637.23439	3667.2375
1640.52951	4101.5375
1643.82246	4746.7375
1647.11321	5460.2375
1650.40179	5843.0375
1653.68819	5571.7375
1656.97241	4805.8375
1660.25446	4024.9375
1663.53433	3504.4375
1666.81203	3210.4375
1670.08756	3056.9375
1673.36092	2958.7375
1676.63211	2891.3375
1679.90115	2856.1375
1683.16801	2801.3375
1686.43272	2788.4375
1689.69527	2772.0375
1692.95567	2755.5375
1696.2139	2734.8375
1699.46999	2746.2375
1702.72392	2724.3375
1705.97571	2713.3375
1709.22535	2701.6375
1712.47284	2681.9375
1715.71819	2688.0375
1718.96139	2683.2375
1722.20246	2669.6375
1725.44139	2649.5375
1728.67818	2633.7375
1731.91284	2617.9375
1735.14537	2590.7375
1738.37576	2585.9375
1741.60403	2586.2375
1744.83017	2564.5375
1748.05418	2567.1375
1751.27607	2552.4375
1754.49584	2565.6375
1757.71349	2551.8375
1760.92903	2548.8375
1764.14244	2545.0375
1767.35375	2536.2375
1770.56294	2521.7375
1773.77002	2517.1375
1776.97499	2521.2375
1780.17785	2503.6375
1783.37861	2495.6375
1786.57727	2498.2375
1789.77382	2493.4375
1792.96828	2487.7375
1796.16064	2478.7375
1799.3509	2479.6375
1802.53907	2468.6375
1805.72514	2472.6375
1808.90913	2466.5375
1812.09102	2464.7375
1815.27083	2443.2375
1818.44856	2429.5375
1821.6242	2433.7375
1824.79776	2433.4375
1827.96924	2421.6375
1831.13864	2420.3375
1834.30597	2410.7375
1837.47122	2408.5375
1840.6344	2401.8375
1843.7955	2401.3375
1846.95454	2399.5375
1850.11151	2400.2375
1853.26642	2389.7375
1856.41926	2388.0375
1859.57004	2385.2375
1862.71876	2403.1375
1865.86542	2392.3375
1869.01003	2389.5375
1872.15258	2373.3375
1875.29308	2389.2375
1878.43152	2388.8375
1881.56792	2385.6375
1884.70227	2384.3375
1887.83457	2365.3375
1890.96482	2368.2375
1894.09304	2360.1375
1897.21921	2365.8375
1900.34335	2349.9375
1903.46544	2358.6375
1906.58551	2360.9375
1909.70353	2354.0375
1912.81953	2364.6375
1915.93349	2361.8375
1919.04543	2354.9375
1922.15534	2345.5375
1925.26322	2340.1375
1928.36908	2335.6375
1931.47292	2337.7375
1934.57473	2328.2375
1937.67453	2332.1375
1940.77232	2325.4375
1943.86808	2314.6375
1946.96184	2310.8375
1950.05358	2298.7375
1953.14331	2280.3375
1956.23103	2293.5375
1959.31675	2288.2375
1962.40046	2272.7375
1965.48217	2265.1375
1968.56188	2260.3375
1971.63959	2252.7375
1974.7153	2246.0375
1977.78901	2245.9375
1980.86073	2229.4375
1983.93046	2227.6375
1986.99819	2215.4375
1990.06394	2208.0375
1993.1277	2201.4375
1996.18947	2203.2375
1999.24925	2190.2375
2002.30706	2182.0375
2005.36288	2178.8375
2008.41672	2168.3375
2011.46859	2167.3375
2014.51848	2153.2375
2017.56639	2150.0375
2020.61233	2151.0375
2023.6563	2147.4375
2026.6983	2140.5375
2029.73833	2142.3375
2032.7764	2124.9375
2035.8125	2124.8375
2038.84664	2118.4375
2041.87881	2124.1375
2044.90903	2110.7375
2047.93729	2121.3375
2050.96359	2101.2375
2053.98794	2104.3375
2057.01034	2109.8375
2060.03078	2100.3375
2063.04927	2099.7375
2066.06582	2097.3375
2069.08042	2093.7375
2072.09307	2108.9375
2075.10378	2092.2375
2078.11255	2101.1375
2081.11938	2082.9375
2084.12426	2087.3375
2087.12722	2100.2375
2090.12824	2087.4375
2093.12732	2078.5375
2096.12447	2096.1375
2099.11969	2098.8375
2102.11299	2098.4375
2105.10435	2094.2375
2108.09379	2087.8375
2111.08131	2093.9375
2114.0669	2098.0375
2117.05057	2096.0375
2120.03233	2110.9375
2123.01216	2107.2375
2125.99008	2101.9375
2128.96609	2098.8375
2131.94018	2102.5375
2134.91236	2099.9375
2137.88263	2120.1375
2140.851	2107.9375
2143.81746	2112.5375
2146.78201	2108.9375
2149.74466	2117.2375
2152.7054	2107.1375
2155.66425	2096.1375
2158.6212	2118.0375
2161.57625	2111.1375
2164.52941	2103.5375
2167.48067	2099.0375
2170.43004	2097.8375
2173.37752	2096.1375
2176.32311	2095.7375
2179.26681	2093.5375
2182.20863	2105.9375
2185.14856	2102.7375
2188.08661	2108.6375
2191.02278	2109.5375
2193.95707	2103.8375
2196.88948	2091.5375
2199.82001	2108.2375
2202.74867	2083.5375
2205.67545	2091.3375
2208.60037	2086.4375
2211.52341	2090.1375
2214.44458	2078.8375
2217.36388	2071.9375
2220.28132	2071.0375
2223.1969	2073.6375
2226.11061	2070.2375
2229.02246	2059.3375
2231.93245	2057.2375
2234.84058	2040.1375
2237.74686	2054.3375
2240.65128	2052.1375
2243.55385	2049.2375
2246.45456	2052.5375
2249.35343	2055.8375
2252.25044	2049.8375
2255.14561	2049.0375
2258.03893	2046.1375
2260.93041	2045.0375
2263.82004	2035.5375
2266.70783	2036.8375
2269.59378	2083.2375
2272.4779	2083.7375
2275.36017	2016.9375
2278.24061	2014.7375
2281.11922	1999.8375
2283.996	2004.4375
2286.87094	2006.9375
2289.74405	2000.6375
2292.61534	1985.4375
2295.4848	1990.6375
2298.35243	1994.3375
2301.21824	1979.4375
2304.08223	1986.7375
2306.94439	2000.7375
2309.80474	1991.0375
2312.66327	1988.1375
2315.51999	1994.2375
2318.37489	1997.8375
2321.22797	1985.7375
2324.07925	1981.1375
2326.92871	1979.9375
2329.77637	1990.3375
2332.62222	1976.2375
2335.46626	1975.7375
2338.3085	1969.5375
2341.14893	1970.2375
2343.98756	1970.4375
2346.8244	1964.0375
2349.65943	1959.1375
2352.49267	1970.2375
2355.32411	1970.1375
2358.15376	1970.9375
2360.98161	1968.2375
2363.80768	1972.8375
2366.63195	1971.7375
2369.45444	1983.0375
2372.27514	1977.1375
2375.09405	1972.6375
2377.91118	1966.0375
2380.72652	1967.6375
2383.54009	1960.7375
2386.35187	1948.7375
2389.16188	1947.7375
2391.97011	1948.5375
2394.77657	1949.9375
2397.58125	1921.6375
2400.38416	1925.7375
2403.18529	1928.3375
2405.98466	1914.7375
2408.78226	1920.1375
2411.57809	1907.3375
2414.37216	1911.2375
2417.16446	1907.4375
2419.955	1907.2375
2422.74378	1906.1375
2425.5308	1899.3375
2428.31606	1907.5375
2431.09956	1900.2375
2433.88131	1893.6375
2436.6613	1895.4375
2439.43954	1909.6375
2442.21603	1901.0375
2444.99077	1890.3375
2447.76377	1903.6375
2450.53501	1917.8375
2453.30451	1903.4375
2456.07226	1897.7375
2458.83827	1889.6375
2461.60254	1888.3375
2464.36507	1900.0375
2467.12586	1885.9375
2469.88492	1888.6375
2472.64224	1893.7375
2475.39782	1890.5375
2478.15167	1892.4375
2480.90379	1895.7375
2483.65417	1912.7375
2486.40283	1911.3375
2489.14976	1910.6375
2491.89497	1897.6375
2494.63845	1905.7375
2497.3802	1913.4375
2500.12024	1900.8375
2502.85855	1897.4375
2505.59514	1890.3375
2508.33002	1882.7375
2511.06318	1880.0375
2513.79462	1878.4375
2516.52435	1870.5375
2519.25237	1862.1375
2521.97867	1864.0375
2524.70327	1866.3375
2527.42616	1859.1375
2530.14734	1855.5375
2532.86681	1847.5375
2535.58458	1850.2375
2538.30065	1855.0375
2541.01501	1855.0375
2543.72768	1850.7375
2546.43864	1849.7375
2549.14791	1840.3375
2551.85548	1850.6375
2554.56136	1842.6375
2557.26554	1843.4375
2559.96803	1844.8375
2562.66883	1848.3375
2565.36794	1833.0375
2568.06536	1837.4375
2570.7611	1830.8375
2573.45514	1833.0375
2576.14751	1827.4375
2578.83819	1811.9375
2581.52719	1820.1375
2584.21451	1819.5375
2586.90015	1803.9375
2589.58411	1810.2375
2592.2664	1805.4375
2594.94701	1820.8375
2597.62594	1804.3375
2600.30321	1802.6375
2602.9788	1810.4375
2605.65273	1796.1375
2608.32498	1793.0375
2610.99557	1799.1375
2613.66449	1801.2375
2616.33175	1793.1375
2618.99734	1793.7375
2621.66128	1797.9375
2624.32355	1786.4375
2626.98416	1786.6375
2629.64311	1786.9375
2632.30041	1775.4375
2634.95605	1783.4375
2637.61004	1782.9375
2640.26238	1777.5375
2642.91306	1763.0375
2645.56209	1768.0375
2648.20948	1769.7375
2650.85521	1763.5375
2653.4993	1773.0375
2656.14175	1772.7375
2658.78255	1775.7375
2661.42171	1769.3375
2664.05923	1780.0375
2666.6951	1775.4375
2669.32934	1777.2375
2671.96194	1780.2375
2674.59291	1780.5375
2677.22224	1776.3375
2679.84993	1765.4375
2682.476	1775.3375
2685.10043	1768.6375
2687.72324	1774.2375
2690.34441	1779.0375
2692.96396	1767.7375
2695.58188	1775.2375
2698.19818	1760.7375
2700.81285	1772.2375
2703.4259	1774.4375
2706.03733	1771.8375
2708.64714	1760.8375
2711.25533	1761.6375
2713.86191	1769.1375
2716.46687	1776.6375
2719.07021	1765.4375
2721.67194	1776.1375
2724.27206	1776.3375
2726.87057	1775.8375
2729.46747	1771.1375
2732.06276	1779.4375
2734.65644	1777.4375
2737.24852	1779.8375
2739.83899	1777.9375
2742.42786	1780.2375
2745.01513	1774.7375
2747.60079	1777.6375
2750.18486	1767.6375
2752.76733	1770.9375
2755.3482	1761.2375
2757.92747	1760.6375
2760.50515	1749.6375
2763.08123	1760.2375
2765.65573	1758.7375
2768.22863	1756.8375
2770.79994	1747.7375
2773.36967	1754.2375
2775.9378	1759.4375
2778.50435	1759.5375
2781.06932	1750.2375
2783.6327	1745.1375
2786.1945	1751.5375
2788.75471	1743.5375
2791.31335	1742.0375
2793.87041	1753.2375
2796.42589	1747.1375
2798.97979	1746.1375
2801.53212	1748.8375
2804.08288	1737.6375
2806.63206	1740.4375
2809.17967	1736.2375
2811.72571	1727.9375
2814.27018	1744.8375
2816.81308	1735.3375
2819.35442	1727.1375
2821.89419	1720.2375
2824.43239	1732.2375
2826.96904	1726.1375
2829.50412	1720.7375
2832.03763	1720.1375
2834.56959	1722.4375
2837.1	1720.1375
2839.62884	1724.9375
2842.15613	1723.6375
2844.68186	1727.9375
2847.20604	1720.6375
2849.72867	1714.4375
2852.24974	1726.1375
2854.76927	1731.1375
2857.28724	1727.7375
2859.80367	1731.3375
2862.31855	1739.9375
2864.83189	1734.1375
2867.34368	1723.3375
2869.85393	1720.8375
2872.36264	1726.3375
2874.8698	1725.3375
2877.37543	1728.8375
2879.87952	1728.8375
2882.38207	1726.8375
2884.88308	1725.1375
2887.38256	1731.0375
2889.88051	1720.9375
2892.37692	1735.7375
2894.8718	1730.0375
2897.36515	1735.0375
2899.85698	1725.7375
2902.34727	1731.2375
2904.83604	1732.4375
2907.32328	1744.8375
2909.809	1739.4375
2912.29319	1739.2375
2914.77587	1747.7375
2917.25702	1743.5375
2919.73665	1745.9375
2922.21476	1741.2375
2924.69136	1734.0375
2927.16644	1741.7375
2929.64	1746.6375
2932.11205	1724.6375
2934.58258	1730.5375
2937.05161	1725.5375
2939.51912	1727.1375
2941.98513	1730.3375
2944.44962	1725.1375
2946.91261	1727.1375
2949.37409	1725.5375
2951.83407	1723.4375
2954.29254	1734.1375
2956.74951	1730.3375
2959.20498	1727.0375
2961.65895	1732.8375
2964.11142	1737.8375
2966.56239	1724.7375
2969.01186	1736.3375
2971.45984	1723.8375
2973.90632	1714.9375
2976.35131	1726.2375
2978.7948	1726.4375
2981.23681	1723.2375
2983.67732	1714.0375
2986.11635	1709.3375
2988.55388	1710.9375
2990.98993	1694.9375
2993.4245	1705.2375
2995.85758	1711.1375
2998.28917	1709.6375
3000.71928	1710.7375
3003.14791	1703.5375
3005.57506	1714.2375
3008.00073	1699.1375
3010.42493	1701.0375
3012.84764	1700.5375
3015.26888	1709.5375
3017.68865	1704.2375
3020.10694	1707.5375
3022.52376	1708.1375
3024.9391	1703.5375
3027.35298	1707.6375
3029.76539	1705.0375
3032.17632	1706.5375
3034.5858	1699.9375
3036.9938	1709.4375
3039.40034	1697.5375
3041.80542	1706.1375
3044.20903	1715.2375
3046.61118	1713.7375
3049.01187	1708.8375
3051.4111	1706.2375
3053.80888	1719.6375
3056.20519	1725.6375
3058.60005	1722.5375
3060.99345	1715.1375
3063.3854	1718.5375
3065.7759	1715.9375
3068.16494	1722.6375
3070.55254	1721.3375
3072.93868	1714.4375
3075.32338	1715.9375
3077.70662	1725.4375
3080.08842	1708.2375
3082.46878	1722.4375
3084.84769	1723.7375
3087.22515	1729.7375
3089.60118	1729.4375
3091.97576	1738.5375
3094.3489	1740.9375
3096.72061	1747.4375
3099.09087	1747.2375
3101.4597	1760.6375
3103.82709	1756.1375
3106.19305	1769.6375
3108.55757	1771.3375
3110.92066	1780.5375
3113.28232	1778.3375
3115.64255	1789.5375
3118.00134	1783.4375
3120.35871	1784.0375
3122.71466	1796.7375
3125.06917	1797.9375
3127.42226	1804.0375
3129.77393	1797.2375
3132.12417	1807.3375
3134.47299	1805.7375
3136.82039	1818.7375
3139.16636	1824.2375
3141.51092	1829.1375
3143.85406	1841.9375
3146.19579	1837.5375
3148.53609	1850.4375
3150.87499	1859.0375
3153.21246	1863.3375
3155.54853	1867.3375
3157.88318	1880.0375
3160.21642	1890.3375
3162.54826	1894.6375
3164.87868	1896.9375
3167.2077	1910.2375
3169.5353	1913.3375
3171.86151	1922.1375
3174.18631	1929.8375
3176.5097	1935.6375
3178.83169	1935.6375
3181.15228	1943.4375
3183.47147	1953.1375
3185.78926	1948.9375
3188.10565	1965.8375
3190.42065	1956.7375
3192.73424	1962.6375
3195.04645	1964.2375
3197.35725	1954.5375
3199.66667	1976.6375
3201.97469	1979.1375
3204.28132	1979.3375
3206.58656	1994.3375
3208.8904	1993.2375
3211.19287	1999.0375
3213.49394	2002.9375
3215.79363	2008.7375
3218.09193	2015.1375
3220.38884	2029.6375
3222.68438	2031.4375
3224.97853	2034.8375
3227.2713	2030.7375
3229.56269	2026.9375
3231.8527	2035.2375
3234.14133	2027.5375
3236.42858	2017.5375
3238.71446	2032.0375
3240.99896	2024.6375
3243.28209	2026.4375
3245.56384	2028.8375
3247.84423	2016.1375
3250.12324	2019.5375
3252.40088	2025.2375
3254.67715	2019.2375
3256.95205	2012.5375
3259.22558	2024.7375
3261.49775	2019.6375
3263.76855	2030.0375
3266.03799	2040.2375
3268.30606	2033.9375
3270.57277	2035.7375
3272.83812	2033.2375
3275.10211	2017.2375
3277.36474	2015.2375
3279.62601	2023.3375
3281.88593	2007.0375
3284.14448	2023.3375
3286.40168	2029.5375
3288.65753	2026.4375
3290.91202	2028.5375
3293.16516	2018.4375
3295.41695	2026.0375
3297.66738	2006.0375
3299.91647	2004.7375
3302.16421	1985.3375
3304.4106	1983.6375
3306.65564	1961.2375
3308.89933	1951.4375
3311.14169	1946.0375
3313.38269	1919.0375
3315.62236	1915.3375
3317.86068	1896.4375
3320.09766	1879.8375
3322.3333	1874.7375
3324.5676	1863.5375
3326.80056	1837.0375
3329.03219	1825.7375
3331.26248	-0.0625
3333.49143	-0.0625
3335.71905	-2.1625
