Data from AgNPs_APTES_FTO_UA_100uM_CRN_0uM_R6G_10uM_Scan_RamanShift__58__11-47-21-306.txt Node

Date: Wed Jun 29 11:47:21 BST 2022
User: TCL
Spectrometer: QEP01345
Trigger mode: 4
Integration Time (sec): 7.000000E0
Scans to average: 10
Electric dark correction enabled: true
Nonlinearity correction enabled: false
Boxcar width: 0
XAxis mode: Raman Shifts
Number of Pixels in Spectrum: 1044
>>>>>Begin Spectral Data<<<<<
46.04893	0.3
50.45542	-0.7
54.85868	0.8
59.25871	1.8
63.6555	37.9
68.04907	42.8
72.43941	46.4
76.82654	44.9
81.21044	50.9
85.59113	53.8
89.96862	57.7
94.34289	59.8
98.71396	59.9
103.08183	59.9
107.4465	61.6
111.80798	66.3
116.16626	62.7
120.52136	64.2
124.87327	58.7
129.222	61.5
133.56755	61.4
137.90993	54.7
142.24913	58.1
146.58517	55.4
150.91804	57
155.24774	58.7
159.57429	61.9
163.89768	66.4
168.21792	71.8
172.53501	84.9
176.84895	99.2
181.15975	130
185.46741	163.4
189.77193	211.3
194.07331	272.9
198.37157	346.7
202.6667	419.7
206.9587	485.5
211.24758	567.8
215.53334	638.4
219.81599	723.4
224.09553	812.3
228.37195	904.3
232.64527	1009.2
236.91549	1111.2
241.18261	1201.4
245.44663	1291.9
249.70755	1352.1
253.96539	1430.4
258.22014	1483.8
262.4718	1512.2
266.72039	1540.8
270.96589	1537.1
275.20832	1522.2
279.44768	1490.9
283.68397	1461.3
287.91719	1440.8
292.14735	1441.7
296.37445	1443.7
300.59849	1482.5
304.81948	1529.3
309.03742	1573.2
313.25231	1573
317.46415	1533.6
321.67296	1473.3
325.87872	1402.1
330.08145	1386.2
334.28114	1394.4
338.47781	1413.4
342.67145	1443.2
346.86207	1481.6
351.04966	1550.4
355.23424	1624.7
359.4158	1695.1
363.59435	1719.1
367.76989	1725.2
371.94243	1720.6
376.11196	1713.2
380.27849	1722.8
384.44203	1705
388.60257	1707
392.76012	1713.1
396.91468	1728
401.06626	1765.6
405.21485	1780.1
409.36047	1754.8
413.50311	1713.6
417.64277	1666.5
421.77947	1641
425.9132	1613.5
430.04396	1643.1
434.17176	1638.2
438.2966	1662.3
442.41849	1703.9
446.53742	1727.4
450.6534	1753
454.76644	1779
458.87653	1775.2
462.98368	1775.3
467.08789	1761
471.18916	1727.2
475.2875	1720.7
479.38291	1709.5
483.4754	1715
487.56496	1715.4
491.6516	1733.5
495.73531	1736.9
499.81612	1727.8
503.89401	1733.3
507.96899	1728.6
512.04106	1732.9
516.11023	1765.3
520.1765	1783.6
524.23987	1791.1
528.30034	1796.2
532.35792	1785.1
536.41261	1766.8
540.46441	1737.8
544.51333	1723.1
548.55936	1721.5
552.60252	1740
556.64279	1753.2
560.6802	1764
564.71473	1793.2
568.7464	1835.3
572.7752	1853.2
576.80114	1792.3
580.82422	1745.7
584.84444	1745.7
588.86181	1763.3
592.87633	1778.9
596.888	1798.7
600.89682	1847.9
604.9028	1994.6
608.90594	2359.2
612.90624	2788.6
616.90371	2706
620.89834	2194
624.89015	2002.8
628.87913	2015.4
632.86528	2083.6
636.84862	2119.2
640.82913	2082.8
644.80683	1987.2
648.78172	1909.4
652.75379	1876.2
656.72306	1885.8
660.68952	1918.5
664.65319	1888.3
668.61405	1839
672.57211	1820.7
676.52738	1808.8
680.47986	1809.2
684.42955	1810.9
688.37646	1824.2
692.32058	1828.6
696.26192	1835.3
700.20048	1842.7
704.13626	1843.9
708.06928	1824.5
711.99952	1809.4
715.927	1817
719.85171	1834.1
723.77365	1842.9
727.69284	1845.6
731.60928	1839.4
735.52295	1836.2
739.43388	1823.5
743.34206	1826.2
747.24749	1833.3
751.15017	1835.9
755.05012	1828.7
758.94733	1900
762.8418	2041.2
766.73354	2240.9
770.62254	2420.7
774.50882	2493.3
778.39237	2430.8
782.27321	2259.1
786.15132	2042.1
790.02671	1922.2
793.89938	1866.8
797.76935	1862
801.6366	1868.6
805.50115	1895.9
809.36299	1932.5
813.22213	1954.2
817.07857	1929
820.93231	1885.8
824.78336	1857.6
828.63172	1841.2
832.47738	1844.6
836.32036	1835.2
840.16066	1819.4
843.99827	1831.5
847.8332	1822.6
851.66546	1813.2
855.49504	1818.4
859.32195	1827.6
863.1462	1822.2
866.96777	1831.2
870.78668	1844.9
874.60293	1863
878.41652	1882.2
882.22745	1926.4
886.03573	1939.1
889.84136	1934.6
893.64433	1938.7
897.44466	1898.9
901.24235	1870.9
905.0374	1845.1
908.8298	1820
912.61957	1803.5
916.40671	1800.7
920.19121	1802.9
923.97308	1809.2
927.75233	1836.6
931.52895	1844.4
935.30295	1832.2
939.07433	1805
942.84309	1785
946.60924	1771.4
950.37278	1773.3
954.13371	1766.1
957.89203	1764.9
961.64774	1756.3
965.40086	1748.3
969.15137	1741.9
972.89929	1746
976.64461	1738
980.38733	1740.7
984.12747	1737.9
987.86502	1756.4
991.59999	1762.8
995.33237	1784.4
999.06217	1816.7
1002.78939	1849
1006.51404	1886
1010.23611	1915
1013.95561	1927.7
1017.67255	1937.1
1021.38692	1929.5
1025.09872	1905.8
1028.80796	1903.2
1032.51465	1918.7
1036.21877	1919.8
1039.92035	1918.7
1043.61937	1910.5
1047.31584	1889.2
1051.00976	1873.6
1054.70114	1863
1058.38998	1872.7
1062.07627	1880.2
1065.76003	1884.4
1069.44126	1894.4
1073.11995	1915.3
1076.79611	1923.4
1080.46974	1947.2
1084.14085	1985.8
1087.80943	1999.3
1091.47549	1981.4
1095.13903	1963.8
1098.80005	1920.1
1102.45857	1895.2
1106.11456	1894.8
1109.76805	1913.2
1113.41903	1959
1117.06751	2013.4
1120.71348	2097.7
1124.35696	2213.4
1127.99793	2312.8
1131.63641	2313.1
1135.2724	2272.9
1138.90589	2228.8
1142.5369	2146.9
1146.16542	2087.3
1149.79145	2021.5
1153.415	1958
1157.03607	1933.1
1160.65467	1946.3
1164.27079	1955.4
1167.88443	2001.1
1171.49561	2097.6
1175.10432	2220.4
1178.71056	2422.4
1182.31434	2579.3
1185.91565	2619.4
1189.51451	2594.5
1193.11091	2504.2
1196.70485	2427
1200.29634	2389.9
1203.88538	2335.7
1207.47197	2258.3
1211.05612	2178
1214.63782	2101
1218.21708	2054.1
1221.79391	2029.9
1225.36829	2010.8
1228.94024	1992.9
1232.50976	1980
1236.07685	1971.8
1239.6415	1975.7
1243.20374	1988.6
1246.76355	2008.6
1250.32093	2017.2
1253.8759	2046.4
1257.42845	2088.9
1260.97859	2120.6
1264.52631	2168.9
1268.07163	2209.1
1271.61453	2234.3
1275.15503	2245.3
1278.69312	2273.3
1282.22882	2284.6
1285.76211	2325
1289.29301	2376.4
1292.82151	2415.7
1296.34761	2469.5
1299.87133	2571.4
1303.39266	2742.3
1306.9116	3011.7
1310.42815	3286.3
1313.94233	3359.9
1317.45412	3188.7
1320.96354	2932.8
1324.47058	2708.1
1327.97525	2533.3
1331.47754	2450.9
1334.97747	2440.2
1338.47502	2482.3
1341.97022	2566.9
1345.46305	2712.7
1348.95352	2878.4
1352.44163	3052.6
1355.92738	3342
1359.41078	3759
1362.89183	4099.5
1366.37053	3860.3
1369.84688	3294.4
1373.32088	2833.9
1376.79254	2584.6
1380.26186	2440.8
1383.72883	2330.4
1387.19347	2245.1
1390.65578	2159.4
1394.11575	2111.8
1397.57339	2083.7
1401.0287	2076.8
1404.48168	2050.6
1407.93234	2055
1411.38068	2062.1
1414.82669	2070.4
1418.27039	2066.4
1421.71177	2047
1425.15083	2026.4
1428.58758	2035.1
1432.02203	2067.6
1435.45416	2078.5
1438.88399	2067
1442.31151	2060.2
1445.73673	2065
1449.15965	2062
1452.58027	2076.5
1455.9986	2061.1
1459.41463	2061
1462.82837	2075.4
1466.23982	2100.9
1469.64898	2134.6
1473.05586	2148.2
1476.46045	2155.5
1479.86276	2154.5
1483.26279	2181.7
1486.66054	2239
1490.05602	2288.2
1493.44922	2406.3
1496.84016	2550.1
1500.22882	2816.6
1503.61521	3131
1506.99934	3521.1
1510.38121	3805.3
1513.76081	3809.9
1517.13816	3500.1
1520.51324	3063.9
1523.88607	2687.2
1527.25665	2464.9
1530.62498	2340.5
1533.99105	2277.3
1537.35488	2233.7
1540.71647	2222.7
1544.07581	2221.4
1547.4329	2234.9
1550.78776	2249.5
1554.14038	2261.2
1557.49077	2277.9
1560.83892	2306.4
1564.18484	2363.5
1567.52853	2418.7
1570.86999	2476.9
1574.20922	2496.3
1577.54624	2474.4
1580.88103	2382.3
1584.2136	2258.5
1587.54395	2174.4
1590.87208	2191.4
1594.19801	2268.7
1597.52172	2378.5
1600.84321	2428.1
1604.16251	2397.1
1607.47959	2314.4
1610.79447	2221.5
1614.10715	2133.7
1617.41763	2052.1
1620.7259	2013
1624.03199	2005.6
1627.33587	2002.4
1630.63757	2024.8
1633.93707	2082.1
1637.23439	2172.7
1640.52951	2320.7
1643.82246	2557.4
1647.11321	2805.7
1650.40179	2949.1
1653.68819	2852.4
1656.97241	2563.5
1660.25446	2267.2
1663.53433	2054.5
1666.81203	1941.1
1670.08756	1861.6
1673.36092	1831.5
1676.63211	1796.7
1679.90115	1763.2
1683.16801	1744
1686.43272	1729.6
1689.69527	1716.1
1692.95567	1705.9
1696.2139	1694.7
1699.46999	1677.2
1702.72392	1655.9
1705.97571	1644
1709.22535	1631.7
1712.47284	1628.9
1715.71819	1621.1
1718.96139	1616.1
1722.20246	1611.3
1725.44139	1593.9
1728.67818	1575.9
1731.91284	1560.5
1735.14537	1559.9
1738.37576	1553.5
1741.60403	1538.2
1744.83017	1532.1
1748.05418	1526.6
1751.27607	1537.1
1754.49584	1525.5
1757.71349	1523.8
1760.92903	1522.3
1764.14244	1522.7
1767.35375	1506.4
1770.56294	1505
1773.77002	1506.8
1776.97499	1487.5
1780.17785	1491
1783.37861	1491.3
1786.57727	1495.8
1789.77382	1492.8
1792.96828	1484.9
1796.16064	1481.6
1799.3509	1479.6
1802.53907	1477.2
1805.72514	1471.3
1808.90913	1471.5
1812.09102	1473.4
1815.27083	1454.5
1818.44856	1459
1821.6242	1460.3
1824.79776	1459.1
1827.96924	1456.1
1831.13864	1445.1
1834.30597	1440.3
1837.47122	1438.3
1840.6344	1443.5
1843.7955	1442.1
1846.95454	1443.1
1850.11151	1446.7
1853.26642	1441.9
1856.41926	1439.8
1859.57004	1442.5
1862.71876	1434.4
1865.86542	1431.6
1869.01003	1433.4
1872.15258	1438
1875.29308	1439.2
1878.43152	1439.6
1881.56792	1426.1
1884.70227	1430.9
1887.83457	1422.6
1890.96482	1425.2
1894.09304	1423.2
1897.21921	1424.3
1900.34335	1417.5
1903.46544	1426.1
1906.58551	1415.5
1909.70353	1422.4
1912.81953	1414.6
1915.93349	1421.2
1919.04543	1415.4
1922.15534	1412
1925.26322	1405.6
1928.36908	1403.9
1931.47292	1409.6
1934.57473	1405
1937.67453	1402.1
1940.77232	1393.4
1943.86808	1399
1946.96184	1397.6
1950.05358	1379.7
1953.14331	1383.2
1956.23103	1385.4
1959.31675	1383.9
1962.40046	1371.7
1965.48217	1370.1
1968.56188	1355.8
1971.63959	1358.9
1974.7153	1363.4
1977.78901	1354.1
1980.86073	1351.7
1983.93046	1345.1
1986.99819	1339.1
1990.06394	1336.1
1993.1277	1337
1996.18947	1337
1999.24925	1324.6
2002.30706	1313.8
2005.36288	1314
2008.41672	1311.4
2011.46859	1315.6
2014.51848	1311.4
2017.56639	1300.1
2020.61233	1306.6
2023.6563	1297.5
2026.6983	1297.8
2029.73833	1289
2032.7764	1290.9
2035.8125	1288
2038.84664	1287.3
2041.87881	1284.1
2044.90903	1283.2
2047.93729	1287.3
2050.96359	1280.2
2053.98794	1285.5
2057.01034	1273.3
2060.03078	1284.4
2063.04927	1282.7
2066.06582	1279.8
2069.08042	1272.7
2072.09307	1279.3
2075.10378	1266.4
2078.11255	1279.5
2081.11938	1267
2084.12426	1267.7
2087.12722	1270.6
2090.12824	1274.8
2093.12732	1270.4
2096.12447	1271.9
2099.11969	1269.8
2102.11299	1267
2105.10435	1268.4
2108.09379	1266.4
2111.08131	1272.8
2114.0669	1282.3
2117.05057	1278.7
2120.03233	1281.8
2123.01216	1282.5
2125.99008	1284.5
2128.96609	1281.6
2131.94018	1285.2
2134.91236	1284.6
2137.88263	1287.6
2140.851	1288
2143.81746	1287.8
2146.78201	1285.8
2149.74466	1284.5
2152.7054	1288.9
2155.66425	1288.4
2158.6212	1289.7
2161.57625	1287.1
2164.52941	1281.6
2167.48067	1283.8
2170.43004	1287.7
2173.37752	1288.8
2176.32311	1292.7
2179.26681	1285.2
2182.20863	1280.5
2185.14856	1289.9
2188.08661	1275.7
2191.02278	1278.7
2193.95707	1288.5
2196.88948	1273.1
2199.82001	1284.2
2202.74867	1279.2
2205.67545	1277.7
2208.60037	1273.5
2211.52341	1278.7
2214.44458	1279.3
2217.36388	1274.1
2220.28132	1271.5
2223.1969	1269.9
2226.11061	1267.7
2229.02246	1260.1
2231.93245	1267.6
2234.84058	1262.3
2237.74686	1263
2240.65128	1262.4
2243.55385	1253.1
2246.45456	1262.7
2249.35343	1252.5
2252.25044	1254.2
2255.14561	1260.4
2258.03893	1258.5
2260.93041	1250
2263.82004	1254.3
2266.70783	1247.2
2269.59378	1247.1
2272.4779	1236.6
2275.36017	1240.7
2278.24061	1237.9
2281.11922	1236.8
2283.996	1233.3
2286.87094	1233.2
2289.74405	1225.1
2292.61534	1227.9
2295.4848	1231.3
2298.35243	1231.2
2301.21824	1218.9
2304.08223	1216.8
2306.94439	1228.5
2309.80474	1228
2312.66327	1230.5
2315.51999	1227.3
2318.37489	1228.8
2321.22797	1220.5
2324.07925	1228.8
2326.92871	1214.5
2329.77637	1229.4
2332.62222	1222.5
2335.46626	1218.5
2338.3085	1214
2341.14893	1215
2343.98756	1217.2
2346.8244	1209.9
2349.65943	1213.9
2352.49267	1216.6
2355.32411	1210.7
2358.15376	1208
2360.98161	1210.6
2363.80768	1215.3
2366.63195	1214.2
2369.45444	1223.5
2372.27514	1219.1
2375.09405	1217.5
2377.91118	1210
2380.72652	1203.8
2383.54009	1199.8
2386.35187	1199.1
2389.16188	1199.1
2391.97011	1203.7
2394.77657	1206.9
2397.58125	1189
2400.38416	1194.8
2403.18529	1179.1
2405.98466	1192.3
2408.78226	1184.5
2411.57809	1183.3
2414.37216	1178.9
2417.16446	1183.4
2419.955	1184
2422.74378	1180
2425.5308	1183.8
2428.31606	1184.6
2431.09956	1188
2433.88131	1173.8
2436.6613	1171.8
2439.43954	1173
2442.21603	1170.7
2444.99077	1175.1
2447.76377	1175.2
2450.53501	1187
2453.30451	1168.3
2456.07226	1165.6
2458.83827	1171.7
2461.60254	1171.3
2464.36507	1165.5
2467.12586	1173.1
2469.88492	1167.6
2472.64224	1170.6
2475.39782	1164.9
2478.15167	1169.3
2480.90379	1166.8
2483.65417	1172
2486.40283	1175.7
2489.14976	1177.4
2491.89497	1165.2
2494.63845	1170.2
2497.3802	1170.2
2500.12024	1165.4
2502.85855	1170.7
2505.59514	1166.3
2508.33002	1167.8
2511.06318	1160.5
2513.79462	1158.1
2516.52435	1159.6
2519.25237	1156.4
2521.97867	1153.9
2524.70327	1153.9
2527.42616	1159.5
2530.14734	1150.9
2532.86681	1145.6
2535.58458	1154.6
2538.30065	1145.7
2541.01501	1150.9
2543.72768	1147.6
2546.43864	1148.1
2549.14791	1152.6
2551.85548	1147.1
2554.56136	1138
2557.26554	1141.8
2559.96803	1145.1
2562.66883	1142.8
2565.36794	1137.6
2568.06536	1144.3
2570.7611	1135.3
2573.45514	1134
2576.14751	1131.7
2578.83819	1126.6
2581.52719	1128.7
2584.21451	1127.7
2586.90015	1115.7
2589.58411	1120.9
2592.2664	1136.6
2594.94701	1128.2
2597.62594	1120.9
2600.30321	1119.5
2602.9788	1129.6
2605.65273	1123.7
2608.32498	1121.8
2610.99557	1122.6
2613.66449	1125
2616.33175	1120.3
2618.99734	1113.1
2621.66128	1113
2624.32355	1119.7
2626.98416	1116.8
2629.64311	1105.8
2632.30041	1110.9
2634.95605	1109.4
2637.61004	1113.7
2640.26238	1116
2642.91306	1100.6
2645.56209	1096.7
2648.20948	1117.5
2650.85521	1106.5
2653.4993	1104.3
2656.14175	1102.5
2658.78255	1100.4
2661.42171	1095.4
2664.05923	1099.3
2666.6951	1110.6
2669.32934	1108.5
2671.96194	1109.8
2674.59291	1114.6
2677.22224	1102.3
2679.84993	1111
2682.476	1107.2
2685.10043	1109.6
2687.72324	1119.9
2690.34441	1107.9
2692.96396	1110
2695.58188	1112
2698.19818	1105.8
2700.81285	1106.1
2703.4259	1111.1
2706.03733	1104.9
2708.64714	1095.1
2711.25533	1109
2713.86191	1112.3
2716.46687	1116.3
2719.07021	1104.4
2721.67194	1114
2724.27206	1111.1
2726.87057	1116.9
2729.46747	1117.9
2732.06276	1121.7
2734.65644	1115.1
2737.24852	1113.2
2739.83899	1117.1
2742.42786	1119.6
2745.01513	1112.1
2747.60079	1118.4
2750.18486	1105.7
2752.76733	1113.2
2755.3482	1102.2
2757.92747	1112.5
2760.50515	1110.9
2763.08123	1109
2765.65573	1106
2768.22863	1104.2
2770.79994	1104.1
2773.36967	1101.3
2775.9378	1104.9
2778.50435	1112.6
2781.06932	1108.8
2783.6327	1099.5
2786.1945	1105.9
2788.75471	1107
2791.31335	1111.1
2793.87041	1108.5
2796.42589	1109.1
2798.97979	1108.4
2801.53212	1104.8
2804.08288	1098.4
2806.63206	1089.5
2809.17967	1092.1
2811.72571	1095.8
2814.27018	1094.2
2816.81308	1089.9
2819.35442	1082.4
2821.89419	1093.9
2824.43239	1090.9
2826.96904	1091.1
2829.50412	1087.5
2832.03763	1092.1
2834.56959	1091.1
2837.1	1091.1
2839.62884	1085.7
2842.15613	1091.5
2844.68186	1090.1
2847.20604	1086.3
2849.72867	1085.9
2852.24974	1096.7
2854.76927	1099.1
2857.28724	1091.8
2859.80367	1094.7
2862.31855	1103.1
2864.83189	1095.6
2867.34368	1096.7
2869.85393	1088.6
2872.36264	1095
2874.8698	1097.7
2877.37543	1090.1
2879.87952	1099.8
2882.38207	1092.2
2884.88308	1093.4
2887.38256	1094.7
2889.88051	1095.7
2892.37692	1105.9
2894.8718	1101.5
2897.36515	1112.7
2899.85698	1104.5
2902.34727	1112.5
2904.83604	1112.9
2907.32328	1109
2909.809	1118.5
2912.29319	1112.5
2914.77587	1112.4
2917.25702	1117.2
2919.73665	1115.3
2922.21476	1119.1
2924.69136	1109.2
2927.16644	1114.9
2929.64	1111.3
2932.11205	1110.3
2934.58258	1111.6
2937.05161	1105.7
2939.51912	1102.4
2941.98513	1115.6
2944.44962	1113
2946.91261	1117.3
2949.37409	1114.8
2951.83407	1113.8
2954.29254	1116
2956.74951	1118.6
2959.20498	1113.6
2961.65895	1113.6
2964.11142	1123
2966.56239	1124.6
2969.01186	1118
2971.45984	1124.8
2973.90632	1122.2
2976.35131	1116.1
2978.7948	1112.2
2981.23681	1123.2
2983.67732	1116.6
2986.11635	1116.2
2988.55388	1109.7
2990.98993	1111.1
2993.4245	1112.3
2995.85758	1117.7
2998.28917	1111.4
3000.71928	1115.7
3003.14791	1109.9
3005.57506	1115
3008.00073	1117.2
3010.42493	1120.5
3012.84764	1118.3
3015.26888	1123.7
3017.68865	1130.4
3020.10694	1118.6
3022.52376	1128.6
3024.9391	1129.6
3027.35298	1127.8
3029.76539	1126.3
3032.17632	1129.1
3034.5858	1127.8
3036.9938	1135.2
3039.40034	1134
3041.80542	1141.9
3044.20903	1147.9
3046.61118	1139.4
3049.01187	1144.1
3051.4111	1148.3
3053.80888	1141
3056.20519	1148
3058.60005	1143.9
3060.99345	1158.4
3063.3854	1153
3065.7759	1155.6
3068.16494	1161.1
3070.55254	1164.1
3072.93868	1159.5
3075.32338	1165.8
3077.70662	1166.2
3080.08842	1164.9
3082.46878	1165.1
3084.84769	1173
3087.22515	1177.7
3089.60118	1189.5
3091.97576	1199
3094.3489	1199.4
3096.72061	1201.5
3099.09087	1206.1
3101.4597	1218.5
3103.82709	1225
3106.19305	1225.9
3108.55757	1239.3
3110.92066	1239.7
3113.28232	1240.4
3115.64255	1246.2
3118.00134	1254.3
3120.35871	1257.1
3122.71466	1262.9
3125.06917	1257.5
3127.42226	1271
3129.77393	1281
3132.12417	1272.2
3134.47299	1281.4
3136.82039	1287.2
3139.16636	1295.7
3141.51092	1308.3
3143.85406	1315
3146.19579	1321.1
3148.53609	1327.5
3150.87499	1332.4
3153.21246	1349.3
3155.54853	1358.1
3157.88318	1362.8
3160.21642	1369
3162.54826	1376
3164.87868	1389.2
3167.2077	1397.9
3169.5353	1399.3
3171.86151	1412.5
3174.18631	1411
3176.5097	1415.1
3178.83169	1424.6
3181.15228	1439.4
3183.47147	1437.7
3185.78926	1448.5
3188.10565	1449.4
3190.42065	1456.4
3192.73424	1453.3
3195.04645	1462.2
3197.35725	1457.2
3199.66667	1474.1
3201.97469	1487.6
3204.28132	1492.6
3206.58656	1497.9
3208.8904	1492.1
3211.19287	1508.2
3213.49394	1508.9
3215.79363	1506.2
3218.09193	1512.8
3220.38884	1531.3
3222.68438	1528.3
3224.97853	1530.2
3227.2713	1540.2
3229.56269	1540.9
3231.8527	1550.7
3234.14133	1530.9
3236.42858	1530.8
3238.71446	1534.9
3240.99896	1536.3
3243.28209	1540.4
3245.56384	1529.5
3247.84423	1540.7
3250.12324	1534.1
3252.40088	1529.4
3254.67715	1535.4
3256.95205	1536.1
3259.22558	1540.4
3261.49775	1544
3263.76855	1541.6
3266.03799	1538.6
3268.30606	1544
3270.57277	1541.4
3272.83812	1535.9
3275.10211	1530
3277.36474	1540
3279.62601	1541.6
3281.88593	1537.1
3284.14448	1530.4
3286.40168	1534.8
3288.65753	1537.9
3290.91202	1544.4
3293.16516	1534.2
3295.41695	1524.8
3297.66738	1523.5
3299.91647	1516.4
3302.16421	1517
3304.4106	1515
3306.65564	1492.9
3308.89933	1479.6
3311.14169	1472.9
3313.38269	1468
3315.62236	1462.9
3317.86068	1433
3320.09766	1432
3322.3333	1424.3
3324.5676	1422
3326.80056	1404.8
3329.03219	1390.6
3331.26248	-0.5
3333.49143	0.7
3335.71905	-1.6
