Data from AgNPs_APTES_FTO_UA_100uM_CRN_0uM_R6G_10uM_Scan_RamanShift__76__12-08-21-331.txt Node

Date: Wed Jun 29 12:08:21 BST 2022
User: TCL
Spectrometer: QEP01345
Trigger mode: 4
Integration Time (sec): 7.000000E0
Scans to average: 10
Electric dark correction enabled: true
Nonlinearity correction enabled: false
Boxcar width: 0
XAxis mode: Raman Shifts
Number of Pixels in Spectrum: 1044
>>>>>Begin Spectral Data<<<<<
46.04893	1.4
50.45542	1.4
54.85868	0.2
59.25871	0.9
63.6555	35.9
68.04907	35.6
72.43941	37.5
76.82654	40.4
81.21044	43.8
85.59113	48.4
89.96862	50.6
94.34289	49.9
98.71396	52.1
103.08183	51.9
107.4465	49.1
111.80798	54.8
116.16626	51.9
120.52136	53.1
124.87327	46.7
129.222	51.2
133.56755	47.9
137.90993	47.2
142.24913	49.7
146.58517	47.8
150.91804	47.7
155.24774	50.7
159.57429	49.9
163.89768	53.7
168.21792	58.6
172.53501	71.6
176.84895	82.6
181.15975	101.1
185.46741	128.4
189.77193	163.2
194.07331	219
198.37157	275.6
202.6667	328.7
206.9587	384.9
211.24758	443.5
215.53334	499.9
219.81599	551.5
224.09553	608.2
228.37195	668.7
232.64527	739.9
236.91549	829.9
241.18261	905.2
245.44663	995.9
249.70755	1074.8
253.96539	1147.7
258.22014	1207.1
262.4718	1252.3
266.72039	1264.6
270.96589	1276.2
275.20832	1261.6
279.44768	1239.5
283.68397	1210.8
287.91719	1193.9
292.14735	1161.8
296.37445	1141.6
300.59849	1117.4
304.81948	1112.8
309.03742	1099.8
313.25231	1086.3
317.46415	1085.9
321.67296	1074.8
325.87872	1077.9
330.08145	1087.4
334.28114	1089.3
338.47781	1104.8
342.67145	1114.4
346.86207	1121.6
351.04966	1134.4
355.23424	1145.1
359.4158	1158.7
363.59435	1172
367.76989	1195.6
371.94243	1202.6
376.11196	1206.7
380.27849	1229.5
384.44203	1233.7
388.60257	1256.2
392.76012	1263.9
396.91468	1279.3
401.06626	1291.1
405.21485	1308.8
409.36047	1308.9
413.50311	1322.1
417.64277	1334.6
421.77947	1339.1
425.9132	1342.2
430.04396	1348.5
434.17176	1364.1
438.2966	1373.6
442.41849	1383.4
446.53742	1386.1
450.6534	1395.6
454.76644	1412.2
458.87653	1421.4
462.98368	1417.2
467.08789	1418.9
471.18916	1436.1
475.2875	1430.2
479.38291	1437.9
483.4754	1436
487.56496	1442
491.6516	1441.7
495.73531	1451.3
499.81612	1443.2
503.89401	1438.7
507.96899	1451.5
512.04106	1429.4
516.11023	1450.2
520.1765	1441.8
524.23987	1441.9
528.30034	1455.8
532.35792	1461
536.41261	1464.9
540.46441	1458.1
544.51333	1460.2
548.55936	1474.4
552.60252	1473.6
556.64279	1482.2
560.6802	1488.6
564.71473	1484.3
568.7464	1482.7
572.7752	1498.7
576.80114	1484.1
580.82422	1486.5
584.84444	1498.8
588.86181	1496.9
592.87633	1509.8
596.888	1503.2
600.89682	1514.3
604.9028	1528.9
608.90594	1557
612.90624	1571.7
616.90371	1566
620.89834	1543.3
624.89015	1531.2
628.87913	1530.4
632.86528	1530.8
636.84862	1531.9
640.82913	1535.2
644.80683	1536
648.78172	1538.9
652.75379	1552.9
656.72306	1559.2
660.68952	1554.4
664.65319	1553.5
668.61405	1562.1
672.57211	1571.2
676.52738	1581.2
680.47986	1579.2
684.42955	1579.3
688.37646	1600.3
692.32058	1604
696.26192	1611.5
700.20048	1619.1
704.13626	1616.5
708.06928	1622.3
711.99952	1611.6
715.927	1612.1
719.85171	1612.6
723.77365	1613.2
727.69284	1601.4
731.60928	1602.8
735.52295	1604.6
739.43388	1599.9
743.34206	1607
747.24749	1613.4
751.15017	1617.7
755.05012	1595.2
758.94733	1620.5
762.8418	1645.2
766.73354	1648.8
770.62254	1653.2
774.50882	1671.2
778.39237	1671
782.27321	1661.7
786.15132	1648
790.02671	1650.5
793.89938	1637.6
797.76935	1640.3
801.6366	1650.5
805.50115	1640
809.36299	1648.4
813.22213	1638.7
817.07857	1643.5
820.93231	1651.8
824.78336	1649.1
828.63172	1638.4
832.47738	1646.6
836.32036	1647.3
840.16066	1645.6
843.99827	1650.8
847.8332	1657.3
851.66546	1645
855.49504	1651.1
859.32195	1661.9
863.1462	1659.3
866.96777	1663.9
870.78668	1665.7
874.60293	1677.2
878.41652	1673.9
882.22745	1673.4
886.03573	1685.9
889.84136	1683.9
893.64433	1693.2
897.44466	1681.1
901.24235	1703
905.0374	1697.1
908.8298	1714.5
912.61957	1716
916.40671	1718.2
920.19121	1717.7
923.97308	1718
927.75233	1714.8
931.52895	1714.3
935.30295	1706.8
939.07433	1710.7
942.84309	1702.1
946.60924	1700.7
950.37278	1697.2
954.13371	1699.2
957.89203	1699.6
961.64774	1701.5
965.40086	1687.5
969.15137	1702.4
972.89929	1690.1
976.64461	1685.2
980.38733	1695.1
984.12747	1694.3
987.86502	1691.9
991.59999	1688.3
995.33237	1690.5
999.06217	1703.6
1002.78939	1710.4
1006.51404	1706.7
1010.23611	1714.8
1013.95561	1723.3
1017.67255	1720.8
1021.38692	1719.2
1025.09872	1724
1028.80796	1728.3
1032.51465	1719
1036.21877	1726.6
1039.92035	1739.8
1043.61937	1733.2
1047.31584	1740.8
1051.00976	1747.2
1054.70114	1750.6
1058.38998	1750.7
1062.07627	1752.4
1065.76003	1760.4
1069.44126	1754.9
1073.11995	1760.2
1076.79611	1767.2
1080.46974	1773
1084.14085	1773.6
1087.80943	1761.6
1091.47549	1764.9
1095.13903	1767.2
1098.80005	1756.2
1102.45857	1747.5
1106.11456	1749.6
1109.76805	1747.1
1113.41903	1754.4
1117.06751	1754.6
1120.71348	1749.5
1124.35696	1752.5
1127.99793	1749.2
1131.63641	1752.7
1135.2724	1762
1138.90589	1764.2
1142.5369	1761.5
1146.16542	1757.9
1149.79145	1758.1
1153.415	1758.7
1157.03607	1738.8
1160.65467	1750
1164.27079	1746.9
1167.88443	1755.5
1171.49561	1767
1175.10432	1769.1
1178.71056	1789.2
1182.31434	1797.9
1185.91565	1811.3
1189.51451	1818.3
1193.11091	1821.7
1196.70485	1836
1200.29634	1815.3
1203.88538	1818.7
1207.47197	1799.2
1211.05612	1811.4
1214.63782	1789
1218.21708	1793.4
1221.79391	1784.6
1225.36829	1781.9
1228.94024	1791
1232.50976	1792.8
1236.07685	1791.7
1239.6415	1802.9
1243.20374	1798.4
1246.76355	1792.8
1250.32093	1797.5
1253.8759	1801.1
1257.42845	1823.5
1260.97859	1820.6
1264.52631	1816.2
1268.07163	1827.6
1271.61453	1833.7
1275.15503	1838
1278.69312	1834.9
1282.22882	1833.5
1285.76211	1839.4
1289.29301	1839.4
1292.82151	1846.3
1296.34761	1858.6
1299.87133	1866.8
1303.39266	1868.3
1306.9116	1872.6
1310.42815	1893.9
1313.94233	1899.8
1317.45412	1889.2
1320.96354	1896.3
1324.47058	1897.4
1327.97525	1883.2
1331.47754	1883.3
1334.97747	1875.8
1338.47502	1877.5
1341.97022	1881.8
1345.46305	1895.6
1348.95352	1905.2
1352.44163	1911.2
1355.92738	1914.3
1359.41078	1916.6
1362.89183	1910
1366.37053	1905
1369.84688	1873
1373.32088	1849
1376.79254	1825.1
1380.26186	1799.1
1383.72883	1785.1
1387.19347	1782.6
1390.65578	1774.1
1394.11575	1755.7
1397.57339	1754.5
1401.0287	1735.9
1404.48168	1746.7
1407.93234	1747.2
1411.38068	1743.7
1414.82669	1731.3
1418.27039	1733.2
1421.71177	1726.7
1425.15083	1716.4
1428.58758	1716
1432.02203	1709.1
1435.45416	1717.9
1438.88399	1707.1
1442.31151	1701.8
1445.73673	1715
1449.15965	1697.8
1452.58027	1699.4
1455.9986	1708.3
1459.41463	1708.8
1462.82837	1714.8
1466.23982	1727
1469.64898	1726.1
1473.05586	1734
1476.46045	1742.9
1479.86276	1739.1
1483.26279	1749
1486.66054	1740.8
1490.05602	1740
1493.44922	1761.9
1496.84016	1756.7
1500.22882	1764.5
1503.61521	1779.7
1506.99934	1794.8
1510.38121	1810.4
1513.76081	1814.3
1517.13816	1798.4
1520.51324	1794.3
1523.88607	1782.4
1527.25665	1786.1
1530.62498	1781.2
1533.99105	1783.3
1537.35488	1780.7
1540.71647	1785.9
1544.07581	1785.3
1547.4329	1795.8
1550.78776	1796.8
1554.14038	1797.8
1557.49077	1796.6
1560.83892	1811.7
1564.18484	1805.8
1567.52853	1804.7
1570.86999	1816.3
1574.20922	1817.8
1577.54624	1814.1
1580.88103	1818.3
1584.2136	1811.2
1587.54395	1811.3
1590.87208	1825.5
1594.19801	1821.2
1597.52172	1831.2
1600.84321	1850
1604.16251	1839.9
1607.47959	1830.8
1610.79447	1816
1614.10715	1789.8
1617.41763	1778.4
1620.7259	1770.2
1624.03199	1758.6
1627.33587	1747.4
1630.63757	1753
1633.93707	1745.8
1637.23439	1757.8
1640.52951	1769.4
1643.82246	1771.6
1647.11321	1793.2
1650.40179	1784.4
1653.68819	1772.7
1656.97241	1748.3
1660.25446	1720.5
1663.53433	1708.4
1666.81203	1684.8
1670.08756	1685
1673.36092	1676.2
1676.63211	1682.5
1679.90115	1669.7
1683.16801	1652.9
1686.43272	1650.4
1689.69527	1661.5
1692.95567	1645.6
1696.2139	1635.5
1699.46999	1633.5
1702.72392	1623.5
1705.97571	1622.6
1709.22535	1626.3
1712.47284	1635.6
1715.71819	1644.3
1718.96139	1643.7
1722.20246	1648.5
1725.44139	1640.1
1728.67818	1629.4
1731.91284	1627
1735.14537	1619.2
1738.37576	1616.8
1741.60403	1614
1744.83017	1601.1
1748.05418	1598.4
1751.27607	1597.3
1754.49584	1592.1
1757.71349	1599.5
1760.92903	1583.2
1764.14244	1585
1767.35375	1580.9
1770.56294	1597.9
1773.77002	1581.6
1776.97499	1576.6
1780.17785	1595.3
1783.37861	1590.7
1786.57727	1599.3
1789.77382	1592
1792.96828	1592.6
1796.16064	1582.7
1799.3509	1586.2
1802.53907	1581.2
1805.72514	1581.5
1808.90913	1592.5
1812.09102	1588.5
1815.27083	1576.8
1818.44856	1576
1821.6242	1578.2
1824.79776	1570.2
1827.96924	1565.2
1831.13864	1575.5
1834.30597	1569.7
1837.47122	1569.3
1840.6344	1567.4
1843.7955	1563.6
1846.95454	1564
1850.11151	1564.1
1853.26642	1568.2
1856.41926	1560.4
1859.57004	1570.6
1862.71876	1569.6
1865.86542	1561.2
1869.01003	1565.4
1872.15258	1561.1
1875.29308	1557
1878.43152	1555.9
1881.56792	1557.6
1884.70227	1553.1
1887.83457	1545.1
1890.96482	1549.5
1894.09304	1549.4
1897.21921	1546.7
1900.34335	1554.2
1903.46544	1550.1
1906.58551	1551.5
1909.70353	1542.7
1912.81953	1537.9
1915.93349	1552.2
1919.04543	1544.3
1922.15534	1539.4
1925.26322	1539.1
1928.36908	1541.7
1931.47292	1545.2
1934.57473	1537.2
1937.67453	1539.8
1940.77232	1532.6
1943.86808	1533.6
1946.96184	1519.1
1950.05358	1523
1953.14331	1522.9
1956.23103	1513.3
1959.31675	1510.2
1962.40046	1508.2
1965.48217	1507.8
1968.56188	1505.8
1971.63959	1503.9
1974.7153	1496.5
1977.78901	1494.2
1980.86073	1485.8
1983.93046	1489.7
1986.99819	1488.3
1990.06394	1482.8
1993.1277	1476.4
1996.18947	1478.4
1999.24925	1475.8
2002.30706	1467.8
2005.36288	1462.3
2008.41672	1464.4
2011.46859	1462.7
2014.51848	1456.2
2017.56639	1448.6
2020.61233	1452
2023.6563	1454.6
2026.6983	1443.9
2029.73833	1443.4
2032.7764	1440.5
2035.8125	1442.8
2038.84664	1437.8
2041.87881	1439.8
2044.90903	1442.3
2047.93729	1440.6
2050.96359	1431.7
2053.98794	1433
2057.01034	1432.7
2060.03078	1435.1
2063.04927	1432.2
2066.06582	1440.2
2069.08042	1430.9
2072.09307	1432
2075.10378	1438.8
2078.11255	1445.1
2081.11938	1434.7
2084.12426	1442.9
2087.12722	1440.8
2090.12824	1441.9
2093.12732	1444.4
2096.12447	1440.9
2099.11969	1448
2102.11299	1445
2105.10435	1449.1
2108.09379	1438.9
2111.08131	1446.2
2114.0669	1453.7
2117.05057	1446.2
2120.03233	1458.4
2123.01216	1456.3
2125.99008	1452.9
2128.96609	1449
2131.94018	1467
2134.91236	1454.9
2137.88263	1463.9
2140.851	1467.4
2143.81746	1473.4
2146.78201	1461.3
2149.74466	1465.9
2152.7054	1471.4
2155.66425	1466.7
2158.6212	1474.9
2161.57625	1471.7
2164.52941	1474.1
2167.48067	1476.5
2170.43004	1468.1
2173.37752	1470.1
2176.32311	1473.9
2179.26681	1462.2
2182.20863	1476.2
2185.14856	1473.7
2188.08661	1479
2191.02278	1476.7
2193.95707	1475.9
2196.88948	1463
2199.82001	1471.6
2202.74867	1468.8
2205.67545	1466.2
2208.60037	1456.2
2211.52341	1458.9
2214.44458	1455.5
2217.36388	1456.2
2220.28132	1455.2
2223.1969	1447.9
2226.11061	1444.3
2229.02246	1445.3
2231.93245	1445.6
2234.84058	1439.4
2237.74686	1446.4
2240.65128	1434.9
2243.55385	1435.9
2246.45456	1441.5
2249.35343	1442
2252.25044	1444.7
2255.14561	1438.1
2258.03893	1434
2260.93041	1424.7
2263.82004	1432.7
2266.70783	1419.1
2269.59378	1421
2272.4779	1422.8
2275.36017	1418.8
2278.24061	1419.7
2281.11922	1418
2283.996	1405.8
2286.87094	1418.2
2289.74405	1412.3
2292.61534	1412.7
2295.4848	1412.4
2298.35243	1409.5
2301.21824	1409.7
2304.08223	1417.6
2306.94439	1404.7
2309.80474	1410.1
2312.66327	1421.2
2315.51999	1418.1
2318.37489	1414.8
2321.22797	1405.2
2324.07925	1408
2326.92871	1401.7
2329.77637	1404.4
2332.62222	1403.6
2335.46626	1404.8
2338.3085	1398
2341.14893	1395.6
2343.98756	1393.5
2346.8244	1398.7
2349.65943	1391.3
2352.49267	1396.5
2355.32411	1398.7
2358.15376	1391.1
2360.98161	1399.1
2363.80768	1394.8
2366.63195	1391.2
2369.45444	1391.9
2372.27514	1395
2375.09405	1397.7
2377.91118	1385.3
2380.72652	1386.9
2383.54009	1389.7
2386.35187	1387.6
2389.16188	1377.8
2391.97011	1391.2
2394.77657	1394.9
2397.58125	1377.9
2400.38416	1371.4
2403.18529	1373.1
2405.98466	1371.5
2408.78226	1367.7
2411.57809	1366.8
2414.37216	1374.3
2417.16446	1374.8
2419.955	1375.6
2422.74378	1372.4
2425.5308	1368.7
2428.31606	1374.6
2431.09956	1365
2433.88131	1365
2436.6613	1360.7
2439.43954	1369.1
2442.21603	1365.7
2444.99077	1369.9
2447.76377	1378.5
2450.53501	1373.2
2453.30451	1363.8
2456.07226	1368.9
2458.83827	1377.8
2461.60254	1357
2464.36507	1359.7
2467.12586	1352.6
2469.88492	1353.1
2472.64224	1349.6
2475.39782	1353.8
2478.15167	1350.6
2480.90379	1355.1
2483.65417	1356
2486.40283	1356.6
2489.14976	1359.3
2491.89497	1348.1
2494.63845	1347.7
2497.3802	1352.5
2500.12024	1341.9
2502.85855	1346.5
2505.59514	1345.8
2508.33002	1344.3
2511.06318	1343.2
2513.79462	1352.9
2516.52435	1356.4
2519.25237	1345.8
2521.97867	1346.4
2524.70327	1344.8
2527.42616	1346.8
2530.14734	1341.3
2532.86681	1343.5
2535.58458	1341.4
2538.30065	1342.7
2541.01501	1345.1
2543.72768	1334.3
2546.43864	1327.8
2549.14791	1332.4
2551.85548	1332.2
2554.56136	1333.2
2557.26554	1336.4
2559.96803	1327.7
2562.66883	1322.6
2565.36794	1326
2568.06536	1329.2
2570.7611	1319.8
2573.45514	1316.3
2576.14751	1321.2
2578.83819	1319.4
2581.52719	1325.2
2584.21451	1314
2586.90015	1314.7
2589.58411	1309.7
2592.2664	1312.7
2594.94701	1310.1
2597.62594	1304.3
2600.30321	1302.5
2602.9788	1302.3
2605.65273	1302.7
2608.32498	1296.9
2610.99557	1297.4
2613.66449	1286.9
2616.33175	1293
2618.99734	1292.4
2621.66128	1292.3
2624.32355	1299.2
2626.98416	1291.2
2629.64311	1289.5
2632.30041	1295.6
2634.95605	1280.4
2637.61004	1290.9
2640.26238	1285.9
2642.91306	1282.7
2645.56209	1277.6
2648.20948	1276.3
2650.85521	1283.5
2653.4993	1280.5
2656.14175	1287.4
2658.78255	1281.4
2661.42171	1292.3
2664.05923	1281.6
2666.6951	1283.3
2669.32934	1287.4
2671.96194	1282.3
2674.59291	1281.7
2677.22224	1279.1
2679.84993	1287.9
2682.476	1277.6
2685.10043	1285.6
2687.72324	1278.2
2690.34441	1282.1
2692.96396	1284.7
2695.58188	1282.5
2698.19818	1285.6
2700.81285	1284.1
2703.4259	1284.8
2706.03733	1264.6
2708.64714	1271.8
2711.25533	1280.5
2713.86191	1280.1
2716.46687	1284.7
2719.07021	1277.9
2721.67194	1289.1
2724.27206	1284.9
2726.87057	1297.5
2729.46747	1294.7
2732.06276	1306.1
2734.65644	1296.4
2737.24852	1304.6
2739.83899	1286.7
2742.42786	1290.2
2745.01513	1297.9
2747.60079	1296.4
2750.18486	1291.9
2752.76733	1286.2
2755.3482	1286.1
2757.92747	1286.5
2760.50515	1279
2763.08123	1288.6
2765.65573	1280.2
2768.22863	1284.2
2770.79994	1283.7
2773.36967	1285.2
2775.9378	1279.5
2778.50435	1275
2781.06932	1285
2783.6327	1285.2
2786.1945	1278.9
2788.75471	1276.7
2791.31335	1276.5
2793.87041	1286.8
2796.42589	1273.2
2798.97979	1277.8
2801.53212	1273.6
2804.08288	1268
2806.63206	1267.2
2809.17967	1260.2
2811.72571	1260
2814.27018	1259.1
2816.81308	1246.2
2819.35442	1247.3
2821.89419	1244.7
2824.43239	1247.2
2826.96904	1258.4
2829.50412	1248.4
2832.03763	1241.9
2834.56959	1243.3
2837.1	1248.8
2839.62884	1244.2
2842.15613	1242.2
2844.68186	1238.9
2847.20604	1245.1
2849.72867	1234.9
2852.24974	1250.5
2854.76927	1243.6
2857.28724	1239.7
2859.80367	1245
2862.31855	1247.4
2864.83189	1245.2
2867.34368	1238.1
2869.85393	1233.9
2872.36264	1247.5
2874.8698	1233.5
2877.37543	1236.1
2879.87952	1237.7
2882.38207	1235.1
2884.88308	1235.6
2887.38256	1237.8
2889.88051	1241.3
2892.37692	1244.9
2894.8718	1247.1
2897.36515	1245.4
2899.85698	1241.9
2902.34727	1244.8
2904.83604	1246.8
2907.32328	1248.9
2909.809	1254.1
2912.29319	1261.4
2914.77587	1251.6
2917.25702	1258.9
2919.73665	1255.6
2922.21476	1250.7
2924.69136	1241.4
2927.16644	1254.1
2929.64	1262.5
2932.11205	1257.4
2934.58258	1250.5
2937.05161	1250.8
2939.51912	1252.2
2941.98513	1257.3
2944.44962	1251.1
2946.91261	1257.5
2949.37409	1252.3
2951.83407	1253.7
2954.29254	1262.6
2956.74951	1253.8
2959.20498	1258.2
2961.65895	1263
2964.11142	1273
2966.56239	1265.9
2969.01186	1260.9
2971.45984	1267.2
2973.90632	1268.2
2976.35131	1274.4
2978.7948	1272.7
2981.23681	1273.2
2983.67732	1273
2986.11635	1264.6
2988.55388	1265.5
2990.98993	1266.1
2993.4245	1263
2995.85758	1268.1
2998.28917	1278.5
3000.71928	1270.7
3003.14791	1266.3
3005.57506	1263.1
3008.00073	1260.5
3010.42493	1270.1
3012.84764	1279.8
3015.26888	1269.8
3017.68865	1270.1
3020.10694	1271.9
3022.52376	1267
3024.9391	1269.3
3027.35298	1272.5
3029.76539	1275.1
3032.17632	1285.9
3034.5858	1280.2
3036.9938	1283
3039.40034	1284.7
3041.80542	1280.6
3044.20903	1287
3046.61118	1282.9
3049.01187	1285.3
3051.4111	1292.5
3053.80888	1299.3
3056.20519	1302.3
3058.60005	1300.6
3060.99345	1303.7
3063.3854	1304.3
3065.7759	1306.7
3068.16494	1303.6
3070.55254	1295.6
3072.93868	1305.2
3075.32338	1312.2
3077.70662	1304.2
3080.08842	1302.9
3082.46878	1304.3
3084.84769	1316.4
3087.22515	1322.7
3089.60118	1322.5
3091.97576	1330.9
3094.3489	1337.7
3096.72061	1335.3
3099.09087	1348
3101.4597	1350.9
3103.82709	1358.2
3106.19305	1363.8
3108.55757	1374
3110.92066	1372.3
3113.28232	1369.2
3115.64255	1379.4
3118.00134	1384
3120.35871	1385.4
3122.71466	1387.1
3125.06917	1390.9
3127.42226	1386.4
3129.77393	1402.5
3132.12417	1409.7
3134.47299	1415.8
3136.82039	1415.8
3139.16636	1424.3
3141.51092	1428.8
3143.85406	1432.8
3146.19579	1425.9
3148.53609	1444.8
3150.87499	1457.7
3153.21246	1466.8
3155.54853	1464.7
3157.88318	1475.8
3160.21642	1491
3162.54826	1492.1
3164.87868	1497.6
3167.2077	1506.7
3169.5353	1513
3171.86151	1522.3
3174.18631	1526
3176.5097	1519.4
3178.83169	1535.4
3181.15228	1533.3
3183.47147	1539.9
3185.78926	1546.9
3188.10565	1549.8
3190.42065	1564
3192.73424	1563.9
3195.04645	1565.4
3197.35725	1562.9
3199.66667	1568.7
3201.97469	1578.2
3204.28132	1575.4
3206.58656	1587.6
3208.8904	1588.8
3211.19287	1601.5
3213.49394	1599.2
3215.79363	1607
3218.09193	1611.2
3220.38884	1617.8
3222.68438	1613.3
3224.97853	1620.8
3227.2713	1620.5
3229.56269	1615.3
3231.8527	1622.5
3234.14133	1619.3
3236.42858	1622.1
3238.71446	1615.3
3240.99896	1623.7
3243.28209	1615.5
3245.56384	1601.5
3247.84423	1613.7
3250.12324	1611.8
3252.40088	1610.1
3254.67715	1609.5
3256.95205	1616.4
3259.22558	1616.8
3261.49775	1622.8
3263.76855	1623.6
3266.03799	1630.6
3268.30606	1613.3
3270.57277	1625.3
3272.83812	1611.1
3275.10211	1613.4
3277.36474	1609.1
3279.62601	1612.2
3281.88593	1609.6
3284.14448	1607.1
3286.40168	1614.4
3288.65753	1610.6
3290.91202	1620.7
3293.16516	1602.9
3295.41695	1604.5
3297.66738	1601.3
3299.91647	1596.4
3302.16421	1575.7
3304.4106	1575.3
3306.65564	1560.3
3308.89933	1561.5
3311.14169	1530.3
3313.38269	1527.2
3315.62236	1524.2
3317.86068	1508.5
3320.09766	1498.1
3322.3333	1490.6
3324.5676	1476.7
3326.80056	1461.3
3329.03219	1448.4
3331.26248	-0.7
3333.49143	-0.3
3335.71905	-2
