Data from AgNPs_APTES_FTO_UA_100uM_CRN_0uM_R6G_10uM_Scan_RamanShift__53__11-41-31-299.txt Node

Date: Wed Jun 29 11:41:31 BST 2022
User: TCL
Spectrometer: QEP01345
Trigger mode: 4
Integration Time (sec): 7.000000E0
Scans to average: 10
Electric dark correction enabled: true
Nonlinearity correction enabled: false
Boxcar width: 0
XAxis mode: Raman Shifts
Number of Pixels in Spectrum: 1044
>>>>>Begin Spectral Data<<<<<
46.04893	-0.1375
50.45542	-0.0375
54.85868	0.4625
59.25871	1.4625
63.6555	35.8625
68.04907	38.6625
72.43941	38.9625
76.82654	46.3625
81.21044	45.0625
85.59113	49.0625
89.96862	52.7625
94.34289	53.7625
98.71396	53.9625
103.08183	56.5625
107.4465	59.2625
111.80798	57.9625
116.16626	51.7625
120.52136	54.3625
124.87327	55.8625
129.222	55.3625
133.56755	51.1625
137.90993	50.3625
142.24913	48.8625
146.58517	48.8625
150.91804	50.2625
155.24774	52.8625
159.57429	56.9625
163.89768	55.6625
168.21792	68.4625
172.53501	74.6625
176.84895	93.8625
181.15975	118.5625
185.46741	152.2625
189.77193	195.3625
194.07331	252.6625
198.37157	317.9625
202.6667	381.9625
206.9587	445.9625
211.24758	520.1625
215.53334	586.3625
219.81599	667.8625
224.09553	750.1625
228.37195	833.2625
232.64527	927.8625
236.91549	1029.8625
241.18261	1112.5625
245.44663	1196.9625
249.70755	1261.1625
253.96539	1317.6625
258.22014	1357.8625
262.4718	1388.8625
266.72039	1419.9625
270.96589	1418.9625
275.20832	1405.5625
279.44768	1379.4625
283.68397	1350.0625
287.91719	1335.3625
292.14735	1323.1625
296.37445	1330.8625
300.59849	1355.3625
304.81948	1397.7625
309.03742	1429.9625
313.25231	1430.8625
317.46415	1389.0625
321.67296	1338.0625
325.87872	1287.2625
330.08145	1260.6625
334.28114	1273.5625
338.47781	1292.4625
342.67145	1311.7625
346.86207	1351.7625
351.04966	1408.9625
355.23424	1458.8625
359.4158	1515.4625
363.59435	1539.1625
367.76989	1549.1625
371.94243	1548.7625
376.11196	1548.3625
380.27849	1553.5625
384.44203	1558.4625
388.60257	1554.0625
392.76012	1556.6625
396.91468	1575.5625
401.06626	1591.2625
405.21485	1623.2625
409.36047	1598.6625
413.50311	1548.2625
417.64277	1503.1625
421.77947	1475.5625
425.9132	1479.9625
430.04396	1482.0625
434.17176	1472.1625
438.2966	1499.8625
442.41849	1523.5625
446.53742	1552.4625
450.6534	1582.7625
454.76644	1597.8625
458.87653	1610.0625
462.98368	1599.9625
467.08789	1593.4625
471.18916	1576.8625
475.2875	1572.5625
479.38291	1547.9625
483.4754	1557.0625
487.56496	1557.4625
491.6516	1570.0625
495.73531	1574.5625
499.81612	1574.5625
503.89401	1572.5625
507.96899	1572.4625
512.04106	1564.9625
516.11023	1592.1625
520.1765	1602.5625
524.23987	1605.4625
528.30034	1602.3625
532.35792	1599.6625
536.41261	1597.7625
540.46441	1581.6625
544.51333	1557.2625
548.55936	1551.7625
552.60252	1565.0625
556.64279	1568.4625
560.6802	1583.6625
564.71473	1600.4625
568.7464	1635.8625
572.7752	1657.1625
576.80114	1609.7625
580.82422	1577.9625
584.84444	1579.9625
588.86181	1591.6625
592.87633	1632.7625
596.888	1641.3625
600.89682	1684.1625
604.9028	1804.3625
608.90594	2122.1625
612.90624	2499.4625
616.90371	2416.2625
620.89834	1965.3625
624.89015	1780.0625
628.87913	1785.1625
632.86528	1854.0625
636.84862	1892.3625
640.82913	1877.8625
644.80683	1791.7625
648.78172	1714.2625
652.75379	1691.1625
656.72306	1694.6625
660.68952	1718.8625
664.65319	1694.6625
668.61405	1644.5625
672.57211	1630.4625
676.52738	1640.8625
680.47986	1641.5625
684.42955	1652.4625
688.37646	1661.5625
692.32058	1666.8625
696.26192	1662.0625
700.20048	1647.4625
704.13626	1636.4625
708.06928	1627.8625
711.99952	1618.8625
715.927	1611.2625
719.85171	1617.6625
723.77365	1639.4625
727.69284	1643.4625
731.60928	1641.9625
735.52295	1629.8625
739.43388	1636.2625
743.34206	1617.1625
747.24749	1623.1625
751.15017	1611.2625
755.05012	1593.1625
758.94733	1663.6625
762.8418	1786.1625
766.73354	1953.1625
770.62254	2135.4625
774.50882	2222.6625
778.39237	2177.2625
782.27321	2007.7625
786.15132	1824.9625
790.02671	1697.2625
793.89938	1652.1625
797.76935	1635.5625
801.6366	1635.5625
805.50115	1653.0625
809.36299	1675.4625
813.22213	1673.4625
817.07857	1669.4625
820.93231	1644.9625
824.78336	1635.5625
828.63172	1617.1625
832.47738	1602.8625
836.32036	1598.1625
840.16066	1590.6625
843.99827	1599.2625
847.8332	1596.3625
851.66546	1585.5625
855.49504	1596.9625
859.32195	1589.2625
863.1462	1586.3625
866.96777	1587.3625
870.78668	1599.1625
874.60293	1612.6625
878.41652	1630.7625
882.22745	1656.4625
886.03573	1677.1625
889.84136	1677.5625
893.64433	1677.5625
897.44466	1655.3625
901.24235	1633.3625
905.0374	1606.2625
908.8298	1588.3625
912.61957	1575.5625
916.40671	1568.5625
920.19121	1568.3625
923.97308	1571.8625
927.75233	1593.5625
931.52895	1609.4625
935.30295	1593.4625
939.07433	1574.7625
942.84309	1552.7625
946.60924	1534.1625
950.37278	1536.8625
954.13371	1536.6625
957.89203	1538.3625
961.64774	1531.3625
965.40086	1524.6625
969.15137	1525.2625
972.89929	1510.5625
976.64461	1525.4625
980.38733	1518.9625
984.12747	1519.2625
987.86502	1527.7625
991.59999	1520.7625
995.33237	1545.0625
999.06217	1575.1625
1002.78939	1615.3625
1006.51404	1634.8625
1010.23611	1653.8625
1013.95561	1680.5625
1017.67255	1680.3625
1021.38692	1679.9625
1025.09872	1667.8625
1028.80796	1663.4625
1032.51465	1671.5625
1036.21877	1672.9625
1039.92035	1670.8625
1043.61937	1657.1625
1047.31584	1648.7625
1051.00976	1628.2625
1054.70114	1623.5625
1058.38998	1610.8625
1062.07627	1630.8625
1065.76003	1634.2625
1069.44126	1644.6625
1073.11995	1658.1625
1076.79611	1684.4625
1080.46974	1699.0625
1084.14085	1728.5625
1087.80943	1744.3625
1091.47549	1739.9625
1095.13903	1711.5625
1098.80005	1674.8625
1102.45857	1656.6625
1106.11456	1653.2625
1109.76805	1670.3625
1113.41903	1709.2625
1117.06751	1756.1625
1120.71348	1824.4625
1124.35696	1923.7625
1127.99793	2018.5625
1131.63641	2055.2625
1135.2724	2030.7625
1138.90589	1972.8625
1142.5369	1907.5625
1146.16542	1837.2625
1149.79145	1779.2625
1153.415	1730.6625
1157.03607	1693.3625
1160.65467	1701.7625
1164.27079	1700.0625
1167.88443	1754.0625
1171.49561	1840.4625
1175.10432	1958.3625
1178.71056	2142.8625
1182.31434	2309.6625
1185.91565	2379.9625
1189.51451	2333.7625
1193.11091	2230.0625
1196.70485	2147.7625
1200.29634	2085.1625
1203.88538	2035.5625
1207.47197	1956.0625
1211.05612	1882.1625
1214.63782	1818.1625
1218.21708	1796.4625
1221.79391	1775.2625
1225.36829	1764.5625
1228.94024	1753.8625
1232.50976	1743.2625
1236.07685	1735.5625
1239.6415	1743.8625
1243.20374	1744.4625
1246.76355	1762.6625
1250.32093	1772.0625
1253.8759	1788.3625
1257.42845	1830.8625
1260.97859	1867.6625
1264.52631	1911.5625
1268.07163	1962.5625
1271.61453	2000.0625
1275.15503	2027.0625
1278.69312	2027.3625
1282.22882	2039.5625
1285.76211	2073.1625
1289.29301	2106.9625
1292.82151	2155.6625
1296.34761	2209.4625
1299.87133	2321.7625
1303.39266	2457.0625
1306.9116	2688.4625
1310.42815	2931.7625
1313.94233	3016.9625
1317.45412	2893.6625
1320.96354	2688.6625
1324.47058	2504.9625
1327.97525	2333.7625
1331.47754	2225.8625
1334.97747	2190.0625
1338.47502	2215.1625
1341.97022	2266.7625
1345.46305	2376.9625
1348.95352	2525.5625
1352.44163	2706.9625
1355.92738	2964.5625
1359.41078	3339.1625
1362.89183	3650.3625
1366.37053	3526.1625
1369.84688	3036.4625
1373.32088	2613.6625
1376.79254	2378.9625
1380.26186	2242.6625
1383.72883	2137.2625
1387.19347	2036.3625
1390.65578	1953.7625
1394.11575	1900.1625
1397.57339	1867.7625
1401.0287	1860.7625
1404.48168	1846.2625
1407.93234	1828.9625
1411.38068	1841.6625
1414.82669	1831.4625
1418.27039	1826.4625
1421.71177	1815.2625
1425.15083	1799.9625
1428.58758	1790.5625
1432.02203	1817.6625
1435.45416	1841.7625
1438.88399	1853.3625
1442.31151	1846.4625
1445.73673	1840.4625
1449.15965	1849.3625
1452.58027	1846.2625
1455.9986	1836.0625
1459.41463	1842.0625
1462.82837	1844.1625
1466.23982	1882.3625
1469.64898	1904.9625
1473.05586	1927.2625
1476.46045	1934.7625
1479.86276	1949.0625
1483.26279	1980.8625
1486.66054	2011.0625
1490.05602	2049.9625
1493.44922	2119.2625
1496.84016	2236.6625
1500.22882	2429.5625
1503.61521	2692.0625
1506.99934	3014.9625
1510.38121	3259.7625
1513.76081	3266.9625
1517.13816	3032.4625
1520.51324	2678.6625
1523.88607	2370.8625
1527.25665	2180.5625
1530.62498	2072.0625
1533.99105	2017.9625
1537.35488	1983.7625
1540.71647	1967.8625
1544.07581	1966.4625
1547.4329	1956.6625
1550.78776	1966.9625
1554.14038	1976.9625
1557.49077	1991.4625
1560.83892	2012.8625
1564.18484	2059.1625
1567.52853	2122.4625
1570.86999	2171.2625
1574.20922	2216.8625
1577.54624	2192.8625
1580.88103	2104.5625
1584.2136	2011.6625
1587.54395	1931.9625
1590.87208	1927.2625
1594.19801	1992.6625
1597.52172	2092.0625
1600.84321	2140.1625
1604.16251	2102.6625
1607.47959	2025.6625
1610.79447	1924.3625
1614.10715	1855.3625
1617.41763	1781.1625
1620.7259	1739.1625
1624.03199	1732.8625
1627.33587	1735.4625
1630.63757	1746.5625
1633.93707	1799.0625
1637.23439	1864.8625
1640.52951	2022.1625
1643.82246	2215.6625
1647.11321	2445.4625
1650.40179	2586.2625
1653.68819	2517.9625
1656.97241	2269.7625
1660.25446	1995.1625
1663.53433	1813.1625
1666.81203	1681.7625
1670.08756	1622.5625
1673.36092	1596.2625
1676.63211	1570.9625
1679.90115	1542.6625
1683.16801	1529.1625
1686.43272	1530.2625
1689.69527	1503.4625
1692.95567	1495.8625
1696.2139	1478.4625
1699.46999	1454.6625
1702.72392	1440.4625
1705.97571	1420.1625
1709.22535	1404.6625
1712.47284	1384.9625
1715.71819	1373.6625
1718.96139	1363.0625
1722.20246	1357.0625
1725.44139	1344.1625
1728.67818	1319.7625
1731.91284	1308.0625
1735.14537	1313.2625
1738.37576	1297.5625
1741.60403	1291.6625
1744.83017	1281.6625
1748.05418	1279.6625
1751.27607	1277.0625
1754.49584	1260.7625
1757.71349	1254.4625
1760.92903	1256.9625
1764.14244	1249.6625
1767.35375	1243.4625
1770.56294	1239.9625
1773.77002	1236.8625
1776.97499	1220.1625
1780.17785	1241.9625
1783.37861	1237.2625
1786.57727	1235.1625
1789.77382	1237.7625
1792.96828	1226.2625
1796.16064	1226.3625
1799.3509	1225.4625
1802.53907	1232.1625
1805.72514	1214.3625
1808.90913	1228.9625
1812.09102	1218.9625
1815.27083	1204.4625
1818.44856	1200.1625
1821.6242	1206.9625
1824.79776	1196.7625
1827.96924	1203.6625
1831.13864	1204.1625
1834.30597	1202.3625
1837.47122	1198.2625
1840.6344	1189.0625
1843.7955	1191.5625
1846.95454	1194.1625
1850.11151	1187.1625
1853.26642	1187.6625
1856.41926	1193.0625
1859.57004	1182.2625
1862.71876	1190.0625
1865.86542	1177.9625
1869.01003	1186.9625
1872.15258	1179.1625
1875.29308	1185.0625
1878.43152	1174.2625
1881.56792	1174.6625
1884.70227	1182.5625
1887.83457	1173.5625
1890.96482	1170.1625
1894.09304	1181.7625
1897.21921	1174.0625
1900.34335	1165.1625
1903.46544	1164.6625
1906.58551	1181.4625
1909.70353	1164.0625
1912.81953	1169.8625
1915.93349	1163.8625
1919.04543	1165.1625
1922.15534	1168.0625
1925.26322	1163.1625
1928.36908	1156.6625
1931.47292	1158.3625
1934.57473	1149.8625
1937.67453	1154.3625
1940.77232	1156.7625
1943.86808	1149.6625
1946.96184	1140.4625
1950.05358	1140.7625
1953.14331	1142.1625
1956.23103	1130.0625
1959.31675	1134.5625
1962.40046	1122.9625
1965.48217	1121.2625
1968.56188	1121.2625
1971.63959	1126.8625
1974.7153	1115.9625
1977.78901	1108.1625
1980.86073	1106.9625
1983.93046	1100.6625
1986.99819	1107.8625
1990.06394	1094.4625
1993.1277	1095.7625
1996.18947	1085.7625
1999.24925	1090.7625
2002.30706	1086.7625
2005.36288	1075.9625
2008.41672	1073.4625
2011.46859	1077.5625
2014.51848	1073.4625
2017.56639	1066.7625
2020.61233	1070.1625
2023.6563	1071.8625
2026.6983	1060.8625
2029.73833	1057.4625
2032.7764	1060.7625
2035.8125	1054.9625
2038.84664	1056.1625
2041.87881	1061.6625
2044.90903	1054.2625
2047.93729	1063.7625
2050.96359	1053.3625
2053.98794	1051.0625
2057.01034	1043.8625
2060.03078	1041.8625
2063.04927	1049.6625
2066.06582	1049.6625
2069.08042	1047.2625
2072.09307	1047.0625
2075.10378	1041.8625
2078.11255	1046.0625
2081.11938	1035.5625
2084.12426	1040.9625
2087.12722	1048.8625
2090.12824	1042.8625
2093.12732	1047.8625
2096.12447	1045.4625
2099.11969	1040.3625
2102.11299	1040.3625
2105.10435	1055.1625
2108.09379	1050.5625
2111.08131	1048.3625
2114.0669	1046.7625
2117.05057	1056.8625
2120.03233	1050.8625
2123.01216	1047.8625
2125.99008	1050.2625
2128.96609	1056.1625
2131.94018	1051.6625
2134.91236	1053.8625
2137.88263	1059.9625
2140.851	1051.1625
2143.81746	1054.2625
2146.78201	1053.2625
2149.74466	1055.2625
2152.7054	1056.4625
2155.66425	1055.0625
2158.6212	1056.7625
2161.57625	1056.8625
2164.52941	1050.6625
2167.48067	1052.1625
2170.43004	1049.1625
2173.37752	1059.4625
2176.32311	1056.3625
2179.26681	1050.7625
2182.20863	1052.5625
2185.14856	1061.2625
2188.08661	1056.8625
2191.02278	1053.8625
2193.95707	1056.8625
2196.88948	1046.6625
2199.82001	1048.2625
2202.74867	1046.8625
2205.67545	1053.0625
2208.60037	1044.1625
2211.52341	1053.0625
2214.44458	1044.8625
2217.36388	1037.9625
2220.28132	1038.7625
2223.1969	1045.0625
2226.11061	1042.6625
2229.02246	1041.8625
2231.93245	1030.7625
2234.84058	1033.5625
2237.74686	1034.8625
2240.65128	1033.3625
2243.55385	1026.7625
2246.45456	1026.0625
2249.35343	1040.2625
2252.25044	1024.6625
2255.14561	1021.0625
2258.03893	1031.1625
2260.93041	1025.4625
2263.82004	1019.1625
2266.70783	1019.6625
2269.59378	1015.0625
2272.4779	1010.5625
2275.36017	1016.0625
2278.24061	1006.2625
2281.11922	1004.3625
2283.996	1004.4625
2286.87094	1002.2625
2289.74405	1008.3625
2292.61534	1010.8625
2295.4848	1007.6625
2298.35243	1007.5625
2301.21824	998.0625
2304.08223	1008.4625
2306.94439	1008.1625
2309.80474	1009.8625
2312.66327	1005.9625
2315.51999	1004.5625
2318.37489	1006.3625
2321.22797	995.2625
2324.07925	1000.5625
2326.92871	1001.8625
2329.77637	1004.2625
2332.62222	997.4625
2335.46626	1003.7625
2338.3085	991.4625
2341.14893	994.9625
2343.98756	994.1625
2346.8244	1001.7625
2349.65943	1001.4625
2352.49267	995.7625
2355.32411	990.3625
2358.15376	990.0625
2360.98161	994.5625
2363.80768	996.9625
2366.63195	996.4625
2369.45444	994.4625
2372.27514	991.9625
2375.09405	997.0625
2377.91118	990.2625
2380.72652	992.5625
2383.54009	992.0625
2386.35187	983.5625
2389.16188	977.4625
2391.97011	991.5625
2394.77657	987.6625
2397.58125	978.0625
2400.38416	982.8625
2403.18529	971.4625
2405.98466	974.4625
2408.78226	968.6625
2411.57809	973.0625
2414.37216	969.5625
2417.16446	961.9625
2419.955	971.2625
2422.74378	970.6625
2425.5308	967.2625
2428.31606	970.0625
2431.09956	970.8625
2433.88131	961.1625
2436.6613	963.3625
2439.43954	963.0625
2442.21603	959.0625
2444.99077	970.8625
2447.76377	968.3625
2450.53501	963.2625
2453.30451	958.8625
2456.07226	966.8625
2458.83827	965.7625
2461.60254	963.8625
2464.36507	960.0625
2467.12586	961.5625
2469.88492	960.9625
2472.64224	959.5625
2475.39782	964.9625
2478.15167	958.7625
2480.90379	970.0625
2483.65417	968.8625
2486.40283	965.1625
2489.14976	970.1625
2491.89497	968.4625
2494.63845	966.2625
2497.3802	960.4625
2500.12024	959.5625
2502.85855	960.8625
2505.59514	958.3625
2508.33002	957.3625
2511.06318	957.8625
2513.79462	960.5625
2516.52435	951.3625
2519.25237	955.4625
2521.97867	947.6625
2524.70327	953.6625
2527.42616	950.7625
2530.14734	947.0625
2532.86681	950.2625
2535.58458	946.7625
2538.30065	952.7625
2541.01501	950.0625
2543.72768	940.2625
2546.43864	945.1625
2549.14791	937.4625
2551.85548	945.5625
2554.56136	948.6625
2557.26554	940.8625
2559.96803	941.2625
2562.66883	936.7625
2565.36794	937.2625
2568.06536	933.4625
2570.7611	938.3625
2573.45514	939.0625
2576.14751	940.0625
2578.83819	934.4625
2581.52719	927.8625
2584.21451	927.9625
2586.90015	931.8625
2589.58411	923.2625
2592.2664	929.7625
2594.94701	930.2625
2597.62594	923.1625
2600.30321	932.9625
2602.9788	929.3625
2605.65273	931.6625
2608.32498	922.8625
2610.99557	918.6625
2613.66449	920.0625
2616.33175	924.2625
2618.99734	927.6625
2621.66128	919.9625
2624.32355	920.4625
2626.98416	926.5625
2629.64311	925.1625
2632.30041	922.6625
2634.95605	921.3625
2637.61004	925.5625
2640.26238	916.7625
2642.91306	910.9625
2645.56209	917.8625
2648.20948	922.5625
2650.85521	915.8625
2653.4993	909.8625
2656.14175	921.3625
2658.78255	916.2625
2661.42171	916.1625
2664.05923	913.3625
2666.6951	918.3625
2669.32934	916.1625
2671.96194	917.4625
2674.59291	922.1625
2677.22224	916.5625
2679.84993	918.5625
2682.476	917.3625
2685.10043	924.6625
2687.72324	918.2625
2690.34441	913.2625
2692.96396	919.3625
2695.58188	923.9625
2698.19818	919.5625
2700.81285	912.0625
2703.4259	918.0625
2706.03733	904.5625
2708.64714	905.9625
2711.25533	916.4625
2713.86191	916.9625
2716.46687	918.6625
2719.07021	920.9625
2721.67194	924.3625
2724.27206	926.9625
2726.87057	919.2625
2729.46747	927.3625
2732.06276	936.2625
2734.65644	927.3625
2737.24852	928.0625
2739.83899	917.5625
2742.42786	926.9625
2745.01513	922.3625
2747.60079	921.8625
2750.18486	921.8625
2752.76733	913.4625
2755.3482	913.8625
2757.92747	916.9625
2760.50515	924.0625
2763.08123	914.6625
2765.65573	919.8625
2768.22863	920.1625
2770.79994	913.5625
2773.36967	909.7625
2775.9378	927.3625
2778.50435	909.3625
2781.06932	918.0625
2783.6327	915.2625
2786.1945	920.7625
2788.75471	915.1625
2791.31335	913.1625
2793.87041	915.8625
2796.42589	918.3625
2798.97979	917.2625
2801.53212	916.4625
2804.08288	911.5625
2806.63206	909.9625
2809.17967	916.0625
2811.72571	907.2625
2814.27018	906.1625
2816.81308	902.2625
2819.35442	904.7625
2821.89419	906.7625
2824.43239	906.1625
2826.96904	899.5625
2829.50412	901.4625
2832.03763	904.8625
2834.56959	903.6625
2837.1	904.4625
2839.62884	912.0625
2842.15613	905.8625
2844.68186	894.6625
2847.20604	909.9625
2849.72867	900.1625
2852.24974	908.5625
2854.76927	911.1625
2857.28724	911.3625
2859.80367	911.0625
2862.31855	913.2625
2864.83189	910.6625
2867.34368	913.6625
2869.85393	911.7625
2872.36264	904.7625
2874.8698	915.5625
2877.37543	913.5625
2879.87952	914.8625
2882.38207	916.1625
2884.88308	914.3625
2887.38256	920.6625
2889.88051	920.3625
2892.37692	925.3625
2894.8718	918.1625
2897.36515	926.2625
2899.85698	924.9625
2902.34727	917.7625
2904.83604	927.8625
2907.32328	933.2625
2909.809	931.5625
2912.29319	934.5625
2914.77587	934.1625
2917.25702	933.6625
2919.73665	931.1625
2922.21476	934.0625
2924.69136	929.1625
2927.16644	931.6625
2929.64	928.4625
2932.11205	935.7625
2934.58258	930.1625
2937.05161	936.8625
2939.51912	930.4625
2941.98513	935.8625
2944.44962	932.7625
2946.91261	925.7625
2949.37409	931.9625
2951.83407	935.3625
2954.29254	934.0625
2956.74951	934.8625
2959.20498	935.6625
2961.65895	934.1625
2964.11142	933.9625
2966.56239	931.1625
2969.01186	936.4625
2971.45984	942.8625
2973.90632	933.3625
2976.35131	928.8625
2978.7948	936.8625
2981.23681	937.7625
2983.67732	932.6625
2986.11635	934.6625
2988.55388	932.9625
2990.98993	938.9625
2993.4245	934.5625
2995.85758	935.7625
2998.28917	941.2625
3000.71928	938.7625
3003.14791	938.5625
3005.57506	938.7625
3008.00073	935.2625
3010.42493	938.0625
3012.84764	942.0625
3015.26888	942.0625
3017.68865	944.5625
3020.10694	945.8625
3022.52376	936.7625
3024.9391	943.7625
3027.35298	946.6625
3029.76539	946.9625
3032.17632	953.1625
3034.5858	944.4625
3036.9938	957.6625
3039.40034	963.0625
3041.80542	961.9625
3044.20903	952.8625
3046.61118	961.7625
3049.01187	968.3625
3051.4111	977.5625
3053.80888	977.9625
3056.20519	976.7625
3058.60005	977.2625
3060.99345	985.8625
3063.3854	974.9625
3065.7759	979.2625
3068.16494	986.8625
3070.55254	982.9625
3072.93868	988.4625
3075.32338	994.3625
3077.70662	990.6625
3080.08842	995.1625
3082.46878	997.8625
3084.84769	999.6625
3087.22515	1005.8625
3089.60118	1011.7625
3091.97576	1022.7625
3094.3489	1016.2625
3096.72061	1025.9625
3099.09087	1026.6625
3101.4597	1040.5625
3103.82709	1040.8625
3106.19305	1045.0625
3108.55757	1053.0625
3110.92066	1056.5625
3113.28232	1055.4625
3115.64255	1071.9625
3118.00134	1073.2625
3120.35871	1072.6625
3122.71466	1087.3625
3125.06917	1088.1625
3127.42226	1088.6625
3129.77393	1105.1625
3132.12417	1098.4625
3134.47299	1108.1625
3136.82039	1111.1625
3139.16636	1123.3625
3141.51092	1127.7625
3143.85406	1136.7625
3146.19579	1139.7625
3148.53609	1143.8625
3150.87499	1160.3625
3153.21246	1172.4625
3155.54853	1175.7625
3157.88318	1172.1625
3160.21642	1187.2625
3162.54826	1197.0625
3164.87868	1202.7625
3167.2077	1213.8625
3169.5353	1214.9625
3171.86151	1218.8625
3174.18631	1224.5625
3176.5097	1231.7625
3178.83169	1243.6625
3181.15228	1247.5625
3183.47147	1260.5625
3185.78926	1254.3625
3188.10565	1262.3625
3190.42065	1268.8625
3192.73424	1263.3625
3195.04645	1266.4625
3197.35725	1274.8625
3199.66667	1277.5625
3201.97469	1292.1625
3204.28132	1288.9625
3206.58656	1296.2625
3208.8904	1316.5625
3211.19287	1303.8625
3213.49394	1318.1625
3215.79363	1322.5625
3218.09193	1323.9625
3220.38884	1332.7625
3222.68438	1331.4625
3224.97853	1325.5625
3227.2713	1340.8625
3229.56269	1335.1625
3231.8527	1348.6625
3234.14133	1342.4625
3236.42858	1345.6625
3238.71446	1350.1625
3240.99896	1340.2625
3243.28209	1343.2625
3245.56384	1342.1625
3247.84423	1344.1625
3250.12324	1337.3625
3252.40088	1345.5625
3254.67715	1340.4625
3256.95205	1350.2625
3259.22558	1354.3625
3261.49775	1344.0625
3263.76855	1344.0625
3266.03799	1353.0625
3268.30606	1345.3625
3270.57277	1352.3625
3272.83812	1341.3625
3275.10211	1352.2625
3277.36474	1346.1625
3279.62601	1350.1625
3281.88593	1348.3625
3284.14448	1352.7625
3286.40168	1346.3625
3288.65753	1351.3625
3290.91202	1349.3625
3293.16516	1346.3625
3295.41695	1341.6625
3297.66738	1338.6625
3299.91647	1332.3625
3302.16421	1330.8625
3304.4106	1318.8625
3306.65564	1315.1625
3308.89933	1308.0625
3311.14169	1290.0625
3313.38269	1280.9625
3315.62236	1273.7625
3317.86068	1261.1625
3320.09766	1261.1625
3322.3333	1250.5625
3324.5676	1246.6625
3326.80056	1226.4625
3329.03219	1218.9625
3331.26248	0.8625
3333.49143	0.4625
3335.71905	-1.3375
