Data from AgNPs_APTES_FTO_UA_100uM_CRN_0uM_R6G_10uM_Scan_RamanShift__26__11-10-01-262.txt Node

Date: Wed Jun 29 11:10:01 BST 2022
User: TCL
Spectrometer: QEP01345
Trigger mode: 4
Integration Time (sec): 7.000000E0
Scans to average: 10
Electric dark correction enabled: true
Nonlinearity correction enabled: false
Boxcar width: 0
XAxis mode: Raman Shifts
Number of Pixels in Spectrum: 1044
>>>>>Begin Spectral Data<<<<<
46.04893	-0.1125
50.45542	-0.4125
54.85868	0.6875
59.25871	0.8875
63.6555	31.5875
68.04907	33.2875
72.43941	38.6875
76.82654	39.0875
81.21044	42.7875
85.59113	48.1875
89.96862	48.5875
94.34289	50.0875
98.71396	51.3875
103.08183	51.0875
107.4465	51.9875
111.80798	54.6875
116.16626	50.6875
120.52136	50.9875
124.87327	50.9875
129.222	52.3875
133.56755	49.8875
137.90993	49.9875
142.24913	49.4875
146.58517	46.3875
150.91804	43.7875
155.24774	47.8875
159.57429	52.4875
163.89768	54.0875
168.21792	56.9875
172.53501	69.0875
176.84895	76.7875
181.15975	97.7875
185.46741	126.3875
189.77193	161.1875
194.07331	204.0875
198.37157	262.1875
202.6667	314.4875
206.9587	369.5875
211.24758	429.8875
215.53334	485.0875
219.81599	547.3875
224.09553	605.4875
228.37195	677.5875
232.64527	763.4875
236.91549	848.6875
241.18261	935.4875
245.44663	1025.0875
249.70755	1097.1875
253.96539	1151.4875
258.22014	1194.5875
262.4718	1203.2875
266.72039	1199.7875
270.96589	1185.6875
275.20832	1140.3875
279.44768	1100.4875
283.68397	1063.5875
287.91719	1021.1875
292.14735	983.3875
296.37445	953.6875
300.59849	927.7875
304.81948	915.5875
309.03742	909.4875
313.25231	891.4875
317.46415	877.4875
321.67296	871.4875
325.87872	856.1875
330.08145	856.2875
334.28114	853.7875
338.47781	861.4875
342.67145	867.9875
346.86207	874.2875
351.04966	886.9875
355.23424	895.1875
359.4158	913.1875
363.59435	917.8875
367.76989	919.4875
371.94243	931.4875
376.11196	932.2875
380.27849	937.9875
384.44203	944.7875
388.60257	954.7875
392.76012	963.3875
396.91468	967.9875
401.06626	980.8875
405.21485	999.1875
409.36047	994.8875
413.50311	1023.2875
417.64277	1049.2875
421.77947	1072.9875
425.9132	1007.3875
430.04396	973.3875
434.17176	984.4875
438.2966	998.5875
442.41849	1002.2875
446.53742	1006.4875
450.6534	1009.7875
454.76644	1025.6875
458.87653	1027.4875
462.98368	1040.1875
467.08789	1040.3875
471.18916	1041.3875
475.2875	1035.8875
479.38291	1043.9875
483.4754	1039.4875
487.56496	1046.0875
491.6516	1050.6875
495.73531	1055.1875
499.81612	1061.0875
503.89401	1058.7875
507.96899	1057.8875
512.04106	1046.0875
516.11023	1051.0875
520.1765	1040.1875
524.23987	1035.2875
528.30034	1030.2875
532.35792	1022.7875
536.41261	1020.2875
540.46441	1006.3875
544.51333	1017.8875
548.55936	1019.3875
552.60252	1022.6875
556.64279	1028.9875
560.6802	1025.4875
564.71473	1029.2875
568.7464	1029.3875
572.7752	1036.2875
576.80114	1032.8875
580.82422	1026.2875
584.84444	1027.4875
588.86181	1028.1875
592.87633	1036.7875
596.888	1036.0875
600.89682	1053.8875
604.9028	1070.7875
608.90594	1119.9875
612.90624	1181.1875
616.90371	1169.7875
620.89834	1116.0875
624.89015	1085.1875
628.87913	1080.5875
632.86528	1077.8875
636.84862	1085.0875
640.82913	1084.3875
644.80683	1089.3875
648.78172	1083.2875
652.75379	1089.3875
656.72306	1095.9875
660.68952	1115.0875
664.65319	1111.2875
668.61405	1120.1875
672.57211	1134.8875
676.52738	1145.8875
680.47986	1168.0875
684.42955	1192.1875
688.37646	1210.5875
692.32058	1201.3875
696.26192	1173.1875
700.20048	1153.7875
704.13626	1138.8875
708.06928	1130.2875
711.99952	1119.6875
715.927	1116.5875
719.85171	1117.9875
723.77365	1105.0875
727.69284	1104.8875
731.60928	1098.7875
735.52295	1091.7875
739.43388	1102.8875
743.34206	1091.5875
747.24749	1097.6875
751.15017	1102.0875
755.05012	1077.4875
758.94733	1112.6875
762.8418	1127.5875
766.73354	1147.8875
770.62254	1169.0875
774.50882	1196.1875
778.39237	1184.3875
782.27321	1166.7875
786.15132	1135.4875
790.02671	1125.3875
793.89938	1112.8875
797.76935	1107.3875
801.6366	1114.3875
805.50115	1111.2875
809.36299	1116.2875
813.22213	1120.7875
817.07857	1120.8875
820.93231	1109.3875
824.78336	1095.8875
828.63172	1080.4875
832.47738	1082.0875
836.32036	1083.9875
840.16066	1087.5875
843.99827	1084.6875
847.8332	1089.7875
851.66546	1091.9875
855.49504	1083.0875
859.32195	1078.9875
863.1462	1079.2875
866.96777	1077.4875
870.78668	1085.0875
874.60293	1071.1875
878.41652	1082.4875
882.22745	1094.6875
886.03573	1083.8875
889.84136	1084.8875
893.64433	1099.3875
897.44466	1096.8875
901.24235	1103.3875
905.0374	1111.1875
908.8298	1112.9875
912.61957	1114.5875
916.40671	1121.5875
920.19121	1130.8875
923.97308	1120.1875
927.75233	1135.3875
931.52895	1129.9875
935.30295	1129.4875
939.07433	1106.9875
942.84309	1106.1875
946.60924	1101.9875
950.37278	1095.3875
954.13371	1088.9875
957.89203	1089.3875
961.64774	1086.3875
965.40086	1080.5875
969.15137	1069.8875
972.89929	1078.4875
976.64461	1076.2875
980.38733	1067.6875
984.12747	1066.3875
987.86502	1064.2875
991.59999	1064.8875
995.33237	1069.1875
999.06217	1072.5875
1002.78939	1073.7875
1006.51404	1079.1875
1010.23611	1082.5875
1013.95561	1092.5875
1017.67255	1090.6875
1021.38692	1087.0875
1025.09872	1095.1875
1028.80796	1086.2875
1032.51465	1086.7875
1036.21877	1091.7875
1039.92035	1087.0875
1043.61937	1093.4875
1047.31584	1086.8875
1051.00976	1100.1875
1054.70114	1092.1875
1058.38998	1101.4875
1062.07627	1102.1875
1065.76003	1091.9875
1069.44126	1099.0875
1073.11995	1092.7875
1076.79611	1094.5875
1080.46974	1097.1875
1084.14085	1101.9875
1087.80943	1093.2875
1091.47549	1099.0875
1095.13903	1084.8875
1098.80005	1080.8875
1102.45857	1081.5875
1106.11456	1078.3875
1109.76805	1072.6875
1113.41903	1078.3875
1117.06751	1096.7875
1120.71348	1104.9875
1124.35696	1117.3875
1127.99793	1131.6875
1131.63641	1134.8875
1135.2724	1148.9875
1138.90589	1145.2875
1142.5369	1152.5875
1146.16542	1135.1875
1149.79145	1126.5875
1153.415	1117.5875
1157.03607	1097.4875
1160.65467	1105.3875
1164.27079	1109.6875
1167.88443	1109.4875
1171.49561	1120.0875
1175.10432	1133.2875
1178.71056	1159.6875
1182.31434	1180.8875
1185.91565	1190.9875
1189.51451	1187.4875
1193.11091	1168.3875
1196.70485	1166.6875
1200.29634	1153.9875
1203.88538	1154.6875
1207.47197	1143.2875
1211.05612	1142.9875
1214.63782	1129.4875
1218.21708	1134.2875
1221.79391	1133.1875
1225.36829	1139.7875
1228.94024	1137.8875
1232.50976	1128.9875
1236.07685	1138.2875
1239.6415	1145.2875
1243.20374	1134.2875
1246.76355	1133.7875
1250.32093	1146.5875
1253.8759	1142.0875
1257.42845	1149.6875
1260.97859	1152.6875
1264.52631	1153.1875
1268.07163	1158.0875
1271.61453	1172.4875
1275.15503	1171.6875
1278.69312	1173.0875
1282.22882	1180.0875
1285.76211	1189.4875
1289.29301	1205.4875
1292.82151	1218.0875
1296.34761	1224.5875
1299.87133	1260.5875
1303.39266	1272.5875
1306.9116	1307.3875
1310.42815	1342.0875
1313.94233	1357.9875
1317.45412	1343.5875
1320.96354	1319.7875
1324.47058	1308.7875
1327.97525	1289.0875
1331.47754	1291.1875
1334.97747	1289.2875
1338.47502	1296.5875
1341.97022	1310.1875
1345.46305	1323.4875
1348.95352	1351.7875
1352.44163	1375.7875
1355.92738	1410.9875
1359.41078	1449.8875
1362.89183	1499.8875
1366.37053	1510.9875
1369.84688	1447.8875
1373.32088	1373.7875
1376.79254	1322.1875
1380.26186	1293.3875
1383.72883	1272.0875
1387.19347	1261.4875
1390.65578	1243.6875
1394.11575	1230.8875
1397.57339	1232.1875
1401.0287	1217.5875
1404.48168	1211.5875
1407.93234	1205.4875
1411.38068	1199.8875
1414.82669	1187.8875
1418.27039	1179.5875
1421.71177	1182.3875
1425.15083	1157.2875
1428.58758	1155.7875
1432.02203	1147.4875
1435.45416	1135.0875
1438.88399	1125.7875
1442.31151	1128.6875
1445.73673	1112.4875
1449.15965	1110.2875
1452.58027	1123.0875
1455.9986	1116.6875
1459.41463	1114.2875
1462.82837	1116.3875
1466.23982	1114.5875
1469.64898	1126.4875
1473.05586	1133.1875
1476.46045	1135.1875
1479.86276	1130.3875
1483.26279	1144.8875
1486.66054	1147.5875
1490.05602	1163.5875
1493.44922	1163.8875
1496.84016	1188.1875
1500.22882	1209.4875
1503.61521	1237.9875
1506.99934	1287.6875
1510.38121	1323.0875
1513.76081	1321.3875
1517.13816	1282.0875
1520.51324	1246.9875
1523.88607	1216.3875
1527.25665	1189.1875
1530.62498	1175.9875
1533.99105	1182.9875
1537.35488	1177.8875
1540.71647	1183.1875
1544.07581	1177.6875
1547.4329	1194.5875
1550.78776	1194.9875
1554.14038	1209.5875
1557.49077	1216.9875
1560.83892	1210.1875
1564.18484	1214.2875
1567.52853	1223.7875
1570.86999	1233.8875
1574.20922	1237.5875
1577.54624	1240.8875
1580.88103	1224.8875
1584.2136	1211.4875
1587.54395	1188.9875
1590.87208	1188.3875
1594.19801	1184.1875
1597.52172	1168.7875
1600.84321	1170.6875
1604.16251	1155.2875
1607.47959	1151.8875
1610.79447	1130.4875
1614.10715	1126.4875
1617.41763	1118.9875
1620.7259	1100.4875
1624.03199	1107.0875
1627.33587	1098.7875
1630.63757	1086.7875
1633.93707	1078.2875
1637.23439	1071.7875
1640.52951	1081.1875
1643.82246	1087.9875
1647.11321	1104.1875
1650.40179	1104.1875
1653.68819	1086.8875
1656.97241	1058.1875
1660.25446	1022.8875
1663.53433	1003.2875
1666.81203	983.6875
1670.08756	975.7875
1673.36092	972.4875
1676.63211	965.6875
1679.90115	965.8875
1683.16801	957.9875
1686.43272	940.1875
1689.69527	921.2875
1692.95567	906.4875
1696.2139	876.9875
1699.46999	835.1875
1702.72392	833.3875
1705.97571	844.4875
1709.22535	866.8875
1712.47284	878.0875
1715.71819	887.2875
1718.96139	886.9875
1722.20246	883.4875
1725.44139	872.2875
1728.67818	864.4875
1731.91284	856.6875
1735.14537	848.8875
1738.37576	851.4875
1741.60403	835.2875
1744.83017	827.8875
1748.05418	809.4875
1751.27607	807.0875
1754.49584	784.8875
1757.71349	771.8875
1760.92903	766.5875
1764.14244	758.8875
1767.35375	752.7875
1770.56294	754.2875
1773.77002	760.8875
1776.97499	759.5875
1780.17785	781.6875
1783.37861	794.2875
1786.57727	800.0875
1789.77382	800.8875
1792.96828	805.8875
1796.16064	786.3875
1799.3509	790.9875
1802.53907	789.4875
1805.72514	789.8875
1808.90913	789.0875
1812.09102	783.8875
1815.27083	785.9875
1818.44856	781.2875
1821.6242	786.2875
1824.79776	782.5875
1827.96924	777.7875
1831.13864	780.3875
1834.30597	777.5875
1837.47122	776.3875
1840.6344	780.5875
1843.7955	774.1875
1846.95454	780.3875
1850.11151	775.5875
1853.26642	772.4875
1856.41926	772.8875
1859.57004	772.5875
1862.71876	768.6875
1865.86542	764.9875
1869.01003	768.2875
1872.15258	767.1875
1875.29308	767.5875
1878.43152	770.0875
1881.56792	760.8875
1884.70227	762.5875
1887.83457	761.8875
1890.96482	753.0875
1894.09304	763.4875
1897.21921	753.0875
1900.34335	756.2875
1903.46544	755.2875
1906.58551	755.4875
1909.70353	754.2875
1912.81953	749.7875
1915.93349	752.9875
1919.04543	759.1875
1922.15534	750.6875
1925.26322	748.5875
1928.36908	748.0875
1931.47292	752.8875
1934.57473	748.9875
1937.67453	753.6875
1940.77232	746.4875
1943.86808	749.1875
1946.96184	749.6875
1950.05358	736.4875
1953.14331	735.9875
1956.23103	735.5875
1959.31675	737.8875
1962.40046	731.0875
1965.48217	730.3875
1968.56188	731.0875
1971.63959	724.7875
1974.7153	724.8875
1977.78901	722.7875
1980.86073	718.3875
1983.93046	716.8875
1986.99819	723.1875
1990.06394	713.7875
1993.1277	714.6875
1996.18947	703.8875
1999.24925	714.0875
2002.30706	702.3875
2005.36288	699.8875
2008.41672	695.9875
2011.46859	700.4875
2014.51848	694.0875
2017.56639	698.2875
2020.61233	696.7875
2023.6563	692.2875
2026.6983	691.4875
2029.73833	697.0875
2032.7764	687.6875
2035.8125	695.7875
2038.84664	686.1875
2041.87881	691.7875
2044.90903	690.4875
2047.93729	692.7875
2050.96359	683.1875
2053.98794	684.4875
2057.01034	685.6875
2060.03078	684.6875
2063.04927	692.8875
2066.06582	695.5875
2069.08042	693.5875
2072.09307	700.8875
2075.10378	701.4875
2078.11255	701.5875
2081.11938	702.2875
2084.12426	707.0875
2087.12722	715.7875
2090.12824	712.0875
2093.12732	713.1875
2096.12447	710.7875
2099.11969	719.9875
2102.11299	721.3875
2105.10435	717.2875
2108.09379	720.6875
2111.08131	728.9875
2114.0669	727.6875
2117.05057	727.6875
2120.03233	726.7875
2123.01216	732.4875
2125.99008	723.7875
2128.96609	717.8875
2131.94018	729.9875
2134.91236	718.1875
2137.88263	728.2875
2140.851	721.4875
2143.81746	720.9875
2146.78201	716.9875
2149.74466	722.8875
2152.7054	717.1875
2155.66425	710.7875
2158.6212	715.2875
2161.57625	719.6875
2164.52941	719.8875
2167.48067	713.5875
2170.43004	720.6875
2173.37752	718.7875
2176.32311	714.6875
2179.26681	714.0875
2182.20863	711.3875
2185.14856	710.8875
2188.08661	713.6875
2191.02278	715.1875
2193.95707	702.2875
2196.88948	698.5875
2199.82001	705.1875
2202.74867	697.1875
2205.67545	699.3875
2208.60037	692.3875
2211.52341	693.1875
2214.44458	689.8875
2217.36388	692.9875
2220.28132	686.8875
2223.1969	683.3875
2226.11061	689.6875
2229.02246	678.8875
2231.93245	684.4875
2234.84058	677.8875
2237.74686	683.4875
2240.65128	675.5875
2243.55385	679.9875
2246.45456	670.6875
2249.35343	681.0875
2252.25044	676.2875
2255.14561	674.3875
2258.03893	676.6875
2260.93041	659.5875
2263.82004	659.2875
2266.70783	660.8875
2269.59378	659.0875
2272.4779	665.1875
2275.36017	665.2875
2278.24061	660.9875
2281.11922	661.0875
2283.996	657.3875
2286.87094	659.6875
2289.74405	651.5875
2292.61534	658.0875
2295.4848	660.1875
2298.35243	657.2875
2301.21824	659.9875
2304.08223	658.4875
2306.94439	654.0875
2309.80474	653.1875
2312.66327	663.2875
2315.51999	661.7875
2318.37489	653.8875
2321.22797	649.4875
2324.07925	651.4875
2326.92871	649.9875
2329.77637	656.9875
2332.62222	650.2875
2335.46626	646.2875
2338.3085	646.7875
2341.14893	649.3875
2343.98756	648.4875
2346.8244	646.5875
2349.65943	647.7875
2352.49267	641.4875
2355.32411	635.3875
2358.15376	638.9875
2360.98161	645.6875
2363.80768	644.5875
2366.63195	648.3875
2369.45444	641.6875
2372.27514	645.8875
2375.09405	650.0875
2377.91118	646.3875
2380.72652	643.0875
2383.54009	636.2875
2386.35187	640.4875
2389.16188	640.3875
2391.97011	642.2875
2394.77657	642.1875
2397.58125	635.0875
2400.38416	634.1875
2403.18529	635.9875
2405.98466	631.6875
2408.78226	623.3875
2411.57809	628.4875
2414.37216	632.3875
2417.16446	625.9875
2419.955	630.9875
2422.74378	626.6875
2425.5308	628.6875
2428.31606	635.8875
2431.09956	632.2875
2433.88131	621.1875
2436.6613	627.2875
2439.43954	623.5875
2442.21603	624.7875
2444.99077	625.8875
2447.76377	628.4875
2450.53501	632.1875
2453.30451	629.5875
2456.07226	624.5875
2458.83827	626.5875
2461.60254	624.5875
2464.36507	622.1875
2467.12586	621.2875
2469.88492	620.9875
2472.64224	621.2875
2475.39782	610.5875
2478.15167	612.1875
2480.90379	619.5875
2483.65417	617.2875
2486.40283	615.7875
2489.14976	628.5875
2491.89497	618.1875
2494.63845	610.9875
2497.3802	612.0875
2500.12024	616.5875
2502.85855	611.1875
2505.59514	612.9875
2508.33002	615.4875
2511.06318	621.7875
2513.79462	616.3875
2516.52435	617.3875
2519.25237	619.7875
2521.97867	619.7875
2524.70327	616.0875
2527.42616	618.0875
2530.14734	609.7875
2532.86681	616.1875
2535.58458	617.2875
2538.30065	617.2875
2541.01501	607.8875
2543.72768	612.3875
2546.43864	609.4875
2549.14791	606.4875
2551.85548	606.5875
2554.56136	609.1875
2557.26554	610.7875
2559.96803	594.4875
2562.66883	604.5875
2565.36794	601.8875
2568.06536	599.6875
2570.7611	604.2875
2573.45514	601.3875
2576.14751	596.2875
2578.83819	599.3875
2581.52719	601.6875
2584.21451	599.0875
2586.90015	591.9875
2589.58411	598.6875
2592.2664	606.6875
2594.94701	597.3875
2597.62594	588.8875
2600.30321	604.0875
2602.9788	598.6875
2605.65273	595.3875
2608.32498	585.0875
2610.99557	590.9875
2613.66449	588.9875
2616.33175	587.2875
2618.99734	593.4875
2621.66128	590.1875
2624.32355	591.9875
2626.98416	587.7875
2629.64311	583.6875
2632.30041	597.1875
2634.95605	592.4875
2637.61004	590.1875
2640.26238	592.7875
2642.91306	587.7875
2645.56209	580.7875
2648.20948	582.0875
2650.85521	586.8875
2653.4993	589.0875
2656.14175	588.3875
2658.78255	584.1875
2661.42171	582.7875
2664.05923	586.0875
2666.6951	587.4875
2669.32934	591.1875
2671.96194	587.8875
2674.59291	592.7875
2677.22224	580.0875
2679.84993	584.0875
2682.476	590.2875
2685.10043	587.4875
2687.72324	588.0875
2690.34441	592.4875
2692.96396	581.6875
2695.58188	590.1875
2698.19818	588.5875
2700.81285	590.1875
2703.4259	573.4875
2706.03733	537.2875
2708.64714	556.5875
2711.25533	571.5875
2713.86191	579.5875
2716.46687	581.5875
2719.07021	581.7875
2721.67194	596.2875
2724.27206	593.8875
2726.87057	590.5875
2729.46747	591.3875
2732.06276	595.0875
2734.65644	593.0875
2737.24852	601.4875
2739.83899	591.7875
2742.42786	593.6875
2745.01513	591.0875
2747.60079	599.0875
2750.18486	592.0875
2752.76733	587.7875
2755.3482	593.9875
2757.92747	591.9875
2760.50515	588.4875
2763.08123	589.0875
2765.65573	590.6875
2768.22863	591.1875
2770.79994	586.1875
2773.36967	589.1875
2775.9378	587.1875
2778.50435	585.8875
2781.06932	592.2875
2783.6327	590.1875
2786.1945	582.0875
2788.75471	583.1875
2791.31335	592.2875
2793.87041	590.8875
2796.42589	587.6875
2798.97979	584.9875
2801.53212	583.8875
2804.08288	587.7875
2806.63206	582.2875
2809.17967	577.7875
2811.72571	573.3875
2814.27018	581.4875
2816.81308	574.5875
2819.35442	576.7875
2821.89419	573.4875
2824.43239	574.8875
2826.96904	576.2875
2829.50412	575.5875
2832.03763	576.4875
2834.56959	577.1875
2837.1	575.3875
2839.62884	572.2875
2842.15613	570.7875
2844.68186	575.8875
2847.20604	573.5875
2849.72867	570.1875
2852.24974	580.6875
2854.76927	569.9875
2857.28724	555.6875
2859.80367	564.9875
2862.31855	573.9875
2864.83189	570.0875
2867.34368	573.2875
2869.85393	574.0875
2872.36264	568.8875
2874.8698	578.1875
2877.37543	572.3875
2879.87952	573.7875
2882.38207	578.8875
2884.88308	579.6875
2887.38256	579.0875
2889.88051	584.2875
2892.37692	592.8875
2894.8718	589.2875
2897.36515	585.0875
2899.85698	584.7875
2902.34727	589.8875
2904.83604	589.8875
2907.32328	588.1875
2909.809	599.5875
2912.29319	594.0875
2914.77587	595.8875
2917.25702	598.3875
2919.73665	597.4875
2922.21476	601.7875
2924.69136	598.2875
2927.16644	602.5875
2929.64	597.9875
2932.11205	604.2875
2934.58258	604.2875
2937.05161	595.1875
2939.51912	598.5875
2941.98513	605.7875
2944.44962	602.8875
2946.91261	603.1875
2949.37409	598.9875
2951.83407	606.8875
2954.29254	609.5875
2956.74951	607.2875
2959.20498	607.2875
2961.65895	602.1875
2964.11142	617.0875
2966.56239	607.0875
2969.01186	604.6875
2971.45984	615.5875
2973.90632	616.3875
2976.35131	606.8875
2978.7948	616.0875
2981.23681	610.4875
2983.67732	612.5875
2986.11635	615.2875
2988.55388	616.1875
2990.98993	614.3875
2993.4245	611.6875
2995.85758	615.4875
2998.28917	618.2875
3000.71928	613.0875
3003.14791	618.8875
3005.57506	618.9875
3008.00073	624.2875
3010.42493	620.9875
3012.84764	625.0875
3015.26888	623.6875
3017.68865	624.5875
3020.10694	627.4875
3022.52376	631.7875
3024.9391	633.5875
3027.35298	629.2875
3029.76539	633.8875
3032.17632	640.3875
3034.5858	631.3875
3036.9938	643.2875
3039.40034	645.6875
3041.80542	644.5875
3044.20903	657.0875
3046.61118	656.9875
3049.01187	657.7875
3051.4111	653.3875
3053.80888	666.2875
3056.20519	664.1875
3058.60005	669.0875
3060.99345	671.8875
3063.3854	670.6875
3065.7759	680.3875
3068.16494	684.1875
3070.55254	683.4875
3072.93868	683.1875
3075.32338	688.5875
3077.70662	688.3875
3080.08842	691.0875
3082.46878	689.4875
3084.84769	696.0875
3087.22515	701.5875
3089.60118	707.3875
3091.97576	716.9875
3094.3489	718.3875
3096.72061	717.4875
3099.09087	725.9875
3101.4597	735.2875
3103.82709	736.3875
3106.19305	752.9875
3108.55757	759.5875
3110.92066	760.1875
3113.28232	765.5875
3115.64255	767.3875
3118.00134	773.2875
3120.35871	770.5875
3122.71466	786.6875
3125.06917	790.4875
3127.42226	784.7875
3129.77393	800.1875
3132.12417	803.8875
3134.47299	807.2875
3136.82039	813.9875
3139.16636	815.4875
3141.51092	835.8875
3143.85406	835.7875
3146.19579	840.7875
3148.53609	842.5875
3150.87499	857.4875
3153.21246	863.0875
3155.54853	870.4875
3157.88318	868.0875
3160.21642	889.1875
3162.54826	894.8875
3164.87868	895.3875
3167.2077	910.3875
3169.5353	917.2875
3171.86151	924.4875
3174.18631	920.5875
3176.5097	930.1875
3178.83169	941.2875
3181.15228	940.8875
3183.47147	944.5875
3185.78926	958.9875
3188.10565	960.2875
3190.42065	965.8875
3192.73424	966.8875
3195.04645	964.7875
3197.35725	978.0875
3199.66667	979.4875
3201.97469	986.6875
3204.28132	995.4875
3206.58656	1001.4875
3208.8904	1002.7875
3211.19287	1007.2875
3213.49394	1010.4875
3215.79363	1016.8875
3218.09193	1020.0875
3220.38884	1013.7875
3222.68438	1011.6875
3224.97853	1017.0875
3227.2713	1025.8875
3229.56269	1032.3875
3231.8527	1033.1875
3234.14133	1042.0875
3236.42858	1037.1875
3238.71446	1036.4875
3240.99896	1045.6875
3243.28209	1040.2875
3245.56384	1031.9875
3247.84423	1032.1875
3250.12324	1040.8875
3252.40088	1040.2875
3254.67715	1043.5875
3256.95205	1036.2875
3259.22558	1045.8875
3261.49775	1045.1875
3263.76855	1038.5875
3266.03799	1044.9875
3268.30606	1044.6875
3270.57277	1054.4875
3272.83812	1051.7875
3275.10211	1035.3875
3277.36474	1045.7875
3279.62601	1041.9875
3281.88593	1038.3875
3284.14448	1044.9875
3286.40168	1047.6875
3288.65753	1046.9875
3290.91202	1047.9875
3293.16516	1047.7875
3295.41695	1038.0875
3297.66738	1026.7875
3299.91647	1028.3875
3302.16421	1027.8875
3304.4106	1023.7875
3306.65564	1020.4875
3308.89933	1017.6875
3311.14169	1009.1875
3313.38269	994.9875
3315.62236	991.8875
3317.86068	989.1875
3320.09766	974.4875
3322.3333	974.8875
3324.5676	963.5875
3326.80056	938.9875
3329.03219	933.6875
3331.26248	-0.3125
3333.49143	1.4875
3335.71905	-2.5125
