Data from AgNPs_APTES_FTO_UA_50uM_CRN_0uM_R6G_10uM_Scan_RamanShift__59__12-19-53-728.txt Node

Date: Tue Jul 05 12:19:53 BST 2022
User: TCL
Spectrometer: QEP01345
Trigger mode: 4
Integration Time (sec): 7.000000E0
Scans to average: 10
Electric dark correction enabled: true
Nonlinearity correction enabled: false
Boxcar width: 0
XAxis mode: Raman Shifts
Number of Pixels in Spectrum: 1044
>>>>>Begin Spectral Data<<<<<
46.04893	-1.3625
50.45542	-0.3625
54.85868	-1.1625
59.25871	0.3375
63.6555	59.4375
68.04907	64.7375
72.43941	70.5375
76.82654	69.9375
81.21044	72.7375
85.59113	79.6375
89.96862	80.8375
94.34289	81.1375
98.71396	87.9375
103.08183	90.2375
107.4465	90.8375
111.80798	95.7375
116.16626	92.1375
120.52136	95.0375
124.87327	99.7375
129.222	101.3375
133.56755	103.3375
137.90993	111.6375
142.24913	116.8375
146.58517	128.8375
150.91804	141.3375
155.24774	168.1375
159.57429	207.9375
163.89768	256.1375
168.21792	336.9375
172.53501	450.9375
176.84895	629.0375
181.15975	880.6375
185.46741	1245.6375
189.77193	1706.6375
194.07331	2289.9375
198.37157	2933.5375
202.6667	3627.7375
206.9587	4299.7375
211.24758	4970.6375
215.53334	5632.6375
219.81599	6319.1375
224.09553	7070.0375
228.37195	7893.9375
232.64527	8829.2375
236.91549	9813.5375
241.18261	10847.8375
245.44663	11882.5375
249.70755	12831.2375
253.96539	13683.6375
258.22014	14323.8375
262.4718	14821.2375
266.72039	15146.6375
270.96589	15256.4375
275.20832	15255.7375
279.44768	15100.9375
283.68397	14858.5375
287.91719	14626.9375
292.14735	14460.9375
296.37445	14278.7375
300.59849	14202.3375
304.81948	14110.2375
309.03742	14069.9375
313.25231	14000.6375
317.46415	13870.0375
321.67296	13754.9375
325.87872	13699.9375
330.08145	13717.9375
334.28114	13735.0375
338.47781	13848.1375
342.67145	14031.4375
346.86207	14207.5375
351.04966	14376.5375
355.23424	14579.2375
359.4158	14757.4375
363.59435	14891.1375
367.76989	15006.0375
371.94243	15188.5375
376.11196	15230.4375
380.27849	15313.0375
384.44203	15377.7375
388.60257	15466.5375
392.76012	15611.0375
396.91468	15698.8375
401.06626	15814.2375
405.21485	15968.4375
409.36047	16001.1375
413.50311	15926.8375
417.64277	15897.4375
421.77947	15880.5375
425.9132	15954.5375
430.04396	16062.4375
434.17176	16115.7375
438.2966	16265.4375
442.41849	16399.3375
446.53742	16571.0375
450.6534	16767.5375
454.76644	16897.0375
458.87653	17048.4375
462.98368	17095.2375
467.08789	17127.5375
471.18916	17124.9375
475.2875	17079.2375
479.38291	17062.1375
483.4754	17056.6375
487.56496	17072.7375
491.6516	17066.5375
495.73531	17001.0375
499.81612	16983.9375
503.89401	17031.9375
507.96899	17124.9375
512.04106	17138.2375
516.11023	17142.3375
520.1765	17071.9375
524.23987	17029.4375
528.30034	17001.1375
532.35792	16979.1375
536.41261	16919.5375
540.46441	16849.4375
544.51333	16871.0375
548.55936	16914.3375
552.60252	17029.3375
556.64279	17194.6375
560.6802	17334.6375
564.71473	17477.6375
568.7464	17613.6375
572.7752	17886.0375
576.80114	18168.2375
580.82422	18385.4375
584.84444	18553.4375
588.86181	18722.6375
592.87633	18914.4375
596.888	19035.3375
600.89682	18968.9375
604.9028	19049.8375
608.90594	19591.3375
612.90624	20094.1375
616.90371	19515.6375
620.89834	18393.4375
624.89015	17907.2375
628.87913	17876.0375
632.86528	17878.1375
636.84862	17943.1375
640.82913	17818.0375
644.80683	17676.0375
648.78172	17549.9375
652.75379	17498.1375
656.72306	17627.0375
660.68952	17799.2375
664.65319	17833.0375
668.61405	17815.9375
672.57211	17863.9375
676.52738	17989.5375
680.47986	17989.6375
684.42955	18021.8375
688.37646	18050.7375
692.32058	18102.5375
696.26192	18147.0375
700.20048	18185.3375
704.13626	18237.1375
708.06928	18243.9375
711.99952	18248.0375
715.927	18177.4375
719.85171	18190.7375
723.77365	18130.0375
727.69284	18024.7375
731.60928	17973.3375
735.52295	17972.3375
739.43388	17974.8375
743.34206	18033.4375
747.24749	18082.2375
751.15017	18156.4375
755.05012	18276.5375
758.94733	18427.7375
762.8418	18808.5375
766.73354	19260.6375
770.62254	19722.2375
774.50882	19856.3375
778.39237	19615.5375
782.27321	19216.5375
786.15132	18745.5375
790.02671	18433.2375
793.89938	18270.9375
797.76935	18182.9375
801.6366	18114.8375
805.50115	18109.2375
809.36299	18075.8375
813.22213	18041.9375
817.07857	18024.1375
820.93231	18059.4375
824.78336	18081.0375
828.63172	18042.2375
832.47738	18040.4375
836.32036	18026.3375
840.16066	18030.2375
843.99827	18107.6375
847.8332	18128.1375
851.66546	18163.2375
855.49504	18146.8375
859.32195	18166.9375
863.1462	18186.8375
866.96777	18176.1375
870.78668	18181.7375
874.60293	18236.0375
878.41652	18282.4375
882.22745	18289.7375
886.03573	18264.9375
889.84136	18286.8375
893.64433	18297.8375
897.44466	18285.1375
901.24235	18321.0375
905.0374	18303.2375
908.8298	18271.2375
912.61957	18281.9375
916.40671	18307.8375
920.19121	18380.6375
923.97308	18427.4375
927.75233	18401.8375
931.52895	18350.0375
935.30295	18267.8375
939.07433	18136.7375
942.84309	18021.2375
946.60924	17957.9375
950.37278	17894.8375
954.13371	17894.5375
957.89203	17876.6375
961.64774	17884.0375
965.40086	17838.8375
969.15137	17811.0375
972.89929	17781.0375
976.64461	17768.0375
980.38733	17767.0375
984.12747	17777.4375
987.86502	17751.3375
991.59999	17774.7375
995.33237	17852.3375
999.06217	17929.9375
1002.78939	18029.1375
1006.51404	18136.5375
1010.23611	18287.2375
1013.95561	18381.1375
1017.67255	18417.7375
1021.38692	18327.2375
1025.09872	18189.3375
1028.80796	18082.0375
1032.51465	18052.8375
1036.21877	18064.7375
1039.92035	18074.0375
1043.61937	18109.4375
1047.31584	18129.9375
1051.00976	18184.1375
1054.70114	18242.7375
1058.38998	18307.4375
1062.07627	18430.7375
1065.76003	18495.7375
1069.44126	18541.5375
1073.11995	18630.6375
1076.79611	18800.5375
1080.46974	18858.4375
1084.14085	18890.5375
1087.80943	18913.4375
1091.47549	18971.7375
1095.13903	18977.7375
1098.80005	18918.1375
1102.45857	18821.3375
1106.11456	18723.1375
1109.76805	18616.2375
1113.41903	18583.6375
1117.06751	18544.4375
1120.71348	18634.4375
1124.35696	18670.9375
1127.99793	18742.5375
1131.63641	18811.2375
1135.2724	18798.4375
1138.90589	18771.6375
1142.5369	18774.0375
1146.16542	18778.6375
1149.79145	18790.4375
1153.415	18787.8375
1157.03607	18820.2375
1160.65467	18909.8375
1164.27079	19101.2375
1167.88443	19352.4375
1171.49561	19708.1375
1175.10432	20213.9375
1178.71056	20770.2375
1182.31434	21265.4375
1185.91565	21587.0375
1189.51451	21747.4375
1193.11091	21654.2375
1196.70485	21491.4375
1200.29634	21121.0375
1203.88538	20854.1375
1207.47197	20652.4375
1211.05612	20494.5375
1214.63782	20404.3375
1218.21708	20218.6375
1221.79391	20055.8375
1225.36829	19959.1375
1228.94024	19878.4375
1232.50976	19798.1375
1236.07685	19692.9375
1239.6415	19596.8375
1243.20374	19569.9375
1246.76355	19606.4375
1250.32093	19702.1375
1253.8759	19808.5375
1257.42845	20020.0375
1260.97859	20247.0375
1264.52631	20453.8375
1268.07163	20691.7375
1271.61453	21004.0375
1275.15503	21171.9375
1278.69312	21325.0375
1282.22882	21500.1375
1285.76211	21675.1375
1289.29301	21944.2375
1292.82151	22266.7375
1296.34761	22632.2375
1299.87133	23129.8375
1303.39266	23626.2375
1306.9116	24131.8375
1310.42815	24600.0375
1313.94233	24922.1375
1317.45412	24905.6375
1320.96354	24797.7375
1324.47058	24646.9375
1327.97525	24474.2375
1331.47754	24283.3375
1334.97747	24153.3375
1338.47502	24139.2375
1341.97022	24211.3375
1345.46305	24405.2375
1348.95352	24528.5375
1352.44163	24465.2375
1355.92738	24396.3375
1359.41078	24429.1375
1362.89183	24517.2375
1366.37053	24204.4375
1369.84688	23433.9375
1373.32088	22503.7375
1376.79254	21812.6375
1380.26186	21435.8375
1383.72883	21319.6375
1387.19347	21219.8375
1390.65578	21028.5375
1394.11575	20896.0375
1397.57339	20762.8375
1401.0287	20766.4375
1404.48168	20747.2375
1407.93234	20628.6375
1411.38068	20484.5375
1414.82669	20268.8375
1418.27039	19989.8375
1421.71177	19664.3375
1425.15083	19436.0375
1428.58758	19277.0375
1432.02203	19251.5375
1435.45416	19323.8375
1438.88399	19445.5375
1442.31151	19569.9375
1445.73673	19726.7375
1449.15965	19771.2375
1452.58027	19917.9375
1455.9986	19947.7375
1459.41463	20056.3375
1462.82837	20202.0375
1466.23982	20289.5375
1469.64898	20431.8375
1473.05586	20535.0375
1476.46045	20515.0375
1479.86276	20540.2375
1483.26279	20599.9375
1486.66054	20592.0375
1490.05602	20696.3375
1493.44922	20888.2375
1496.84016	21184.6375
1500.22882	21524.8375
1503.61521	21873.0375
1506.99934	22203.3375
1510.38121	22368.6375
1513.76081	22361.3375
1517.13816	22098.5375
1520.51324	21753.5375
1523.88607	21494.4375
1527.25665	21317.1375
1530.62498	21220.4375
1533.99105	21137.7375
1537.35488	21025.6375
1540.71647	20826.1375
1544.07581	20657.4375
1547.4329	20500.6375
1550.78776	20396.3375
1554.14038	20342.7375
1557.49077	20365.2375
1560.83892	20406.7375
1564.18484	20494.5375
1567.52853	20586.7375
1570.86999	20654.5375
1574.20922	20802.2375
1577.54624	20882.2375
1580.88103	20856.3375
1584.2136	20784.8375
1587.54395	20870.9375
1590.87208	21062.8375
1594.19801	21383.6375
1597.52172	21687.6375
1600.84321	21703.9375
1604.16251	21387.6375
1607.47959	20816.1375
1610.79447	20217.2375
1614.10715	19501.4375
1617.41763	18939.0375
1620.7259	18469.1375
1624.03199	18234.6375
1627.33587	18205.1375
1630.63757	18318.4375
1633.93707	18665.3375
1637.23439	19240.6375
1640.52951	20119.6375
1643.82246	21180.1375
1647.11321	22095.7375
1650.40179	22377.8375
1653.68819	21847.3375
1656.97241	20646.9375
1660.25446	19314.5375
1663.53433	18280.1375
1666.81203	17571.5375
1670.08756	17073.9375
1673.36092	16778.2375
1676.63211	16554.1375
1679.90115	16391.5375
1683.16801	16285.5375
1686.43272	16185.1375
1689.69527	16120.9375
1692.95567	16049.7375
1696.2139	16038.7375
1699.46999	15992.9375
1702.72392	15973.0375
1705.97571	15967.6375
1709.22535	15922.7375
1712.47284	15911.7375
1715.71819	15892.0375
1718.96139	15872.1375
1722.20246	15817.8375
1725.44139	15752.1375
1728.67818	15703.3375
1731.91284	15655.8375
1735.14537	15583.0375
1738.37576	15492.4375
1741.60403	15466.2375
1744.83017	15433.5375
1748.05418	15382.8375
1751.27607	15371.4375
1754.49584	15362.6375
1757.71349	15323.5375
1760.92903	15328.4375
1764.14244	15248.0375
1767.35375	15282.4375
1770.56294	15220.2375
1773.77002	15205.0375
1776.97499	15197.3375
1780.17785	15191.5375
1783.37861	15178.4375
1786.57727	15151.6375
1789.77382	15087.2375
1792.96828	15063.3375
1796.16064	15016.8375
1799.3509	15016.7375
1802.53907	14971.8375
1805.72514	14938.1375
1808.90913	14917.0375
1812.09102	14887.3375
1815.27083	14848.9375
1818.44856	14831.8375
1821.6242	14826.1375
1824.79776	14789.7375
1827.96924	14781.6375
1831.13864	14724.6375
1834.30597	14713.2375
1837.47122	14694.4375
1840.6344	14683.4375
1843.7955	14654.3375
1846.95454	14634.7375
1850.11151	14648.7375
1853.26642	14643.4375
1856.41926	14640.3375
1859.57004	14632.0375
1862.71876	14655.9375
1865.86542	14615.2375
1869.01003	14624.2375
1872.15258	14604.1375
1875.29308	14578.4375
1878.43152	14535.2375
1881.56792	14462.1375
1884.70227	14471.1375
1887.83457	14460.7375
1890.96482	14420.6375
1894.09304	14419.8375
1897.21921	14359.2375
1900.34335	14325.8375
1903.46544	14320.9375
1906.58551	14294.3375
1909.70353	14268.9375
1912.81953	14251.9375
1915.93349	14249.2375
1919.04543	14224.1375
1922.15534	14183.0375
1925.26322	14130.9375
1928.36908	14153.9375
1931.47292	14122.1375
1934.57473	14061.7375
1937.67453	14024.8375
1940.77232	14003.4375
1943.86808	13966.7375
1946.96184	13917.9375
1950.05358	13836.2375
1953.14331	13848.5375
1956.23103	13761.2375
1959.31675	13724.1375
1962.40046	13679.7375
1965.48217	13642.9375
1968.56188	13560.2375
1971.63959	13561.2375
1974.7153	13486.4375
1977.78901	13476.9375
1980.86073	13447.6375
1983.93046	13400.7375
1986.99819	13324.3375
1990.06394	13301.3375
1993.1277	13261.4375
1996.18947	13209.4375
1999.24925	13161.3375
2002.30706	13105.9375
2005.36288	13040.0375
2008.41672	13035.0375
2011.46859	13015.2375
2014.51848	12973.9375
2017.56639	12922.4375
2020.61233	12883.4375
2023.6563	12841.7375
2026.6983	12808.1375
2029.73833	12774.0375
2032.7764	12693.2375
2035.8125	12667.9375
2038.84664	12645.1375
2041.87881	12619.2375
2044.90903	12597.9375
2047.93729	12589.2375
2050.96359	12558.8375
2053.98794	12524.0375
2057.01034	12482.9375
2060.03078	12502.8375
2063.04927	12527.4375
2066.06582	12512.6375
2069.08042	12431.9375
2072.09307	12404.2375
2075.10378	12422.7375
2078.11255	12437.1375
2081.11938	12438.4375
2084.12426	12405.4375
2087.12722	12409.9375
2090.12824	12385.5375
2093.12732	12349.8375
2096.12447	12377.0375
2099.11969	12371.0375
2102.11299	12386.6375
2105.10435	12352.0375
2108.09379	12364.9375
2111.08131	12380.6375
2114.0669	12367.5375
2117.05057	12400.5375
2120.03233	12418.5375
2123.01216	12415.5375
2125.99008	12396.5375
2128.96609	12400.1375
2131.94018	12402.3375
2134.91236	12416.1375
2137.88263	12446.4375
2140.851	12458.8375
2143.81746	12423.2375
2146.78201	12410.8375
2149.74466	12407.9375
2152.7054	12392.4375
2155.66425	12396.6375
2158.6212	12386.0375
2161.57625	12372.7375
2164.52941	12375.3375
2167.48067	12392.0375
2170.43004	12379.7375
2173.37752	12387.8375
2176.32311	12339.1375
2179.26681	12345.7375
2182.20863	12329.5375
2185.14856	12339.8375
2188.08661	12312.1375
2191.02278	12317.2375
2193.95707	12305.5375
2196.88948	12291.6375
2199.82001	12298.5375
2202.74867	12244.4375
2205.67545	12240.8375
2208.60037	12177.6375
2211.52341	12148.3375
2214.44458	12112.2375
2217.36388	12103.8375
2220.28132	12081.1375
2223.1969	12068.4375
2226.11061	12065.5375
2229.02246	12009.2375
2231.93245	11979.8375
2234.84058	11976.6375
2237.74686	11957.3375
2240.65128	11931.9375
2243.55385	11922.5375
2246.45456	11877.8375
2249.35343	11873.8375
2252.25044	11865.6375
2255.14561	11820.1375
2258.03893	11812.3375
2260.93041	11790.6375
2263.82004	11743.4375
2266.70783	11699.1375
2269.59378	11667.5375
2272.4779	11643.3375
2275.36017	11625.9375
2278.24061	11562.5375
2281.11922	11533.9375
2283.996	11508.2375
2286.87094	11524.3375
2289.74405	11473.2375
2292.61534	11452.1375
2295.4848	11424.5375
2298.35243	11420.4375
2301.21824	11455.5375
2304.08223	11395.3375
2306.94439	11387.0375
2309.80474	11385.0375
2312.66327	11359.3375
2315.51999	11341.3375
2318.37489	11337.0375
2321.22797	11317.9375
2324.07925	11279.3375
2326.92871	11237.7375
2329.77637	11221.9375
2332.62222	11216.0375
2335.46626	11171.4375
2338.3085	11155.3375
2341.14893	11162.1375
2343.98756	11123.8375
2346.8244	11108.5375
2349.65943	11080.7375
2352.49267	11062.1375
2355.32411	11050.8375
2358.15376	11076.3375
2360.98161	11054.6375
2363.80768	11034.6375
2366.63195	11065.8375
2369.45444	11052.0375
2372.27514	11042.5375
2375.09405	10978.4375
2377.91118	10983.2375
2380.72652	10950.5375
2383.54009	10918.9375
2386.35187	10909.1375
2389.16188	10848.4375
2391.97011	10850.3375
2394.77657	10785.2375
2397.58125	10779.2375
2400.38416	10721.5375
2403.18529	10725.0375
2405.98466	10718.5375
2408.78226	10696.6375
2411.57809	10671.5375
2414.37216	10655.2375
2417.16446	10652.5375
2419.955	10626.7375
2422.74378	10638.6375
2425.5308	10635.0375
2428.31606	10618.5375
2431.09956	10625.9375
2433.88131	10550.2375
2436.6613	10539.9375
2439.43954	10564.4375
2442.21603	10549.3375
2444.99077	10509.4375
2447.76377	10517.1375
2450.53501	10488.7375
2453.30451	10464.3375
2456.07226	10410.6375
2458.83827	10439.2375
2461.60254	10438.4375
2464.36507	10389.4375
2467.12586	10394.1375
2469.88492	10372.5375
2472.64224	10342.0375
2475.39782	10348.9375
2478.15167	10354.8375
2480.90379	10351.0375
2483.65417	10355.7375
2486.40283	10321.0375
2489.14976	10345.5375
2491.89497	10315.7375
2494.63845	10240.7375
2497.3802	10257.5375
2500.12024	10251.7375
2502.85855	10239.8375
2505.59514	10263.0375
2508.33002	10228.2375
2511.06318	10185.3375
2513.79462	10190.1375
2516.52435	10172.3375
2519.25237	10158.4375
2521.97867	10172.6375
2524.70327	10108.7375
2527.42616	10093.7375
2530.14734	10091.4375
2532.86681	10067.4375
2535.58458	10056.0375
2538.30065	10027.1375
2541.01501	10015.2375
2543.72768	9977.5375
2546.43864	9932.9375
2549.14791	9908.5375
2551.85548	9909.1375
2554.56136	9911.3375
2557.26554	9930.7375
2559.96803	9881.9375
2562.66883	9827.9375
2565.36794	9804.7375
2568.06536	9802.9375
2570.7611	9754.5375
2573.45514	9755.9375
2576.14751	9748.8375
2578.83819	9726.2375
2581.52719	9699.1375
2584.21451	9687.9375
2586.90015	9672.1375
2589.58411	9637.1375
2592.2664	9603.3375
2594.94701	9601.5375
2597.62594	9583.2375
2600.30321	9540.2375
2602.9788	9524.6375
2605.65273	9485.8375
2608.32498	9477.8375
2610.99557	9500.2375
2613.66449	9516.6375
2616.33175	9458.1375
2618.99734	9453.0375
2621.66128	9438.0375
2624.32355	9433.9375
2626.98416	9415.3375
2629.64311	9356.6375
2632.30041	9367.2375
2634.95605	9357.0375
2637.61004	9354.9375
2640.26238	9339.2375
2642.91306	9325.2375
2645.56209	9307.8375
2648.20948	9289.2375
2650.85521	9269.5375
2653.4993	9290.5375
2656.14175	9233.7375
2658.78255	9262.1375
2661.42171	9249.5375
2664.05923	9262.4375
2666.6951	9259.7375
2669.32934	9270.7375
2671.96194	9228.4375
2674.59291	9216.4375
2677.22224	9215.4375
2679.84993	9235.6375
2682.476	9215.0375
2685.10043	9214.8375
2687.72324	9204.2375
2690.34441	9219.5375
2692.96396	9198.3375
2695.58188	9184.8375
2698.19818	9165.5375
2700.81285	9176.3375
2703.4259	9140.5375
2706.03733	9150.1375
2708.64714	9161.4375
2711.25533	9141.3375
2713.86191	9158.8375
2716.46687	9132.0375
2719.07021	9138.1375
2721.67194	9154.4375
2724.27206	9139.1375
2726.87057	9158.9375
2729.46747	9136.8375
2732.06276	9152.9375
2734.65644	9119.8375
2737.24852	9115.2375
2739.83899	9078.3375
2742.42786	9088.2375
2745.01513	9081.8375
2747.60079	9070.7375
2750.18486	9043.8375
2752.76733	9013.9375
2755.3482	9017.2375
2757.92747	9016.1375
2760.50515	9004.4375
2763.08123	8994.1375
2765.65573	8948.7375
2768.22863	8939.5375
2770.79994	8925.6375
2773.36967	8910.9375
2775.9378	8902.6375
2778.50435	8881.7375
2781.06932	8859.8375
2783.6327	8857.5375
2786.1945	8857.5375
2788.75471	8847.9375
2791.31335	8803.2375
2793.87041	8807.6375
2796.42589	8780.6375
2798.97979	8752.3375
2801.53212	8729.5375
2804.08288	8704.6375
2806.63206	8665.4375
2809.17967	8651.5375
2811.72571	8637.2375
2814.27018	8613.0375
2816.81308	8587.8375
2819.35442	8529.9375
2821.89419	8502.7375
2824.43239	8513.1375
2826.96904	8499.2375
2829.50412	8478.1375
2832.03763	8472.8375
2834.56959	8471.0375
2837.1	8449.5375
2839.62884	8437.3375
2842.15613	8415.9375
2844.68186	8422.1375
2847.20604	8391.1375
2849.72867	8392.9375
2852.24974	8382.7375
2854.76927	8374.7375
2857.28724	8359.6375
2859.80367	8331.7375
2862.31855	8327.7375
2864.83189	8330.6375
2867.34368	8303.3375
2869.85393	8296.6375
2872.36264	8259.8375
2874.8698	8260.9375
2877.37543	8270.2375
2879.87952	8249.1375
2882.38207	8254.2375
2884.88308	8244.6375
2887.38256	8227.6375
2889.88051	8202.5375
2892.37692	8229.0375
2894.8718	8215.0375
2897.36515	8216.3375
2899.85698	8211.9375
2902.34727	8207.8375
2904.83604	8195.4375
2907.32328	8224.5375
2909.809	8205.9375
2912.29319	8201.2375
2914.77587	8191.9375
2917.25702	8211.0375
2919.73665	8176.0375
2922.21476	8175.0375
2924.69136	8172.1375
2927.16644	8174.4375
2929.64	8139.2375
2932.11205	8145.5375
2934.58258	8122.0375
2937.05161	8116.0375
2939.51912	8119.1375
2941.98513	8127.4375
2944.44962	8084.1375
2946.91261	8074.0375
2949.37409	8089.5375
2951.83407	8072.2375
2954.29254	8080.8375
2956.74951	8038.1375
2959.20498	8023.6375
2961.65895	8050.8375
2964.11142	8061.6375
2966.56239	8042.7375
2969.01186	8009.1375
2971.45984	8026.6375
2973.90632	8044.0375
2976.35131	8012.0375
2978.7948	7978.4375
2981.23681	7986.7375
2983.67732	7957.7375
2986.11635	7946.8375
2988.55388	7939.5375
2990.98993	7934.5375
2993.4245	7928.3375
2995.85758	7889.6375
2998.28917	7879.9375
3000.71928	7830.7375
3003.14791	7841.3375
3005.57506	7822.4375
3008.00073	7806.3375
3010.42493	7809.2375
3012.84764	7776.0375
3015.26888	7761.6375
3017.68865	7736.7375
3020.10694	7751.0375
3022.52376	7721.5375
3024.9391	7703.9375
3027.35298	7694.8375
3029.76539	7704.0375
3032.17632	7687.4375
3034.5858	7681.6375
3036.9938	7677.1375
3039.40034	7658.6375
3041.80542	7661.8375
3044.20903	7635.0375
3046.61118	7634.3375
3049.01187	7611.0375
3051.4111	7603.0375
3053.80888	7594.3375
3056.20519	7593.1375
3058.60005	7564.8375
3060.99345	7550.7375
3063.3854	7524.8375
3065.7759	7503.8375
3068.16494	7478.6375
3070.55254	7476.9375
3072.93868	7461.3375
3075.32338	7429.0375
3077.70662	7432.3375
3080.08842	7373.4375
3082.46878	7390.0375
3084.84769	7374.9375
3087.22515	7363.0375
3089.60118	7378.7375
3091.97576	7384.5375
3094.3489	7377.4375
3096.72061	7402.9375
3099.09087	7386.5375
3101.4597	7395.3375
3103.82709	7384.7375
3106.19305	7401.0375
3108.55757	7399.2375
3110.92066	7377.9375
3113.28232	7399.5375
3115.64255	7328.9375
3118.00134	7322.8375
3120.35871	7313.3375
3122.71466	7292.1375
3125.06917	7297.1375
3127.42226	7291.0375
3129.77393	7275.0375
3132.12417	7268.4375
3134.47299	7267.2375
3136.82039	7291.3375
3139.16636	7262.9375
3141.51092	7265.9375
3143.85406	7254.4375
3146.19579	7272.5375
3148.53609	7292.7375
3150.87499	7265.4375
3153.21246	7249.2375
3155.54853	7240.3375
3157.88318	7259.0375
3160.21642	7286.0375
3162.54826	7279.0375
3164.87868	7293.4375
3167.2077	7278.9375
3169.5353	7284.1375
3171.86151	7319.0375
3174.18631	7302.1375
3176.5097	7278.8375
3178.83169	7271.9375
3181.15228	7261.1375
3183.47147	7234.0375
3185.78926	7263.4375
3188.10565	7229.4375
3190.42065	7236.9375
3192.73424	7220.8375
3195.04645	7216.3375
3197.35725	7217.4375
3199.66667	7202.6375
3201.97469	7235.0375
3204.28132	7216.2375
3206.58656	7215.4375
3208.8904	7197.5375
3211.19287	7196.0375
3213.49394	7217.6375
3215.79363	7213.6375
3218.09193	7211.3375
3220.38884	7207.2375
3222.68438	7220.6375
3224.97853	7224.0375
3227.2713	7215.6375
3229.56269	7214.5375
3231.8527	7206.2375
3234.14133	7185.9375
3236.42858	7161.0375
3238.71446	7152.5375
3240.99896	7142.5375
3243.28209	7107.8375
3245.56384	7085.3375
3247.84423	7089.2375
3250.12324	7103.9375
3252.40088	7091.4375
3254.67715	7071.4375
3256.95205	7048.6375
3259.22558	7058.0375
3261.49775	7045.3375
3263.76855	7039.3375
3266.03799	7019.7375
3268.30606	7010.4375
3270.57277	7009.9375
3272.83812	6992.7375
3275.10211	6972.2375
3277.36474	6962.0375
3279.62601	6952.3375
3281.88593	6932.6375
3284.14448	6923.6375
3286.40168	6915.3375
3288.65753	6912.2375
3290.91202	6902.7375
3293.16516	6889.7375
3295.41695	6892.7375
3297.66738	6867.4375
3299.91647	6824.3375
3302.16421	6800.2375
3304.4106	6774.0375
3306.65564	6711.6375
3308.89933	6680.2375
3311.14169	6643.0375
3313.38269	6587.6375
3315.62236	6536.8375
3317.86068	6478.3375
3320.09766	6462.2375
3322.3333	6412.8375
3324.5676	6387.0375
3326.80056	6293.0375
3329.03219	6247.2375
3331.26248	3.1375
3333.49143	-0.5625
3335.71905	0.6375
