Data from AgNPs_APTES_FTO_UA_50uM_CRN_0uM_R6G_10uM_Scan_RamanShift__16__11-29-43-668.txt Node

Date: Tue Jul 05 11:29:43 BST 2022
User: TCL
Spectrometer: QEP01345
Trigger mode: 4
Integration Time (sec): 7.000000E0
Scans to average: 10
Electric dark correction enabled: true
Nonlinearity correction enabled: false
Boxcar width: 0
XAxis mode: Raman Shifts
Number of Pixels in Spectrum: 1044
>>>>>Begin Spectral Data<<<<<
46.04893	-0.3
50.45542	1.2
54.85868	-1
59.25871	1.2
63.6555	41.9
68.04907	43.9
72.43941	45.3
76.82654	50.2
81.21044	53.2
85.59113	58.6
89.96862	57.9
94.34289	59.4
98.71396	60.3
103.08183	66.8
107.4465	66.7
111.80798	66
116.16626	67.7
120.52136	65.2
124.87327	68.4
129.222	68.5
133.56755	72.7
137.90993	71.7
142.24913	71.7
146.58517	82.2
150.91804	86
155.24774	93.5
159.57429	109
163.89768	132.9
168.21792	169.6
172.53501	222.8
176.84895	294.4
181.15975	409.9
185.46741	563.4
189.77193	765.3
194.07331	1015.9
198.37157	1307
202.6667	1606.8
206.9587	1912.3
211.24758	2216.2
215.53334	2530.7
219.81599	2860.8
224.09553	3221.8
228.37195	3633.7
232.64527	4087.4
236.91549	4548.6
241.18261	4999.6
245.44663	5352.9
249.70755	5664.3
253.96539	5897.6
258.22014	6104.5
262.4718	6275.4
266.72039	6383.4
270.96589	6432.8
275.20832	6401.7
279.44768	6272.9
283.68397	6145
287.91719	5988.8
292.14735	5929.8
296.37445	5956
300.59849	6032.2
304.81948	6151.9
309.03742	6260.7
313.25231	6286.6
317.46415	6127.7
321.67296	5882.4
325.87872	5612
330.08145	5481.7
334.28114	5424.3
338.47781	5470.9
342.67145	5565
346.86207	5688.7
351.04966	5884.6
355.23424	6089.8
359.4158	6263.4
363.59435	6361
367.76989	6393.1
371.94243	6400.6
376.11196	6434.5
380.27849	6448.9
384.44203	6441.4
388.60257	6429.1
392.76012	6409.1
396.91468	6462
401.06626	6540.2
405.21485	6577.4
409.36047	6483.6
413.50311	6218.5
417.64277	6022.4
421.77947	5914.1
425.9132	5872.5
430.04396	5879.5
434.17176	5893.9
438.2966	5958.2
442.41849	6052.8
446.53742	6178.3
450.6534	6330
454.76644	6373.4
458.87653	6348
462.98368	6254.7
467.08789	6192.5
471.18916	6123.6
475.2875	6012.7
479.38291	5962.9
483.4754	5910.3
487.56496	5918.3
491.6516	5940.9
495.73531	5999.8
499.81612	6023.1
503.89401	6078.3
507.96899	6132.8
512.04106	6206.6
516.11023	6258.3
520.1765	6297.4
524.23987	6296.9
528.30034	6274
532.35792	6198.6
536.41261	6117.7
540.46441	6007.2
544.51333	5926.9
548.55936	5930.5
552.60252	6010.4
556.64279	6150.5
560.6802	6197.9
564.71473	6208.7
568.7464	6312.6
572.7752	6404.5
576.80114	6312.5
580.82422	6220.1
584.84444	6259.6
588.86181	6423.3
592.87633	6598.1
596.888	6707.8
600.89682	6780.6
604.9028	7218
608.90594	8535.8
612.90624	10283.9
616.90371	10049.8
620.89834	7800.6
624.89015	6660.9
628.87913	6453.7
632.86528	6537.4
636.84862	6638.2
640.82913	6575.9
644.80683	6333
648.78172	6115.3
652.75379	6030.1
656.72306	6112.2
660.68952	6258.8
664.65319	6185.8
668.61405	5981
672.57211	5895.4
676.52738	5958.5
680.47986	6106.9
684.42955	6214.8
688.37646	6258.9
692.32058	6192.5
696.26192	6075.3
700.20048	6004
704.13626	5974
708.06928	5957.9
711.99952	5921
715.927	5911.5
719.85171	5928.8
723.77365	5935.7
727.69284	5901.8
731.60928	5880.4
735.52295	5835.9
739.43388	5844.6
743.34206	5845.1
747.24749	5848.3
751.15017	5853.2
755.05012	5907.8
758.94733	6084.9
762.8418	6523.1
766.73354	7358.7
770.62254	8269.5
774.50882	8747.1
778.39237	8351.8
782.27321	7434.7
786.15132	6615
790.02671	6167.1
793.89938	5941.1
797.76935	5851.4
801.6366	5861
805.50115	5873.8
809.36299	5890.1
813.22213	5882.8
817.07857	5866.1
820.93231	5783.2
824.78336	5725.7
828.63172	5721.6
832.47738	5702.5
836.32036	5671.3
840.16066	5648
843.99827	5656.4
847.8332	5674.6
851.66546	5662.6
855.49504	5640
859.32195	5643.3
863.1462	5632.6
866.96777	5646.7
870.78668	5665.8
874.60293	5696.7
878.41652	5722.4
882.22745	5789.5
886.03573	5845.9
889.84136	5890.6
893.64433	5884.2
897.44466	5865.9
901.24235	5864.8
905.0374	5837.5
908.8298	5848.3
912.61957	5871.4
916.40671	5950.2
920.19121	6076.4
923.97308	6189.9
927.75233	6276.7
931.52895	6343.8
935.30295	6240
939.07433	6064.8
942.84309	5854.9
946.60924	5679.8
950.37278	5568.1
954.13371	5479.4
957.89203	5383.4
961.64774	5310.7
965.40086	5246.8
969.15137	5193.3
972.89929	5138.4
976.64461	5095.2
980.38733	5066.7
984.12747	5035.5
987.86502	5015
991.59999	5019.6
995.33237	5069.6
999.06217	5105.4
1002.78939	5176.1
1006.51404	5266.8
1010.23611	5336.2
1013.95561	5400.4
1017.67255	5428.4
1021.38692	5395.6
1025.09872	5299.6
1028.80796	5226.4
1032.51465	5154.7
1036.21877	5123.6
1039.92035	5125.1
1043.61937	5136
1047.31584	5135.1
1051.00976	5170.4
1054.70114	5164.9
1058.38998	5178.8
1062.07627	5210.4
1065.76003	5222.5
1069.44126	5214.1
1073.11995	5234.2
1076.79611	5290.4
1080.46974	5303.2
1084.14085	5387.2
1087.80943	5481.3
1091.47549	5521.3
1095.13903	5429.7
1098.80005	5278.8
1102.45857	5147.6
1106.11456	5089.4
1109.76805	5118.4
1113.41903	5218.7
1117.06751	5368.2
1120.71348	5584.3
1124.35696	5816.8
1127.99793	6067.3
1131.63641	6211.5
1135.2724	6067.3
1138.90589	5825.5
1142.5369	5634.5
1146.16542	5465.8
1149.79145	5302
1153.415	5215.4
1157.03607	5160.4
1160.65467	5190.8
1164.27079	5314.9
1167.88443	5562.3
1171.49561	5935.5
1175.10432	6569
1178.71056	7399.7
1182.31434	8123.3
1185.91565	8299.6
1189.51451	8036.6
1193.11091	7514.7
1196.70485	7001.5
1200.29634	6628.3
1203.88538	6314.5
1207.47197	5969.6
1211.05612	5650.8
1214.63782	5470.2
1218.21708	5379.8
1221.79391	5351.4
1225.36829	5375.4
1228.94024	5383.1
1232.50976	5353.5
1236.07685	5275.4
1239.6415	5210.2
1243.20374	5222.1
1246.76355	5230.8
1250.32093	5281.6
1253.8759	5340.4
1257.42845	5483
1260.97859	5630.5
1264.52631	5816.9
1268.07163	6019.3
1271.61453	6190.3
1275.15503	6317
1278.69312	6361.6
1282.22882	6394.7
1285.76211	6514.5
1289.29301	6746.1
1292.82151	7001.6
1296.34761	7320.1
1299.87133	7702.7
1303.39266	8264.5
1306.9116	9076.6
1310.42815	10037
1313.94233	10650.8
1317.45412	10490.2
1320.96354	9834
1324.47058	9017.1
1327.97525	8280.4
1331.47754	7745.2
1334.97747	7462.6
1338.47502	7357.1
1341.97022	7434.6
1345.46305	7710.2
1348.95352	8287.2
1352.44163	9090.6
1355.92738	10196.1
1359.41078	11683.7
1362.89183	13326.2
1366.37053	13553.4
1369.84688	11855.9
1373.32088	9726.3
1376.79254	8253.3
1380.26186	7556.4
1383.72883	7243.7
1387.19347	6981.9
1390.65578	6731.5
1394.11575	6544.3
1397.57339	6417.7
1401.0287	6393.1
1404.48168	6320.4
1407.93234	6244.2
1411.38068	6097.7
1414.82669	5974.3
1418.27039	5896.7
1421.71177	5803
1425.15083	5704.7
1428.58758	5578.3
1432.02203	5573.2
1435.45416	5609.7
1438.88399	5674
1442.31151	5667.7
1445.73673	5663.2
1449.15965	5660.5
1452.58027	5626.7
1455.9986	5568.8
1459.41463	5539.8
1462.82837	5570.7
1466.23982	5669.5
1469.64898	5777.4
1473.05586	5875.1
1476.46045	5918.2
1479.86276	5967
1483.26279	6066.3
1486.66054	6185.9
1490.05602	6361.9
1493.44922	6617.8
1496.84016	7046.1
1500.22882	7727.4
1503.61521	8671.2
1506.99934	9881.4
1510.38121	11023.3
1513.76081	11544.1
1517.13816	10998.7
1520.51324	9638.4
1523.88607	8280.2
1527.25665	7320.5
1530.62498	6790.6
1533.99105	6465.5
1537.35488	6249.4
1540.71647	6100.1
1544.07581	5972.3
1547.4329	5918.5
1550.78776	5895.4
1554.14038	5905.8
1557.49077	5969.7
1560.83892	6076.2
1564.18484	6235.8
1567.52853	6455.8
1570.86999	6657.9
1574.20922	6819.8
1577.54624	6811.4
1580.88103	6534.6
1584.2136	6074.2
1587.54395	5734.6
1590.87208	5649.2
1594.19801	5842
1597.52172	6194.5
1600.84321	6413.6
1604.16251	6272.2
1607.47959	5939.6
1610.79447	5593
1614.10715	5271.8
1617.41763	5000.1
1620.7259	4815.1
1624.03199	4737.6
1627.33587	4753.8
1630.63757	4835
1633.93707	5011.9
1637.23439	5333.8
1640.52951	5901.4
1643.82246	6747.8
1647.11321	7716.5
1650.40179	8465.3
1653.68819	8391.8
1656.97241	7401.3
1660.25446	6204.8
1663.53433	5290.4
1666.81203	4713.9
1670.08756	4398.9
1673.36092	4193.4
1676.63211	4061.5
1679.90115	4004.8
1683.16801	3917.2
1686.43272	3882.1
1689.69527	3851.1
1692.95567	3826.9
1696.2139	3810.2
1699.46999	3765
1702.72392	3736.4
1705.97571	3689.4
1709.22535	3639.4
1712.47284	3592.9
1715.71819	3530.5
1718.96139	3487.5
1722.20246	3447.4
1725.44139	3393
1728.67818	3345.3
1731.91284	3305.5
1735.14537	3236.9
1738.37576	3214.3
1741.60403	3199.8
1744.83017	3176.5
1748.05418	3151.3
1751.27607	3129.1
1754.49584	3125.5
1757.71349	3101.7
1760.92903	3069.8
1764.14244	3076.3
1767.35375	3055.1
1770.56294	3033.3
1773.77002	3027.1
1776.97499	3010.5
1780.17785	3011.3
1783.37861	3009.8
1786.57727	2984.4
1789.77382	2958
1792.96828	2957.2
1796.16064	2944.8
1799.3509	2946.1
1802.53907	2926.4
1805.72514	2905.2
1808.90913	2898
1812.09102	2893.6
1815.27083	2861.7
1818.44856	2868
1821.6242	2854.4
1824.79776	2842.9
1827.96924	2834.1
1831.13864	2828.6
1834.30597	2818.8
1837.47122	2814.9
1840.6344	2812.6
1843.7955	2800.2
1846.95454	2783.3
1850.11151	2774
1853.26642	2788
1856.41926	2776.9
1859.57004	2767.6
1862.71876	2764.4
1865.86542	2744.1
1869.01003	2751.2
1872.15258	2757.4
1875.29308	2745.6
1878.43152	2724.9
1881.56792	2728.2
1884.70227	2720.9
1887.83457	2715.8
1890.96482	2695
1894.09304	2698.4
1897.21921	2685
1900.34335	2691.6
1903.46544	2673.4
1906.58551	2674.1
1909.70353	2663.1
1912.81953	2661.9
1915.93349	2652.5
1919.04543	2639.1
1922.15534	2639.7
1925.26322	2626.1
1928.36908	2606.9
1931.47292	2601.7
1934.57473	2584.5
1937.67453	2572.9
1940.77232	2562.3
1943.86808	2544.4
1946.96184	2538.1
1950.05358	2544.2
1953.14331	2513.8
1956.23103	2524.7
1959.31675	2503.8
1962.40046	2492.3
1965.48217	2487.5
1968.56188	2476.4
1971.63959	2471
1974.7153	2474.6
1977.78901	2458.7
1980.86073	2448.3
1983.93046	2437.6
1986.99819	2424.8
1990.06394	2407.1
1993.1277	2408
1996.18947	2398
1999.24925	2378.7
2002.30706	2374.5
2005.36288	2365.3
2008.41672	2359.8
2011.46859	2342.9
2014.51848	2320
2017.56639	2330.1
2020.61233	2325.9
2023.6563	2308.7
2026.6983	2291.6
2029.73833	2285.9
2032.7764	2282.3
2035.8125	2263.2
2038.84664	2267
2041.87881	2261.1
2044.90903	2257.5
2047.93729	2249.7
2050.96359	2251.6
2053.98794	2249.7
2057.01034	2228.8
2060.03078	2233.1
2063.04927	2229.6
2066.06582	2222.3
2069.08042	2218.6
2072.09307	2220.6
2075.10378	2203.3
2078.11255	2199
2081.11938	2209.1
2084.12426	2204.2
2087.12722	2205.5
2090.12824	2199
2093.12732	2196.9
2096.12447	2191.9
2099.11969	2189.2
2102.11299	2195.7
2105.10435	2191.9
2108.09379	2186.9
2111.08131	2186.9
2114.0669	2172.9
2117.05057	2180.9
2120.03233	2186.1
2123.01216	2189.3
2125.99008	2176.7
2128.96609	2186.1
2131.94018	2178.8
2134.91236	2180.3
2137.88263	2176.9
2140.851	2169.1
2143.81746	2162.8
2146.78201	2153.9
2149.74466	2153
2152.7054	2148.1
2155.66425	2138.5
2158.6212	2126.7
2161.57625	2118.2
2164.52941	2145.9
2167.48067	2109.4
2170.43004	2123.9
2173.37752	2120.9
2176.32311	2116.9
2179.26681	2115.1
2182.20863	2114.3
2185.14856	2106.7
2188.08661	2103
2191.02278	2099
2193.95707	2095
2196.88948	2076.6
2199.82001	2108.9
2202.74867	2078.8
2205.67545	2070.3
2208.60037	2079
2211.52341	2073.1
2214.44458	2060.9
2217.36388	2051.5
2220.28132	2048.6
2223.1969	2033.5
2226.11061	2025.6
2229.02246	2027.5
2231.93245	2018.3
2234.84058	2008.3
2237.74686	2018.5
2240.65128	2011.2
2243.55385	1994.9
2246.45456	1988.4
2249.35343	1990.5
2252.25044	1993.3
2255.14561	1987.7
2258.03893	1976
2260.93041	1969.5
2263.82004	1971.3
2266.70783	1973.9
2269.59378	1959.7
2272.4779	1949
2275.36017	1940.3
2278.24061	1938.8
2281.11922	1933
2283.996	1923.1
2286.87094	1921.5
2289.74405	1914.9
2292.61534	1901.5
2295.4848	1891.2
2298.35243	1891.1
2301.21824	1884.9
2304.08223	1886.8
2306.94439	1869.6
2309.80474	1867.1
2312.66327	1884.3
2315.51999	1876
2318.37489	1865.2
2321.22797	1862.9
2324.07925	1858.1
2326.92871	1847.3
2329.77637	1858.9
2332.62222	1847
2335.46626	1842.1
2338.3085	1837.9
2341.14893	1832.2
2343.98756	1836.9
2346.8244	1827.8
2349.65943	1828.4
2352.49267	1829.3
2355.32411	1826.5
2358.15376	1838.7
2360.98161	1837
2363.80768	1832.5
2366.63195	1850
2369.45444	1845.1
2372.27514	1845.6
2375.09405	1841.2
2377.91118	1816.6
2380.72652	1809.3
2383.54009	1810.3
2386.35187	1806.2
2389.16188	1784.5
2391.97011	1792.1
2394.77657	1760.5
2397.58125	1756.5
2400.38416	1747.3
2403.18529	1739.8
2405.98466	1743.5
2408.78226	1731.4
2411.57809	1728.5
2414.37216	1723.7
2417.16446	1718.1
2419.955	1726.8
2422.74378	1722.4
2425.5308	1711.8
2428.31606	1720.7
2431.09956	1715.6
2433.88131	1706.9
2436.6613	1712.8
2439.43954	1706.1
2442.21603	1699.4
2444.99077	1705.3
2447.76377	1699.7
2450.53501	1708.7
2453.30451	1704.4
2456.07226	1693.2
2458.83827	1689.9
2461.60254	1679.1
2464.36507	1693.2
2467.12586	1684.3
2469.88492	1687.3
2472.64224	1677.9
2475.39782	1679.3
2478.15167	1678.6
2480.90379	1682.7
2483.65417	1686.9
2486.40283	1681.6
2489.14976	1683.4
2491.89497	1680.5
2494.63845	1686.7
2497.3802	1672
2500.12024	1669
2502.85855	1658.3
2505.59514	1664.4
2508.33002	1661
2511.06318	1645.6
2513.79462	1630.9
2516.52435	1619.9
2519.25237	1619
2521.97867	1614.6
2524.70327	1607.2
2527.42616	1590.9
2530.14734	1598
2532.86681	1584.5
2535.58458	1576.2
2538.30065	1586.9
2541.01501	1574.2
2543.72768	1572.9
2546.43864	1571.3
2549.14791	1574.8
2551.85548	1570.4
2554.56136	1567.1
2557.26554	1563.5
2559.96803	1569.1
2562.66883	1561.7
2565.36794	1547.8
2568.06536	1546.3
2570.7611	1556
2573.45514	1539.4
2576.14751	1535.2
2578.83819	1529.8
2581.52719	1530.7
2584.21451	1523.8
2586.90015	1523.3
2589.58411	1514.4
2592.2664	1512.9
2594.94701	1515.6
2597.62594	1505.1
2600.30321	1494.5
2602.9788	1503.2
2605.65273	1492.2
2608.32498	1494.8
2610.99557	1489.6
2613.66449	1485.3
2616.33175	1488.2
2618.99734	1487.9
2621.66128	1479.9
2624.32355	1476.5
2626.98416	1483.6
2629.64311	1467.7
2632.30041	1468.2
2634.95605	1470.9
2637.61004	1466.2
2640.26238	1452.4
2642.91306	1455.7
2645.56209	1447.5
2648.20948	1456
2650.85521	1456.2
2653.4993	1456.6
2656.14175	1447.6
2658.78255	1451.4
2661.42171	1445.3
2664.05923	1447.5
2666.6951	1448.8
2669.32934	1450.5
2671.96194	1453
2674.59291	1453.4
2677.22224	1458.2
2679.84993	1454.2
2682.476	1445.3
2685.10043	1453.7
2687.72324	1443
2690.34441	1443.9
2692.96396	1443
2695.58188	1438.8
2698.19818	1435.5
2700.81285	1434.9
2703.4259	1442.2
2706.03733	1433.5
2708.64714	1429.3
2711.25533	1435
2713.86191	1437.6
2716.46687	1438.3
2719.07021	1437.5
2721.67194	1445.9
2724.27206	1439.2
2726.87057	1445.1
2729.46747	1446
2732.06276	1444.3
2734.65644	1430.6
2737.24852	1440.6
2739.83899	1424.8
2742.42786	1425.3
2745.01513	1423.1
2747.60079	1410.2
2750.18486	1421.1
2752.76733	1420.9
2755.3482	1415.4
2757.92747	1407.6
2760.50515	1405.9
2763.08123	1412.7
2765.65573	1401.9
2768.22863	1403.6
2770.79994	1394.9
2773.36967	1390.1
2775.9378	1391.2
2778.50435	1396.1
2781.06932	1384.2
2783.6327	1391.9
2786.1945	1380.8
2788.75471	1389.6
2791.31335	1377.2
2793.87041	1376
2796.42589	1380.6
2798.97979	1371.6
2801.53212	1366.1
2804.08288	1361
2806.63206	1360
2809.17967	1360.5
2811.72571	1365.1
2814.27018	1349.5
2816.81308	1351.5
2819.35442	1354.4
2821.89419	1353.4
2824.43239	1358.6
2826.96904	1354.6
2829.50412	1350.3
2832.03763	1346.7
2834.56959	1349.6
2837.1	1352.5
2839.62884	1356.2
2842.15613	1362.6
2844.68186	1371.5
2847.20604	1391.1
2849.72867	1399.2
2852.24974	1397.4
2854.76927	1408.7
2857.28724	1396.2
2859.80367	1406.5
2862.31855	1398
2864.83189	1404.4
2867.34368	1405.2
2869.85393	1408.2
2872.36264	1405
2874.8698	1406.2
2877.37543	1403.7
2879.87952	1409.7
2882.38207	1407
2884.88308	1406
2887.38256	1394.5
2889.88051	1404.1
2892.37692	1414.2
2894.8718	1404.2
2897.36515	1401
2899.85698	1423.5
2902.34727	1420.4
2904.83604	1422.4
2907.32328	1436
2909.809	1446
2912.29319	1448.7
2914.77587	1450.8
2917.25702	1451.7
2919.73665	1455.9
2922.21476	1467.9
2924.69136	1462.9
2927.16644	1462.3
2929.64	1458.4
2932.11205	1458.6
2934.58258	1453.6
2937.05161	1454.5
2939.51912	1446.2
2941.98513	1438.1
2944.44962	1435.2
2946.91261	1419.2
2949.37409	1404.8
2951.83407	1392.8
2954.29254	1382.6
2956.74951	1368.2
2959.20498	1368.6
2961.65895	1358.4
2964.11142	1355
2966.56239	1337.8
2969.01186	1306.3
2971.45984	1319.5
2973.90632	1321.4
2976.35131	1315
2978.7948	1308.3
2981.23681	1311.1
2983.67732	1304.4
2986.11635	1303.1
2988.55388	1290.5
2990.98993	1293.9
2993.4245	1293.5
2995.85758	1293.2
2998.28917	1280
3000.71928	1275.9
3003.14791	1273.2
3005.57506	1278.4
3008.00073	1262.8
3010.42493	1274.4
3012.84764	1269.7
3015.26888	1272.8
3017.68865	1273
3020.10694	1269.5
3022.52376	1262.7
3024.9391	1262.5
3027.35298	1269.7
3029.76539	1259.9
3032.17632	1263.5
3034.5858	1257.3
3036.9938	1255.9
3039.40034	1266.9
3041.80542	1264.5
3044.20903	1258.1
3046.61118	1259.1
3049.01187	1260.5
3051.4111	1257.2
3053.80888	1260.7
3056.20519	1260.8
3058.60005	1267.9
3060.99345	1267.1
3063.3854	1253
3065.7759	1256.4
3068.16494	1258.8
3070.55254	1254.3
3072.93868	1257.1
3075.32338	1264.8
3077.70662	1261.9
3080.08842	1253.1
3082.46878	1261.1
3084.84769	1253.9
3087.22515	1269.1
3089.60118	1271.7
3091.97576	1263.6
3094.3489	1276.4
3096.72061	1274
3099.09087	1276.4
3101.4597	1278.7
3103.82709	1285
3106.19305	1294.7
3108.55757	1288.8
3110.92066	1298.2
3113.28232	1296.5
3115.64255	1292.4
3118.00134	1296.3
3120.35871	1299.2
3122.71466	1307.6
3125.06917	1314.6
3127.42226	1317.5
3129.77393	1319.7
3132.12417	1320.3
3134.47299	1331.4
3136.82039	1336.8
3139.16636	1342.2
3141.51092	1344.9
3143.85406	1347.6
3146.19579	1359.2
3148.53609	1375.3
3150.87499	1368.7
3153.21246	1384.4
3155.54853	1385.8
3157.88318	1390.8
3160.21642	1395.8
3162.54826	1405.6
3164.87868	1411.3
3167.2077	1417.5
3169.5353	1425.7
3171.86151	1424.1
3174.18631	1435
3176.5097	1445.6
3178.83169	1438.9
3181.15228	1450.3
3183.47147	1443.3
3185.78926	1449.1
3188.10565	1451.8
3190.42065	1456.1
3192.73424	1464.3
3195.04645	1474.8
3197.35725	1471.9
3199.66667	1475.2
3201.97469	1482
3204.28132	1494.6
3206.58656	1487.8
3208.8904	1492.8
3211.19287	1506.4
3213.49394	1513.6
3215.79363	1518.7
3218.09193	1522.2
3220.38884	1514.2
3222.68438	1513
3224.97853	1517.1
3227.2713	1522.5
3229.56269	1531.3
3231.8527	1522.1
3234.14133	1530
3236.42858	1531.1
3238.71446	1533.9
3240.99896	1523.1
3243.28209	1523.2
3245.56384	1517.3
3247.84423	1516.7
3250.12324	1522.3
3252.40088	1521.8
3254.67715	1523
3256.95205	1524.3
3259.22558	1515.9
3261.49775	1528.9
3263.76855	1512.1
3266.03799	1519.8
3268.30606	1521.6
3270.57277	1516.9
3272.83812	1509.9
3275.10211	1519.4
3277.36474	1504
3279.62601	1510.8
3281.88593	1506.9
3284.14448	1510.4
3286.40168	1505.4
3288.65753	1500
3290.91202	1508.1
3293.16516	1496.9
3295.41695	1508.6
3297.66738	1501.1
3299.91647	1501.2
3302.16421	1492.6
3304.4106	1486.1
3306.65564	1478.9
3308.89933	1464.8
3311.14169	1458.7
3313.38269	1450.4
3315.62236	1445.5
3317.86068	1428.2
3320.09766	1416.2
3322.3333	1405.6
3324.5676	1414.1
3326.80056	1389.7
3329.03219	1384.7
3331.26248	-0.7
3333.49143	-1.2
3335.71905	0.1
