Data from AgNPs_APTES_FTO_UA_50uM_CRN_0uM_R6G_10uM_Scan_RamanShift__21__11-35-33-676.txt Node

Date: Tue Jul 05 11:35:33 BST 2022
User: TCL
Spectrometer: QEP01345
Trigger mode: 4
Integration Time (sec): 7.000000E0
Scans to average: 10
Electric dark correction enabled: true
Nonlinearity correction enabled: false
Boxcar width: 0
XAxis mode: Raman Shifts
Number of Pixels in Spectrum: 1044
>>>>>Begin Spectral Data<<<<<
46.04893	-0.8
50.45542	-0.1
54.85868	0.1
59.25871	1.8
63.6555	40.4
68.04907	43.1
72.43941	44.6
76.82654	49.9
81.21044	51.5
85.59113	56.2
89.96862	58.2
94.34289	56.6
98.71396	59.9
103.08183	59.9
107.4465	60
111.80798	63.2
116.16626	64.4
120.52136	61
124.87327	65.9
129.222	62.4
133.56755	66
137.90993	64.3
142.24913	72.1
146.58517	78
150.91804	84.2
155.24774	94.5
159.57429	107.6
163.89768	137.1
168.21792	170.9
172.53501	220.5
176.84895	300.8
181.15975	406.4
185.46741	555.7
189.77193	764.4
194.07331	1019.6
198.37157	1288.7
202.6667	1604.9
206.9587	1897.4
211.24758	2195.3
215.53334	2489.9
219.81599	2806.7
224.09553	3178.9
228.37195	3553.4
232.64527	3981.7
236.91549	4412.9
241.18261	4832.8
245.44663	5200.8
249.70755	5493.1
253.96539	5741.6
258.22014	5929
262.4718	6114
266.72039	6232.9
270.96589	6287.9
275.20832	6267.6
279.44768	6162.8
283.68397	6044
287.91719	5927.2
292.14735	5874.9
296.37445	5890.3
300.59849	6003
304.81948	6095.7
309.03742	6180.6
313.25231	6193.3
317.46415	6027
321.67296	5797.4
325.87872	5556
330.08145	5438
334.28114	5409.2
338.47781	5447.6
342.67145	5540.4
346.86207	5666.4
351.04966	5826.1
355.23424	6046.4
359.4158	6236.3
363.59435	6352.2
367.76989	6426.7
371.94243	6482
376.11196	6510.6
380.27849	6517.6
384.44203	6544.8
388.60257	6531.8
392.76012	6518.9
396.91468	6547.6
401.06626	6622.8
405.21485	6676.5
409.36047	6572.1
413.50311	6365.8
417.64277	6132.8
421.77947	6010.6
425.9132	5967.3
430.04396	5975.2
434.17176	6009.2
438.2966	6049.4
442.41849	6160.2
446.53742	6262.4
450.6534	6379.5
454.76644	6433.6
458.87653	6415.6
462.98368	6356.9
467.08789	6289.5
471.18916	6217.9
475.2875	6165.1
479.38291	6093.8
483.4754	6089.7
487.56496	6122.2
491.6516	6169.9
495.73531	6204.6
499.81612	6224.8
503.89401	6255.2
507.96899	6314.5
512.04106	6351.6
516.11023	6408.1
520.1765	6476.2
524.23987	6493.7
528.30034	6455.4
532.35792	6403.1
536.41261	6302.4
540.46441	6205.2
544.51333	6138.1
548.55936	6138.7
552.60252	6195.5
556.64279	6264
560.6802	6298.3
564.71473	6330.8
568.7464	6416.2
572.7752	6495.8
576.80114	6425.6
580.82422	6361.9
584.84444	6369.3
588.86181	6500.3
592.87633	6619.8
596.888	6751.5
600.89682	6847.8
604.9028	7261.8
608.90594	8506.9
612.90624	10266.3
616.90371	9936.8
620.89834	7831.1
624.89015	6877.1
628.87913	6778.3
632.86528	6964.3
636.84862	7111.3
640.82913	7072.5
644.80683	6794.4
648.78172	6482.2
652.75379	6355.5
656.72306	6406.7
660.68952	6502.7
664.65319	6424.6
668.61405	6220.6
672.57211	6139.5
676.52738	6165.7
680.47986	6246.1
684.42955	6294.7
688.37646	6314
692.32058	6290.1
696.26192	6205.3
700.20048	6160.1
704.13626	6162.2
708.06928	6142.4
711.99952	6104.2
715.927	6090.5
719.85171	6101.1
723.77365	6137.9
727.69284	6137.2
731.60928	6079.6
735.52295	6063.6
739.43388	6040.9
743.34206	6044.2
747.24749	6050.9
751.15017	6051.3
755.05012	6075.9
758.94733	6247.5
762.8418	6637.1
766.73354	7410.9
770.62254	8303.7
774.50882	8782.7
778.39237	8417.9
782.27321	7540.9
786.15132	6754.4
790.02671	6315.3
793.89938	6098.9
797.76935	6025.3
801.6366	6029.9
805.50115	6082.2
809.36299	6159.5
813.22213	6173.6
817.07857	6112.5
820.93231	6007.8
824.78336	5924.9
828.63172	5873.4
832.47738	5848
836.32036	5830.9
840.16066	5806
843.99827	5806.4
847.8332	5828.4
851.66546	5821
855.49504	5786.3
859.32195	5784.2
863.1462	5780.2
866.96777	5803
870.78668	5823.8
874.60293	5871.2
878.41652	5937.7
882.22745	6015.9
886.03573	6078.7
889.84136	6092.8
893.64433	6068.9
897.44466	5999.2
901.24235	5943.9
905.0374	5906.6
908.8298	5852.1
912.61957	5840
916.40671	5883.1
920.19121	5956.8
923.97308	6021.6
927.75233	6099
931.52895	6154
935.30295	6088
939.07433	5919.8
942.84309	5768.8
946.60924	5644.1
950.37278	5555
954.13371	5491.3
957.89203	5428.4
961.64774	5374.4
965.40086	5321.2
969.15137	5278.9
972.89929	5237.2
976.64461	5207.8
980.38733	5172.3
984.12747	5152.1
987.86502	5135.7
991.59999	5161.9
995.33237	5185.4
999.06217	5237.6
1002.78939	5314.8
1006.51404	5369.9
1010.23611	5471.8
1013.95561	5551.2
1017.67255	5578.4
1021.38692	5524
1025.09872	5427.7
1028.80796	5358.3
1032.51465	5259.9
1036.21877	5228.3
1039.92035	5220
1043.61937	5224.3
1047.31584	5243.9
1051.00976	5253.6
1054.70114	5259.5
1058.38998	5276.8
1062.07627	5313.4
1065.76003	5351.3
1069.44126	5327.9
1073.11995	5341.5
1076.79611	5380.5
1080.46974	5408.5
1084.14085	5451.2
1087.80943	5531.9
1091.47549	5564.6
1095.13903	5496.2
1098.80005	5358.1
1102.45857	5242.1
1106.11456	5200
1109.76805	5205.5
1113.41903	5325.1
1117.06751	5478.3
1120.71348	5713.7
1124.35696	5960.4
1127.99793	6282.6
1131.63641	6454.6
1135.2724	6358.6
1138.90589	6139
1142.5369	5928.6
1146.16542	5689.4
1149.79145	5484.4
1153.415	5333.3
1157.03607	5261
1160.65467	5261
1164.27079	5360.4
1167.88443	5542.3
1171.49561	5886.1
1175.10432	6437.6
1178.71056	7222
1182.31434	7875.6
1185.91565	8049.3
1189.51451	7805.6
1193.11091	7367.6
1196.70485	6943
1200.29634	6633.2
1203.88538	6404.1
1207.47197	6106.8
1211.05612	5774.1
1214.63782	5578.4
1218.21708	5462.6
1221.79391	5406.8
1225.36829	5418
1228.94024	5399.4
1232.50976	5358.2
1236.07685	5311.2
1239.6415	5248.6
1243.20374	5254
1246.76355	5252.2
1250.32093	5301.7
1253.8759	5333.9
1257.42845	5459.4
1260.97859	5603
1264.52631	5778.1
1268.07163	5943
1271.61453	6077.1
1275.15503	6187.2
1278.69312	6214.2
1282.22882	6229.1
1285.76211	6324.7
1289.29301	6515.2
1292.82151	6743.6
1296.34761	6993
1299.87133	7348.2
1303.39266	7867.8
1306.9116	8581.4
1310.42815	9468.7
1313.94233	9984.6
1317.45412	9878.1
1320.96354	9218.8
1324.47058	8477.7
1327.97525	7822.9
1331.47754	7380.8
1334.97747	7121.4
1338.47502	7069.1
1341.97022	7141.8
1345.46305	7423.1
1348.95352	7913.8
1352.44163	8692.8
1355.92738	9707.4
1359.41078	11107.4
1362.89183	12573.3
1366.37053	12718.3
1369.84688	11166.1
1373.32088	9266.6
1376.79254	7960.9
1380.26186	7341.3
1383.72883	7006.6
1387.19347	6768
1390.65578	6549.1
1394.11575	6363.2
1397.57339	6242.4
1401.0287	6165
1404.48168	6072
1407.93234	5960.8
1411.38068	5825.6
1414.82669	5734.3
1418.27039	5639.6
1421.71177	5531.1
1425.15083	5445.3
1428.58758	5357.5
1432.02203	5341.2
1435.45416	5373.2
1438.88399	5418
1442.31151	5412.1
1445.73673	5415.4
1449.15965	5428.1
1452.58027	5408.4
1455.9986	5356.7
1459.41463	5345.7
1462.82837	5366.7
1466.23982	5437.4
1469.64898	5533.3
1473.05586	5601.3
1476.46045	5642.9
1479.86276	5696.1
1483.26279	5775.3
1486.66054	5880.7
1490.05602	6044.3
1493.44922	6292
1496.84016	6674.6
1500.22882	7297.2
1503.61521	8201
1506.99934	9314.1
1510.38121	10340
1513.76081	10795.9
1517.13816	10292.1
1520.51324	9070.8
1523.88607	7827.3
1527.25665	6948.6
1530.62498	6479.1
1533.99105	6220.2
1537.35488	6029.3
1540.71647	5910.1
1544.07581	5807.2
1547.4329	5781.3
1550.78776	5763.2
1554.14038	5802.1
1557.49077	5885.5
1560.83892	5978.3
1564.18484	6122.1
1567.52853	6299
1570.86999	6500.9
1574.20922	6624
1577.54624	6630.2
1580.88103	6358
1584.2136	5931.2
1587.54395	5625.1
1590.87208	5561.4
1594.19801	5690.7
1597.52172	6010.8
1600.84321	6208.5
1604.16251	6088.2
1607.47959	5846
1610.79447	5550.4
1614.10715	5274
1617.41763	5046.2
1620.7259	4898.6
1624.03199	4832.3
1627.33587	4841.9
1630.63757	4902.7
1633.93707	5054.5
1637.23439	5323.6
1640.52951	5784.6
1643.82246	6501.8
1647.11321	7345.8
1650.40179	8008.1
1653.68819	7954
1656.97241	7135.6
1660.25446	6063.2
1663.53433	5258.8
1666.81203	4761
1670.08756	4466.5
1673.36092	4283.9
1676.63211	4159.9
1679.90115	4088.7
1683.16801	4012.6
1686.43272	3981.1
1689.69527	3919
1692.95567	3898.4
1696.2139	3867.5
1699.46999	3821.2
1702.72392	3777.4
1705.97571	3722.6
1709.22535	3665.2
1712.47284	3613
1715.71819	3565.8
1718.96139	3512.5
1722.20246	3464.2
1725.44139	3417.4
1728.67818	3368.5
1731.91284	3306.5
1735.14537	3279.5
1738.37576	3253.6
1741.60403	3231.7
1744.83017	3204.8
1748.05418	3184.3
1751.27607	3165.2
1754.49584	3151.2
1757.71349	3134.4
1760.92903	3104.3
1764.14244	3086.4
1767.35375	3082
1770.56294	3072
1773.77002	3061.5
1776.97499	3043
1780.17785	3045.6
1783.37861	3039.4
1786.57727	3010.8
1789.77382	3005.4
1792.96828	2999.5
1796.16064	2971.8
1799.3509	2980.9
1802.53907	2956.1
1805.72514	2950.4
1808.90913	2935.8
1812.09102	2924.5
1815.27083	2898
1818.44856	2893.7
1821.6242	2890.5
1824.79776	2895.3
1827.96924	2869.7
1831.13864	2862.9
1834.30597	2859.9
1837.47122	2860.1
1840.6344	2837.9
1843.7955	2823.8
1846.95454	2823.3
1850.11151	2816.1
1853.26642	2810
1856.41926	2800.3
1859.57004	2802.8
1862.71876	2781.1
1865.86542	2787.3
1869.01003	2793.1
1872.15258	2775.6
1875.29308	2774.4
1878.43152	2758.2
1881.56792	2761.9
1884.70227	2756.6
1887.83457	2739.7
1890.96482	2738
1894.09304	2732
1897.21921	2722.3
1900.34335	2728.2
1903.46544	2712.2
1906.58551	2699
1909.70353	2706.4
1912.81953	2691.2
1915.93349	2697.5
1919.04543	2684
1922.15534	2689
1925.26322	2655.8
1928.36908	2645.6
1931.47292	2631.3
1934.57473	2623.1
1937.67453	2617
1940.77232	2610.9
1943.86808	2591
1946.96184	2582.5
1950.05358	2564.4
1953.14331	2565.3
1956.23103	2547.7
1959.31675	2530.9
1962.40046	2518.5
1965.48217	2522.8
1968.56188	2510.2
1971.63959	2504
1974.7153	2489.4
1977.78901	2477.8
1980.86073	2482.2
1983.93046	2450.3
1986.99819	2452.7
1990.06394	2438.3
1993.1277	2423.9
1996.18947	2414.3
1999.24925	2405.3
2002.30706	2394.9
2005.36288	2375.2
2008.41672	2368.4
2011.46859	2369.1
2014.51848	2363.6
2017.56639	2346.6
2020.61233	2334.5
2023.6563	2332.1
2026.6983	2318.1
2029.73833	2305.7
2032.7764	2298.8
2035.8125	2283.3
2038.84664	2279.6
2041.87881	2275.2
2044.90903	2266.2
2047.93729	2280.6
2050.96359	2266.6
2053.98794	2264.9
2057.01034	2252.3
2060.03078	2249
2063.04927	2248.1
2066.06582	2237.8
2069.08042	2236
2072.09307	2221.5
2075.10378	2215.3
2078.11255	2228.7
2081.11938	2231.9
2084.12426	2219.4
2087.12722	2207.4
2090.12824	2206.5
2093.12732	2192.6
2096.12447	2212
2099.11969	2204.1
2102.11299	2204.5
2105.10435	2200.1
2108.09379	2195.4
2111.08131	2195.1
2114.0669	2194.9
2117.05057	2193.8
2120.03233	2191.7
2123.01216	2196.2
2125.99008	2193.7
2128.96609	2182.9
2131.94018	2189.6
2134.91236	2189.5
2137.88263	2190.3
2140.851	2181.4
2143.81746	2180.4
2146.78201	2175.1
2149.74466	2160.8
2152.7054	2156.8
2155.66425	2152.4
2158.6212	2150.8
2161.57625	2145.4
2164.52941	2133.6
2167.48067	2134.7
2170.43004	2137.5
2173.37752	2135
2176.32311	2126.1
2179.26681	2134
2182.20863	2118.3
2185.14856	2137.2
2188.08661	2123.6
2191.02278	2113.8
2193.95707	2109.5
2196.88948	2107.5
2199.82001	2100.5
2202.74867	2095
2205.67545	2087.4
2208.60037	2085.8
2211.52341	2080.1
2214.44458	2080.4
2217.36388	2067
2220.28132	2056.2
2223.1969	2054.9
2226.11061	2056
2229.02246	2041.4
2231.93245	2036.2
2234.84058	2020.1
2237.74686	2024.2
2240.65128	2024.5
2243.55385	2014.5
2246.45456	2005.6
2249.35343	1993.3
2252.25044	2008.5
2255.14561	1996
2258.03893	1993.6
2260.93041	1982.9
2263.82004	1984
2266.70783	1986.3
2269.59378	1958.8
2272.4779	1960.4
2275.36017	1953
2278.24061	1947.8
2281.11922	1940.3
2283.996	1939.6
2286.87094	1933.4
2289.74405	1923.9
2292.61534	1927.3
2295.4848	1895.2
2298.35243	1904.6
2301.21824	1901
2304.08223	1895.6
2306.94439	1882.1
2309.80474	1887.7
2312.66327	1887.7
2315.51999	1900.9
2318.37489	1873.9
2321.22797	1876.5
2324.07925	1866.6
2326.92871	1864.9
2329.77637	1866.9
2332.62222	1867.5
2335.46626	1852.9
2338.3085	1857.9
2341.14893	1843.4
2343.98756	1840.8
2346.8244	1831.9
2349.65943	1833.8
2352.49267	1833
2355.32411	1845.7
2358.15376	1834.8
2360.98161	1844.5
2363.80768	1843.4
2366.63195	1848.7
2369.45444	1841.9
2372.27514	1851.8
2375.09405	1843.6
2377.91118	1841.9
2380.72652	1820.5
2383.54009	1812.1
2386.35187	1798.4
2389.16188	1798
2391.97011	1774.6
2394.77657	1765.6
2397.58125	1757.5
2400.38416	1747.6
2403.18529	1749.5
2405.98466	1747.8
2408.78226	1750.1
2411.57809	1738.9
2414.37216	1737.9
2417.16446	1733.6
2419.955	1722.3
2422.74378	1727.7
2425.5308	1724.8
2428.31606	1723.4
2431.09956	1724.6
2433.88131	1714.4
2436.6613	1710.2
2439.43954	1717.1
2442.21603	1709.3
2444.99077	1713.3
2447.76377	1706.5
2450.53501	1703.7
2453.30451	1701.1
2456.07226	1696
2458.83827	1703
2461.60254	1695.6
2464.36507	1678.6
2467.12586	1680.5
2469.88492	1669.5
2472.64224	1672.5
2475.39782	1681.4
2478.15167	1677.7
2480.90379	1671
2483.65417	1681.8
2486.40283	1682
2489.14976	1678.1
2491.89497	1681
2494.63845	1684
2497.3802	1663.7
2500.12024	1666.7
2502.85855	1667
2505.59514	1659.6
2508.33002	1653.2
2511.06318	1653.7
2513.79462	1625.1
2516.52435	1614
2519.25237	1612.9
2521.97867	1612.4
2524.70327	1602.6
2527.42616	1592.3
2530.14734	1585.9
2532.86681	1584.9
2535.58458	1577
2538.30065	1580.3
2541.01501	1578.1
2543.72768	1581.2
2546.43864	1572.1
2549.14791	1558.6
2551.85548	1567.5
2554.56136	1568.5
2557.26554	1559.7
2559.96803	1558.9
2562.66883	1554
2565.36794	1550.1
2568.06536	1550.7
2570.7611	1532.5
2573.45514	1538.3
2576.14751	1543.6
2578.83819	1524.2
2581.52719	1520.3
2584.21451	1516.6
2586.90015	1513.9
2589.58411	1514.5
2592.2664	1511
2594.94701	1501
2597.62594	1498.7
2600.30321	1490.1
2602.9788	1499.7
2605.65273	1491.4
2608.32498	1492.7
2610.99557	1493.1
2613.66449	1482.5
2616.33175	1479.1
2618.99734	1480.7
2621.66128	1468.3
2624.32355	1474.5
2626.98416	1460.3
2629.64311	1459.7
2632.30041	1463.7
2634.95605	1456.4
2637.61004	1448
2640.26238	1446.7
2642.91306	1445.9
2645.56209	1448.2
2648.20948	1442.7
2650.85521	1447.8
2653.4993	1441.5
2656.14175	1433.8
2658.78255	1444.3
2661.42171	1434
2664.05923	1438.7
2666.6951	1436.6
2669.32934	1445.7
2671.96194	1438.9
2674.59291	1431.6
2677.22224	1441.8
2679.84993	1434.4
2682.476	1434.5
2685.10043	1440.5
2687.72324	1431.4
2690.34441	1432.4
2692.96396	1436.6
2695.58188	1426.3
2698.19818	1418.9
2700.81285	1422.5
2703.4259	1425.9
2706.03733	1412.6
2708.64714	1407.7
2711.25533	1427.1
2713.86191	1421.6
2716.46687	1429.6
2719.07021	1428.4
2721.67194	1434.4
2724.27206	1427.9
2726.87057	1434.6
2729.46747	1420.1
2732.06276	1426.2
2734.65644	1418.6
2737.24852	1417.2
2739.83899	1415.3
2742.42786	1417.5
2745.01513	1398.9
2747.60079	1414.3
2750.18486	1401.7
2752.76733	1404.5
2755.3482	1400.3
2757.92747	1394.6
2760.50515	1388.3
2763.08123	1394.9
2765.65573	1386
2768.22863	1375.3
2770.79994	1372.2
2773.36967	1366.6
2775.9378	1376.3
2778.50435	1381.8
2781.06932	1367.6
2783.6327	1372.3
2786.1945	1369.2
2788.75471	1364.6
2791.31335	1360.7
2793.87041	1363.3
2796.42589	1362.9
2798.97979	1358
2801.53212	1354.1
2804.08288	1350.7
2806.63206	1351.4
2809.17967	1339.6
2811.72571	1342.5
2814.27018	1338.8
2816.81308	1333.1
2819.35442	1350
2821.89419	1336.1
2824.43239	1342.5
2826.96904	1340
2829.50412	1332.8
2832.03763	1325.4
2834.56959	1343.2
2837.1	1338.4
2839.62884	1345.2
2842.15613	1349.1
2844.68186	1363.6
2847.20604	1369.4
2849.72867	1389.1
2852.24974	1379.2
2854.76927	1378.4
2857.28724	1376.9
2859.80367	1384.1
2862.31855	1381.5
2864.83189	1380
2867.34368	1382.4
2869.85393	1389.1
2872.36264	1389.6
2874.8698	1399.8
2877.37543	1389.7
2879.87952	1394
2882.38207	1394.9
2884.88308	1389
2887.38256	1381.7
2889.88051	1386.9
2892.37692	1384.3
2894.8718	1393.2
2897.36515	1385.4
2899.85698	1394.7
2902.34727	1401.5
2904.83604	1401.6
2907.32328	1399.8
2909.809	1413.5
2912.29319	1415.5
2914.77587	1424.1
2917.25702	1415.6
2919.73665	1433.2
2922.21476	1416.2
2924.69136	1425.4
2927.16644	1423.3
2929.64	1418.3
2932.11205	1426
2934.58258	1409.9
2937.05161	1413.2
2939.51912	1399.7
2941.98513	1396.4
2944.44962	1392.4
2946.91261	1382.6
2949.37409	1370.9
2951.83407	1351
2954.29254	1345.1
2956.74951	1345.8
2959.20498	1331.1
2961.65895	1325.7
2964.11142	1331.4
2966.56239	1312.3
2969.01186	1276.1
2971.45984	1295.9
2973.90632	1300.9
2976.35131	1306
2978.7948	1294.2
2981.23681	1277.5
2983.67732	1278.8
2986.11635	1274.5
2988.55388	1270.6
2990.98993	1268.4
2993.4245	1264.5
2995.85758	1265.1
2998.28917	1259.2
3000.71928	1257.2
3003.14791	1259.8
3005.57506	1256.2
3008.00073	1258.3
3010.42493	1255.3
3012.84764	1247.7
3015.26888	1250
3017.68865	1248.7
3020.10694	1248.1
3022.52376	1253.5
3024.9391	1244.7
3027.35298	1241.8
3029.76539	1251.1
3032.17632	1242
3034.5858	1247.9
3036.9938	1242
3039.40034	1249.7
3041.80542	1239.1
3044.20903	1245.5
3046.61118	1245.6
3049.01187	1246.4
3051.4111	1243.1
3053.80888	1241.3
3056.20519	1241.3
3058.60005	1252.2
3060.99345	1242.9
3063.3854	1245.8
3065.7759	1241.6
3068.16494	1248.7
3070.55254	1243.5
3072.93868	1239.5
3075.32338	1243.1
3077.70662	1251.3
3080.08842	1244.1
3082.46878	1237.9
3084.84769	1245.3
3087.22515	1246.7
3089.60118	1254.4
3091.97576	1256.3
3094.3489	1262
3096.72061	1260.4
3099.09087	1267.7
3101.4597	1284.9
3103.82709	1278.3
3106.19305	1286.4
3108.55757	1289.2
3110.92066	1284.7
3113.28232	1291
3115.64255	1294.9
3118.00134	1295.4
3120.35871	1296.4
3122.71466	1303.8
3125.06917	1305.8
3127.42226	1313.1
3129.77393	1319.6
3132.12417	1329.4
3134.47299	1333
3136.82039	1327.1
3139.16636	1341.5
3141.51092	1347.4
3143.85406	1348.6
3146.19579	1360.6
3148.53609	1363.9
3150.87499	1375
3153.21246	1379
3155.54853	1381.7
3157.88318	1384.4
3160.21642	1396.4
3162.54826	1412
3164.87868	1416.6
3167.2077	1412.7
3169.5353	1426
3171.86151	1426.3
3174.18631	1439.9
3176.5097	1435.4
3178.83169	1438.4
3181.15228	1446.5
3183.47147	1441.1
3185.78926	1463.7
3188.10565	1460.9
3190.42065	1461.7
3192.73424	1461.9
3195.04645	1477.8
3197.35725	1476.2
3199.66667	1482.3
3201.97469	1482.5
3204.28132	1484.5
3206.58656	1496
3208.8904	1502.8
3211.19287	1505.3
3213.49394	1519.8
3215.79363	1521.1
3218.09193	1519.7
3220.38884	1518.4
3222.68438	1512.4
3224.97853	1521
3227.2713	1526.8
3229.56269	1528.5
3231.8527	1532.5
3234.14133	1530.3
3236.42858	1527.7
3238.71446	1527.1
3240.99896	1526
3243.28209	1523.1
3245.56384	1522.4
3247.84423	1527.1
3250.12324	1532
3252.40088	1529.1
3254.67715	1532.3
3256.95205	1515.5
3259.22558	1533.2
3261.49775	1526.4
3263.76855	1528
3266.03799	1527.5
3268.30606	1518.3
3270.57277	1519.5
3272.83812	1514.9
3275.10211	1512.5
3277.36474	1511.5
3279.62601	1505.5
3281.88593	1508
3284.14448	1505.9
3286.40168	1507.7
3288.65753	1504.7
3290.91202	1513.2
3293.16516	1516.5
3295.41695	1504.6
3297.66738	1504.8
3299.91647	1500.1
3302.16421	1486
3304.4106	1488.4
3306.65564	1482.7
3308.89933	1476.2
3311.14169	1460.7
3313.38269	1447.8
3315.62236	1437.6
3317.86068	1428.3
3320.09766	1428.6
3322.3333	1415.6
3324.5676	1412.4
3326.80056	1392
3329.03219	1385.6
3331.26248	-0.5
3333.49143	-1.1
3335.71905	0.1
