Data from AgNPs_APTES_FTO_UA_50uM_CRN_0uM_R6G_10uM_Scan_RamanShift__56__12-16-23-724.txt Node

Date: Tue Jul 05 12:16:23 BST 2022
User: TCL
Spectrometer: QEP01345
Trigger mode: 4
Integration Time (sec): 7.000000E0
Scans to average: 10
Electric dark correction enabled: true
Nonlinearity correction enabled: false
Boxcar width: 0
XAxis mode: Raman Shifts
Number of Pixels in Spectrum: 1044
>>>>>Begin Spectral Data<<<<<
46.04893	-0.6
50.45542	-0.5
54.85868	-0.9
59.25871	0.2
63.6555	63.5
68.04907	71.9
72.43941	75.1
76.82654	79
81.21044	79.4
85.59113	83.3
89.96862	89.1
94.34289	89.4
98.71396	94.5
103.08183	95.1
107.4465	97
111.80798	102.4
116.16626	99.8
120.52136	101.3
124.87327	108.3
129.222	113.9
133.56755	116.8
137.90993	117.5
142.24913	132.2
146.58517	142.5
150.91804	165.3
155.24774	192.5
159.57429	236
163.89768	303
168.21792	393.3
172.53501	535
176.84895	747.5
181.15975	1049.7
185.46741	1481.1
189.77193	2038.7
194.07331	2734.8
198.37157	3503.7
202.6667	4337.5
206.9587	5163.3
211.24758	5945.8
215.53334	6753.6
219.81599	7599
224.09553	8476.3
228.37195	9496.4
232.64527	10595.8
236.91549	11786.5
241.18261	13032.8
245.44663	14219.2
249.70755	15360.2
253.96539	16343
258.22014	17118.7
262.4718	17688.2
266.72039	18040.4
270.96589	18182.9
275.20832	18147.7
279.44768	17962.1
283.68397	17648.5
287.91719	17380.5
292.14735	17146.6
296.37445	17007.4
300.59849	16857.3
304.81948	16797.9
309.03742	16754.1
313.25231	16659.1
317.46415	16517.2
321.67296	16371.7
325.87872	16219.4
330.08145	16195.4
334.28114	16304.4
338.47781	16422.3
342.67145	16613.8
346.86207	16832.3
351.04966	17048.9
355.23424	17301.8
359.4158	17537.6
363.59435	17693.5
367.76989	17836.8
371.94243	18023.1
376.11196	18068.2
380.27849	18162.1
384.44203	18226
388.60257	18382.2
392.76012	18495.5
396.91468	18645.5
401.06626	18818.6
405.21485	18969.8
409.36047	18988.2
413.50311	18915.6
417.64277	18818.7
421.77947	18817.9
425.9132	18889.6
430.04396	18994.4
434.17176	19067.6
438.2966	19179.5
442.41849	19381.1
446.53742	19580.7
450.6534	19819.9
454.76644	20018.9
458.87653	20148.8
462.98368	20235.6
467.08789	20274.6
471.18916	20257.6
475.2875	20214.6
479.38291	20158.3
483.4754	20124.7
487.56496	20157.9
491.6516	20096.1
495.73531	20066.6
499.81612	20019.8
503.89401	20098.8
507.96899	20201
512.04106	20245.3
516.11023	20239.8
520.1765	20182.4
524.23987	20099.3
528.30034	20027.2
532.35792	19989.9
536.41261	19928.7
540.46441	19824.6
544.51333	19792.2
548.55936	19891
552.60252	20067.9
556.64279	20249.6
560.6802	20435.4
564.71473	20594.1
568.7464	20793.6
572.7752	21092.6
576.80114	21383.1
580.82422	21623.8
584.84444	21774.2
588.86181	22035.5
592.87633	22247.5
596.888	22384.7
600.89682	22270
604.9028	22472.2
608.90594	23229.8
612.90624	23967.3
616.90371	23282
620.89834	21671.3
624.89015	21007.7
628.87913	20939.8
632.86528	20989.1
636.84862	21030.5
640.82913	20920.2
644.80683	20723.7
648.78172	20572.7
652.75379	20547.3
656.72306	20646.4
660.68952	20882.2
664.65319	20931.9
668.61405	20906.3
672.57211	20972.2
676.52738	21066.1
680.47986	21082
684.42955	21095.2
688.37646	21125.3
692.32058	21136.2
696.26192	21197.3
700.20048	21268.7
704.13626	21308.1
708.06928	21342.6
711.99952	21272.3
715.927	21255.7
719.85171	21214
723.77365	21180.8
727.69284	21084.6
731.60928	20980.2
735.52295	20961.9
739.43388	20977.9
743.34206	21049.5
747.24749	21122.4
751.15017	21203.9
755.05012	21359.1
758.94733	21600.8
762.8418	22043.3
766.73354	22677
770.62254	23414
774.50882	23495.1
778.39237	23138
782.27321	22532.8
786.15132	21966.1
790.02671	21551.4
793.89938	21350.1
797.76935	21226.2
801.6366	21182.8
805.50115	21165.9
809.36299	21109.5
813.22213	21110
817.07857	21051.9
820.93231	21059.1
824.78336	21053.5
828.63172	21037
832.47738	21010.3
836.32036	20999.1
840.16066	21043.6
843.99827	21082.2
847.8332	21106.1
851.66546	21130.8
855.49504	21153.6
859.32195	21167.2
863.1462	21153.2
866.96777	21144.2
870.78668	21143.8
874.60293	21203.8
878.41652	21253.5
882.22745	21266.8
886.03573	21290.4
889.84136	21316.4
893.64433	21296.5
897.44466	21289.4
901.24235	21276.4
905.0374	21282.5
908.8298	21277.4
912.61957	21243
916.40671	21321.2
920.19121	21381.8
923.97308	21443.8
927.75233	21408.1
931.52895	21382.1
935.30295	21279.2
939.07433	21086.3
942.84309	20918
946.60924	20886.2
950.37278	20798
954.13371	20767.4
957.89203	20750.2
961.64774	20793.1
965.40086	20718
969.15137	20704.7
972.89929	20666.1
976.64461	20647.6
980.38733	20601.2
984.12747	20628.2
987.86502	20585
991.59999	20622.6
995.33237	20725.6
999.06217	20821.5
1002.78939	20948
1006.51404	21106.9
1010.23611	21239
1013.95561	21402.3
1017.67255	21425.2
1021.38692	21309.9
1025.09872	21213
1028.80796	21095.9
1032.51465	20971.7
1036.21877	21010.9
1039.92035	21050.1
1043.61937	21050.1
1047.31584	21107.1
1051.00976	21181.3
1054.70114	21231.5
1058.38998	21310.2
1062.07627	21410.2
1065.76003	21537.9
1069.44126	21613.5
1073.11995	21750.7
1076.79611	21943.1
1080.46974	22074.2
1084.14085	22055.1
1087.80943	22099.7
1091.47549	22170.5
1095.13903	22184.9
1098.80005	22130.4
1102.45857	21957
1106.11456	21833
1109.76805	21738.9
1113.41903	21659.8
1117.06751	21687.1
1120.71348	21761.3
1124.35696	21841.7
1127.99793	21964.8
1131.63641	22046.6
1135.2724	22006.9
1138.90589	21964.2
1142.5369	22003.1
1146.16542	21918.7
1149.79145	21953.4
1153.415	21918.3
1157.03607	21961.8
1160.65467	22059
1164.27079	22342.1
1167.88443	22671.2
1171.49561	23087.3
1175.10432	23752.7
1178.71056	24531.4
1182.31434	25202.5
1185.91565	25683.5
1189.51451	25807.3
1193.11091	25626.4
1196.70485	25340.8
1200.29634	24934.5
1203.88538	24560.6
1207.47197	24276
1211.05612	24108.6
1214.63782	23960
1218.21708	23752.2
1221.79391	23511.6
1225.36829	23277.3
1228.94024	23226.5
1232.50976	23090.8
1236.07685	22963.6
1239.6415	22875.8
1243.20374	22901.3
1246.76355	22964.9
1250.32093	23069
1253.8759	23180.1
1257.42845	23463.9
1260.97859	23744.7
1264.52631	24057.8
1268.07163	24371
1271.61453	24713.9
1275.15503	24910
1278.69312	25118.5
1282.22882	25327.3
1285.76211	25560.4
1289.29301	25860.6
1292.82151	26327.9
1296.34761	26817.2
1299.87133	27420.2
1303.39266	28063.7
1306.9116	28722.8
1310.42815	29413.9
1313.94233	29769.7
1317.45412	29742.6
1320.96354	29552.5
1324.47058	29328.9
1327.97525	29119.8
1331.47754	28905.6
1334.97747	28767.4
1338.47502	28745.6
1341.97022	28855.6
1345.46305	28974.7
1348.95352	29176.1
1352.44163	29200.4
1355.92738	29121.5
1359.41078	29278.7
1362.89183	29511
1366.37053	29175.2
1369.84688	28082.9
1373.32088	26732.5
1376.79254	25750.2
1380.26186	25296.4
1383.72883	25104.5
1387.19347	24931.7
1390.65578	24721.3
1394.11575	24514.3
1397.57339	24445.7
1401.0287	24331.6
1404.48168	24357.4
1407.93234	24241
1411.38068	24061.2
1414.82669	23776.4
1418.27039	23423
1421.71177	23046.1
1425.15083	22759.1
1428.58758	22613
1432.02203	22605.3
1435.45416	22700.2
1438.88399	22887.8
1442.31151	23044.1
1445.73673	23214.4
1449.15965	23278.1
1452.58027	23431.2
1455.9986	23478
1459.41463	23578.1
1462.82837	23745
1466.23982	23894.9
1469.64898	24077.5
1473.05586	24198.5
1476.46045	24198.4
1479.86276	24231.3
1483.26279	24296.4
1486.66054	24375.8
1490.05602	24496
1493.44922	24768.3
1496.84016	25110.6
1500.22882	25591.3
1503.61521	26089
1506.99934	26634.6
1510.38121	26936.3
1513.76081	26978
1517.13816	26527.9
1520.51324	25966.8
1523.88607	25523.4
1527.25665	25247.8
1530.62498	25113.8
1533.99105	24970.2
1537.35488	24854.2
1540.71647	24584.6
1544.07581	24357.6
1547.4329	24161.3
1550.78776	23959.4
1554.14038	23908.4
1557.49077	23972.2
1560.83892	24012
1564.18484	24107.1
1567.52853	24195.5
1570.86999	24359.2
1574.20922	24546.1
1577.54624	24654.6
1580.88103	24646.2
1584.2136	24542.3
1587.54395	24617.9
1590.87208	24806.9
1594.19801	25200.6
1597.52172	25663.7
1600.84321	25650.6
1604.16251	25250.9
1607.47959	24579.1
1610.79447	23791.3
1614.10715	22894.4
1617.41763	22189.9
1620.7259	21595
1624.03199	21320.5
1627.33587	21280
1630.63757	21423.8
1633.93707	21833
1637.23439	22528.7
1640.52951	23673.9
1643.82246	25064.1
1647.11321	26264.4
1650.40179	26666.2
1653.68819	26006.6
1656.97241	24443.8
1660.25446	22757
1663.53433	21442.2
1666.81203	20581.9
1670.08756	19936.9
1673.36092	19587.4
1676.63211	19322.1
1679.90115	19135.7
1683.16801	18967.2
1686.43272	18854.8
1689.69527	18793.3
1692.95567	18734.3
1696.2139	18659.9
1699.46999	18612.4
1702.72392	18596.7
1705.97571	18587.9
1709.22535	18548
1712.47284	18508.4
1715.71819	18514.3
1718.96139	18478.5
1722.20246	18413.3
1725.44139	18359.5
1728.67818	18274
1731.91284	18255.7
1735.14537	18144.8
1738.37576	18066.4
1741.60403	17978.2
1744.83017	17973.7
1748.05418	17938.8
1751.27607	17961.4
1754.49584	17912.7
1757.71349	17830.4
1760.92903	17831.1
1764.14244	17749.6
1767.35375	17789.7
1770.56294	17761.7
1773.77002	17723.6
1776.97499	17687.3
1780.17785	17714.4
1783.37861	17671.6
1786.57727	17649.6
1789.77382	17584.1
1792.96828	17544.4
1796.16064	17520
1799.3509	17483.4
1802.53907	17437.3
1805.72514	17352
1808.90913	17376
1812.09102	17371.3
1815.27083	17316.3
1818.44856	17300.9
1821.6242	17256.8
1824.79776	17265.1
1827.96924	17193.1
1831.13864	17175.3
1834.30597	17182.4
1837.47122	17130.8
1840.6344	17138.5
1843.7955	17086.3
1846.95454	17059.8
1850.11151	17057.8
1853.26642	17067.7
1856.41926	17063.3
1859.57004	17054.4
1862.71876	17034.4
1865.86542	17008.6
1869.01003	17039.4
1872.15258	16980.1
1875.29308	16969.1
1878.43152	16937.1
1881.56792	16887.5
1884.70227	16849.3
1887.83457	16826.5
1890.96482	16781.4
1894.09304	16772.5
1897.21921	16746.1
1900.34335	16723.4
1903.46544	16708.6
1906.58551	16684.5
1909.70353	16658.3
1912.81953	16656.6
1915.93349	16601
1919.04543	16600.6
1922.15534	16533.8
1925.26322	16497.9
1928.36908	16501.6
1931.47292	16453.6
1934.57473	16398.5
1937.67453	16357.1
1940.77232	16326
1943.86808	16283
1946.96184	16205.8
1950.05358	16169.3
1953.14331	16111.2
1956.23103	16079.5
1959.31675	15986.7
1962.40046	15953.5
1965.48217	15915.5
1968.56188	15857.7
1971.63959	15783.7
1974.7153	15728.1
1977.78901	15697.5
1980.86073	15669
1983.93046	15656.3
1986.99819	15511.7
1990.06394	15492.6
1993.1277	15473.9
1996.18947	15387.7
1999.24925	15357.3
2002.30706	15307.6
2005.36288	15253.1
2008.41672	15228.1
2011.46859	15164.6
2014.51848	15134.3
2017.56639	15105.1
2020.61233	15043.1
2023.6563	15002.9
2026.6983	14947.9
2029.73833	14878.8
2032.7764	14841.2
2035.8125	14795.8
2038.84664	14773.2
2041.87881	14751.7
2044.90903	14708.3
2047.93729	14696.6
2050.96359	14663.2
2053.98794	14636.8
2057.01034	14591.3
2060.03078	14590.6
2063.04927	14577.7
2066.06582	14592.4
2069.08042	14526.8
2072.09307	14517.1
2075.10378	14493.9
2078.11255	14521.2
2081.11938	14534.9
2084.12426	14522.9
2087.12722	14477.7
2090.12824	14469.5
2093.12732	14433.1
2096.12447	14455.7
2099.11969	14452.5
2102.11299	14479.4
2105.10435	14454.7
2108.09379	14441.4
2111.08131	14483.6
2114.0669	14471.3
2117.05057	14514.4
2120.03233	14535.2
2123.01216	14517.7
2125.99008	14508
2128.96609	14518.5
2131.94018	14511.8
2134.91236	14528.2
2137.88263	14564.3
2140.851	14570.5
2143.81746	14543.2
2146.78201	14524.3
2149.74466	14505.1
2152.7054	14533.8
2155.66425	14510.5
2158.6212	14454.6
2161.57625	14455
2164.52941	14464.5
2167.48067	14471.1
2170.43004	14458.2
2173.37752	14471.1
2176.32311	14468.1
2179.26681	14441.3
2182.20863	14442
2185.14856	14439.3
2188.08661	14405.3
2191.02278	14390
2193.95707	14368.7
2196.88948	14398.9
2199.82001	14411.6
2202.74867	14337.8
2205.67545	14321.4
2208.60037	14270.9
2211.52341	14233.2
2214.44458	14216.2
2217.36388	14160.3
2220.28132	14127.5
2223.1969	14113.7
2226.11061	14109.5
2229.02246	14055
2231.93245	14016.8
2234.84058	14022.8
2237.74686	14033.6
2240.65128	13998.4
2243.55385	13951.5
2246.45456	13925.8
2249.35343	13892.5
2252.25044	13860.1
2255.14561	13850.1
2258.03893	13809.1
2260.93041	13799.9
2263.82004	13740.3
2266.70783	13699.7
2269.59378	13682.9
2272.4779	13637.5
2275.36017	13584
2278.24061	13545.7
2281.11922	13495.1
2283.996	13500.2
2286.87094	13491.7
2289.74405	13465.3
2292.61534	13418.1
2295.4848	13382.9
2298.35243	13388.1
2301.21824	13411.4
2304.08223	13364.4
2306.94439	13327.2
2309.80474	13320.6
2312.66327	13337.4
2315.51999	13296.8
2318.37489	13305.2
2321.22797	13281
2324.07925	13218.8
2326.92871	13184
2329.77637	13175.5
2332.62222	13149.1
2335.46626	13124
2338.3085	13098.9
2341.14893	13067
2343.98756	13059.3
2346.8244	13019
2349.65943	13028.4
2352.49267	13013.4
2355.32411	12995.3
2358.15376	12988.7
2360.98161	12976.4
2363.80768	12982.4
2366.63195	12999.2
2369.45444	12960.1
2372.27514	12941
2375.09405	12909.2
2377.91118	12883.6
2380.72652	12855.6
2383.54009	12830.6
2386.35187	12804
2389.16188	12750.8
2391.97011	12720
2394.77657	12682.1
2397.58125	12646.7
2400.38416	12647.4
2403.18529	12593.7
2405.98466	12583.9
2408.78226	12573.8
2411.57809	12532.3
2414.37216	12517.2
2417.16446	12543.8
2419.955	12500.9
2422.74378	12524.9
2425.5308	12489.4
2428.31606	12477.1
2431.09956	12469.3
2433.88131	12412.7
2436.6613	12425.1
2439.43954	12409.9
2442.21603	12409.1
2444.99077	12353
2447.76377	12366.5
2450.53501	12346.8
2453.30451	12315.7
2456.07226	12274.1
2458.83827	12273.8
2461.60254	12261.5
2464.36507	12235.8
2467.12586	12221.1
2469.88492	12197
2472.64224	12179.4
2475.39782	12173
2478.15167	12191.8
2480.90379	12201.1
2483.65417	12160.7
2486.40283	12156.6
2489.14976	12152.1
2491.89497	12118.1
2494.63845	12099.9
2497.3802	12090.7
2500.12024	12109.7
2502.85855	12061.8
2505.59514	12054.8
2508.33002	12036.1
2511.06318	11987.6
2513.79462	11996.4
2516.52435	11970.9
2519.25237	11974.7
2521.97867	11947.6
2524.70327	11911.4
2527.42616	11912.7
2530.14734	11857.8
2532.86681	11855.8
2535.58458	11810.7
2538.30065	11827.3
2541.01501	11809.2
2543.72768	11778.4
2546.43864	11723
2549.14791	11705.7
2551.85548	11700.6
2554.56136	11702.1
2557.26554	11676.9
2559.96803	11629.5
2562.66883	11604.3
2565.36794	11555.2
2568.06536	11533
2570.7611	11505.5
2573.45514	11510.7
2576.14751	11495
2578.83819	11467.2
2581.52719	11421
2584.21451	11404.9
2586.90015	11400.5
2589.58411	11368.4
2592.2664	11356.2
2594.94701	11307.3
2597.62594	11266.2
2600.30321	11236.9
2602.9788	11202.7
2605.65273	11193.9
2608.32498	11222.5
2610.99557	11206.6
2613.66449	11187.5
2616.33175	11181.3
2618.99734	11174.9
2621.66128	11112.6
2624.32355	11121.1
2626.98416	11083.3
2629.64311	11064.8
2632.30041	11073.9
2634.95605	11033
2637.61004	11015.8
2640.26238	11000.2
2642.91306	10992.5
2645.56209	10981.5
2648.20948	10955.2
2650.85521	10956.6
2653.4993	10953
2656.14175	10940.4
2658.78255	10934.8
2661.42171	10903.3
2664.05923	10940.9
2666.6951	10912.7
2669.32934	10941.2
2671.96194	10914
2674.59291	10896.5
2677.22224	10882.8
2679.84993	10891.5
2682.476	10853.4
2685.10043	10884.2
2687.72324	10890.5
2690.34441	10867.6
2692.96396	10843.5
2695.58188	10855.7
2698.19818	10830.4
2700.81285	10800
2703.4259	10810.9
2706.03733	10820.2
2708.64714	10825.7
2711.25533	10819.4
2713.86191	10781.6
2716.46687	10784.6
2719.07021	10800.1
2721.67194	10800
2724.27206	10776.2
2726.87057	10813.9
2729.46747	10794.4
2732.06276	10779.2
2734.65644	10795.9
2737.24852	10783.3
2739.83899	10757.5
2742.42786	10752.9
2745.01513	10707.4
2747.60079	10699
2750.18486	10693.8
2752.76733	10691.7
2755.3482	10639.8
2757.92747	10623.8
2760.50515	10636.8
2763.08123	10617.7
2765.65573	10575.2
2768.22863	10559.3
2770.79994	10524
2773.36967	10522
2775.9378	10508.1
2778.50435	10476.6
2781.06932	10487.7
2783.6327	10472.4
2786.1945	10470
2788.75471	10438
2791.31335	10390.9
2793.87041	10393.3
2796.42589	10363.3
2798.97979	10324.8
2801.53212	10304.9
2804.08288	10278.8
2806.63206	10260.2
2809.17967	10214.5
2811.72571	10211.4
2814.27018	10163.9
2816.81308	10134
2819.35442	10097.5
2821.89419	10051.3
2824.43239	10072.9
2826.96904	10061.7
2829.50412	10034.5
2832.03763	10016.4
2834.56959	10019.7
2837.1	9997.9
2839.62884	9949.7
2842.15613	9931.5
2844.68186	9964.6
2847.20604	9936.9
2849.72867	9921
2852.24974	9939.7
2854.76927	9917.5
2857.28724	9892.1
2859.80367	9898
2862.31855	9831.3
2864.83189	9818.4
2867.34368	9844.8
2869.85393	9815
2872.36264	9770.6
2874.8698	9781.1
2877.37543	9784.4
2879.87952	9795.2
2882.38207	9777.8
2884.88308	9734.6
2887.38256	9733.5
2889.88051	9720.1
2892.37692	9723.9
2894.8718	9722.8
2897.36515	9715.7
2899.85698	9699.4
2902.34727	9734.7
2904.83604	9701.1
2907.32328	9737.6
2909.809	9729.8
2912.29319	9717.6
2914.77587	9694.7
2917.25702	9732.3
2919.73665	9682.6
2922.21476	9660.5
2924.69136	9676.9
2927.16644	9674.6
2929.64	9632.7
2932.11205	9625
2934.58258	9629.2
2937.05161	9628.8
2939.51912	9606.1
2941.98513	9599.9
2944.44962	9599.9
2946.91261	9559.9
2949.37409	9574.3
2951.83407	9562
2954.29254	9539.4
2956.74951	9521.9
2959.20498	9500.2
2961.65895	9503.7
2964.11142	9513.7
2966.56239	9517.7
2969.01186	9475.9
2971.45984	9500
2973.90632	9502.8
2976.35131	9480.1
2978.7948	9446
2981.23681	9445.1
2983.67732	9424.8
2986.11635	9390.1
2988.55388	9371.5
2990.98993	9396.3
2993.4245	9374.7
2995.85758	9330.8
2998.28917	9325
3000.71928	9299.1
3003.14791	9250.3
3005.57506	9245.2
3008.00073	9229.4
3010.42493	9222.3
3012.84764	9195.5
3015.26888	9199.6
3017.68865	9151
3020.10694	9123.7
3022.52376	9124.6
3024.9391	9143.3
3027.35298	9107.2
3029.76539	9090.5
3032.17632	9103.2
3034.5858	9076.1
3036.9938	9053.7
3039.40034	9046.9
3041.80542	9040.4
3044.20903	9012.9
3046.61118	9019
3049.01187	8992.3
3051.4111	8992.4
3053.80888	8985.8
3056.20519	8963.5
3058.60005	8928.7
3060.99345	8942.3
3063.3854	8890.2
3065.7759	8864.1
3068.16494	8836.9
3070.55254	8809.2
3072.93868	8796.9
3075.32338	8765.7
3077.70662	8764.5
3080.08842	8733.1
3082.46878	8702.3
3084.84769	8710
3087.22515	8724.5
3089.60118	8731.2
3091.97576	8735.1
3094.3489	8728
3096.72061	8721.6
3099.09087	8734.6
3101.4597	8706.3
3103.82709	8729.5
3106.19305	8721.8
3108.55757	8711
3110.92066	8695.7
3113.28232	8673.7
3115.64255	8648.4
3118.00134	8646.6
3120.35871	8613.6
3122.71466	8578
3125.06917	8604
3127.42226	8576.2
3129.77393	8597.6
3132.12417	8570.2
3134.47299	8550.5
3136.82039	8553.2
3139.16636	8545.2
3141.51092	8543.2
3143.85406	8547.2
3146.19579	8519.8
3148.53609	8553.2
3150.87499	8575.5
3153.21246	8548.5
3155.54853	8554.1
3157.88318	8553.8
3160.21642	8580.3
3162.54826	8576.9
3164.87868	8571.7
3167.2077	8559.2
3169.5353	8579.3
3171.86151	8573.1
3174.18631	8576.5
3176.5097	8564.9
3178.83169	8524.1
3181.15228	8523.4
3183.47147	8506
3185.78926	8507
3188.10565	8466.4
3190.42065	8476.1
3192.73424	8490.3
3195.04645	8474.2
3197.35725	8461.1
3199.66667	8465.2
3201.97469	8449.3
3204.28132	8450.8
3206.58656	8445.3
3208.8904	8469
3211.19287	8437.1
3213.49394	8445.2
3215.79363	8472.1
3218.09193	8469.2
3220.38884	8433.2
3222.68438	8459.3
3224.97853	8463.8
3227.2713	8433.8
3229.56269	8427.7
3231.8527	8431.4
3234.14133	8415.4
3236.42858	8403.2
3238.71446	8391.8
3240.99896	8364.5
3243.28209	8331.9
3245.56384	8321.8
3247.84423	8327.5
3250.12324	8296.5
3252.40088	8299.6
3254.67715	8283.3
3256.95205	8267.9
3259.22558	8256.5
3261.49775	8246.8
3263.76855	8235.1
3266.03799	8213.6
3268.30606	8225
3270.57277	8211.7
3272.83812	8184.8
3275.10211	8160.5
3277.36474	8149.4
3279.62601	8123.4
3281.88593	8119.6
3284.14448	8114.2
3286.40168	8095.3
3288.65753	8096.4
3290.91202	8084.9
3293.16516	8054.8
3295.41695	8044.1
3297.66738	8034
3299.91647	7985.7
3302.16421	7939.4
3304.4106	7897.6
3306.65564	7875.9
3308.89933	7807.9
3311.14169	7775.8
3313.38269	7696
3315.62236	7670.9
3317.86068	7599.3
3320.09766	7547.1
3322.3333	7500.9
3324.5676	7471.5
3326.80056	7388.7
3329.03219	7338.7
3331.26248	2.4
3333.49143	1.3
3335.71905	-1
