Data from AgNPs_APTES_FTO_UA_50uM_CRN_0uM_R6G_10uM_Scan_RamanShift__31__11-47-13-691.txt Node

Date: Tue Jul 05 11:47:13 BST 2022
User: TCL
Spectrometer: QEP01345
Trigger mode: 4
Integration Time (sec): 7.000000E0
Scans to average: 10
Electric dark correction enabled: true
Nonlinearity correction enabled: false
Boxcar width: 0
XAxis mode: Raman Shifts
Number of Pixels in Spectrum: 1044
>>>>>Begin Spectral Data<<<<<
46.04893	0.2
50.45542	-0.2
54.85868	0.7
59.25871	0.1
63.6555	36.8
68.04907	41.6
72.43941	44.4
76.82654	48.8
81.21044	49.2
85.59113	49.3
89.96862	50.4
94.34289	55.9
98.71396	59.8
103.08183	58.3
107.4465	54.7
111.80798	58.9
116.16626	58.6
120.52136	61.8
124.87327	60.4
129.222	63.2
133.56755	64.5
137.90993	62.6
142.24913	66.1
146.58517	73.2
150.91804	80.6
155.24774	90.4
159.57429	108.2
163.89768	131.3
168.21792	168.8
172.53501	219.4
176.84895	295.8
181.15975	408.9
185.46741	560.5
189.77193	756.6
194.07331	1012.6
198.37157	1288.4
202.6667	1593.1
206.9587	1872.8
211.24758	2173
215.53334	2454.8
219.81599	2757.3
224.09553	3088.8
228.37195	3455.2
232.64527	3842
236.91549	4227.5
241.18261	4591.1
245.44663	4944.2
249.70755	5211.1
253.96539	5435.1
258.22014	5654.2
262.4718	5795.6
266.72039	5907.7
270.96589	5941.2
275.20832	5924.9
279.44768	5858.4
283.68397	5760
287.91719	5672.7
292.14735	5641.9
296.37445	5666.8
300.59849	5762.7
304.81948	5875.6
309.03742	5944.1
313.25231	5959.8
317.46415	5751.9
321.67296	5506
325.87872	5269
330.08145	5145.5
334.28114	5123.5
338.47781	5160.1
342.67145	5251.4
346.86207	5384.5
351.04966	5560.2
355.23424	5810.9
359.4158	6022.8
363.59435	6137
367.76989	6232.5
371.94243	6295.2
376.11196	6318.6
380.27849	6345.4
384.44203	6355.5
388.60257	6331
392.76012	6323.6
396.91468	6335
401.06626	6422.4
405.21485	6469
409.36047	6384.4
413.50311	6143.2
417.64277	5947.2
421.77947	5811.1
425.9132	5742.2
430.04396	5739.8
434.17176	5776.9
438.2966	5848.2
442.41849	5956.2
446.53742	6066.9
450.6534	6198.2
454.76644	6244.6
458.87653	6238.1
462.98368	6182.5
467.08789	6133.9
471.18916	6108.9
475.2875	6044.4
479.38291	6026.6
483.4754	6074.8
487.56496	6189.8
491.6516	6275
495.73531	6377.5
499.81612	6359.5
503.89401	6285.6
507.96899	6243.5
512.04106	6248.2
516.11023	6334.2
520.1765	6435.5
524.23987	6480.9
528.30034	6485.2
532.35792	6420.4
536.41261	6322.1
540.46441	6148.1
544.51333	6040.7
548.55936	5968.6
552.60252	5984.1
556.64279	6013.5
560.6802	6036.6
564.71473	6053
568.7464	6146
572.7752	6246.9
576.80114	6164.9
580.82422	6086.1
584.84444	6127.8
588.86181	6272.5
592.87633	6412.9
596.888	6486.1
600.89682	6557.9
604.9028	6910.2
608.90594	8150.3
612.90624	9771.4
616.90371	9620.5
620.89834	7962.4
624.89015	7348.5
628.87913	7624.4
632.86528	8087.3
636.84862	8363
640.82913	8232.1
644.80683	7733.2
648.78172	7208.1
652.75379	6776.1
656.72306	6619
660.68952	6571.8
664.65319	6402.4
668.61405	6142
672.57211	6046.4
676.52738	6049.5
680.47986	6035.7
684.42955	6017.7
688.37646	5982.5
692.32058	5941.9
696.26192	5936.3
700.20048	5938.3
704.13626	5951.5
708.06928	5939.7
711.99952	5911.3
715.927	5913.4
719.85171	6001.2
723.77365	6082.3
727.69284	6075.4
731.60928	6038
735.52295	5966.7
739.43388	5901.5
743.34206	5890.8
747.24749	5887.5
751.15017	5885.1
755.05012	5897.5
758.94733	6040.6
762.8418	6429.5
766.73354	7082
770.62254	7837.9
774.50882	8273.3
778.39237	8052.9
782.27321	7287.8
786.15132	6513.6
790.02671	6057.2
793.89938	5882.6
797.76935	5855.4
801.6366	5970.5
805.50115	6180.4
809.36299	6398.4
813.22213	6460.2
817.07857	6343.8
820.93231	6150.9
824.78336	5905.8
828.63172	5746.2
832.47738	5650.6
836.32036	5585.2
840.16066	5548.8
843.99827	5536.9
847.8332	5524.4
851.66546	5522.5
855.49504	5488.2
859.32195	5496.5
863.1462	5520.7
866.96777	5563.6
870.78668	5676.4
874.60293	5842.1
878.41652	6023.5
882.22745	6203.6
886.03573	6309.1
889.84136	6298.1
893.64433	6164.6
897.44466	5952.1
901.24235	5756.5
905.0374	5582
908.8298	5481.8
912.61957	5400.4
916.40671	5358.2
920.19121	5346.2
923.97308	5359.6
927.75233	5392.8
931.52895	5418.8
935.30295	5383.8
939.07433	5257.8
942.84309	5166
946.60924	5079.7
950.37278	5036.8
954.13371	5000.5
957.89203	4969.1
961.64774	4955.3
965.40086	4895.7
969.15137	4890.2
972.89929	4857.1
976.64461	4856.1
980.38733	4837.6
984.12747	4804.5
987.86502	4814.8
991.59999	4853.7
995.33237	4909.5
999.06217	4996.1
1002.78939	5110.8
1006.51404	5233.3
1010.23611	5341.7
1013.95561	5453.2
1017.67255	5475.1
1021.38692	5401.1
1025.09872	5296.8
1028.80796	5178.2
1032.51465	5037.4
1036.21877	4987.5
1039.92035	4938.7
1043.61937	4923.6
1047.31584	4926.3
1051.00976	4967.3
1054.70114	4944.4
1058.38998	4988.8
1062.07627	5056.5
1065.76003	5122.5
1069.44126	5150.4
1073.11995	5175.2
1076.79611	5218.4
1080.46974	5240.1
1084.14085	5268.6
1087.80943	5281.5
1091.47549	5281.5
1095.13903	5177.7
1098.80005	5014.2
1102.45857	4910.5
1106.11456	4886.9
1109.76805	4941.8
1113.41903	5097.5
1117.06751	5330
1120.71348	5678.3
1124.35696	6149.7
1127.99793	6668.7
1131.63641	7034.9
1135.2724	7098.4
1138.90589	6948.3
1142.5369	6661.5
1146.16542	6256.5
1149.79145	5852.9
1153.415	5464.1
1157.03607	5208.4
1160.65467	5061.9
1164.27079	5075.9
1167.88443	5171.9
1171.49561	5424.1
1175.10432	5897.3
1178.71056	6571.4
1182.31434	7212.7
1185.91565	7467.4
1189.51451	7423.3
1193.11091	7245.9
1196.70485	7091.9
1200.29634	7016.3
1203.88538	6889.7
1207.47197	6591.7
1211.05612	6245.1
1214.63782	5911.3
1218.21708	5672
1221.79391	5483.8
1225.36829	5339
1228.94024	5214.8
1232.50976	5112.8
1236.07685	5045.8
1239.6415	5028.3
1243.20374	5045.7
1246.76355	5058.4
1250.32093	5123.1
1253.8759	5178.2
1257.42845	5282.5
1260.97859	5399.6
1264.52631	5526.5
1268.07163	5632.7
1271.61453	5698.9
1275.15503	5733.4
1278.69312	5709.8
1282.22882	5676.2
1285.76211	5736.4
1289.29301	5883.8
1292.82151	6046.6
1296.34761	6259.3
1299.87133	6529.8
1303.39266	6963
1306.9116	7603.4
1310.42815	8401.6
1313.94233	8872.2
1317.45412	8774.5
1320.96354	8251.1
1324.47058	7608.4
1327.97525	7033.2
1331.47754	6675.9
1334.97747	6564.2
1338.47502	6634.5
1341.97022	6793.6
1345.46305	7094.4
1348.95352	7582.3
1352.44163	8270.5
1355.92738	9211.1
1359.41078	10413.7
1362.89183	11569.2
1366.37053	11546.1
1369.84688	10116.6
1373.32088	8568.2
1376.79254	7502
1380.26186	6923.7
1383.72883	6607.9
1387.19347	6353.9
1390.65578	6060.4
1394.11575	5827
1397.57339	5664.8
1401.0287	5553.2
1404.48168	5437.4
1407.93234	5339.2
1411.38068	5239.9
1414.82669	5154.6
1418.27039	5040.6
1421.71177	4955.4
1425.15083	4885.8
1428.58758	4825.2
1432.02203	4819
1435.45416	4838
1438.88399	4862.6
1442.31151	4874.7
1445.73673	4857.7
1449.15965	4852.4
1452.58027	4830.3
1455.9986	4766.1
1459.41463	4718.8
1462.82837	4736.3
1466.23982	4814.3
1469.64898	4916.2
1473.05586	4993.2
1476.46045	5052.8
1479.86276	5146.7
1483.26279	5281.9
1486.66054	5419
1490.05602	5604.9
1493.44922	5842.5
1496.84016	6194.9
1500.22882	6764.1
1503.61521	7524.4
1506.99934	8450.8
1510.38121	9272.8
1513.76081	9658.7
1517.13816	9243.9
1520.51324	8185.9
1523.88607	7130.3
1527.25665	6368
1530.62498	5987.8
1533.99105	5798.5
1537.35488	5718.1
1540.71647	5659.9
1544.07581	5686.4
1547.4329	5704.3
1550.78776	5750.9
1554.14038	5772.1
1557.49077	5827.8
1560.83892	5895.5
1564.18484	5978.1
1567.52853	6153.8
1570.86999	6311.8
1574.20922	6451.2
1577.54624	6432.7
1580.88103	6225.4
1584.2136	5847
1587.54395	5558.8
1590.87208	5493
1594.19801	5618.6
1597.52172	5944.8
1600.84321	6135.9
1604.16251	6109.9
1607.47959	5935.2
1610.79447	5696.3
1614.10715	5448.1
1617.41763	5280.9
1620.7259	5169
1624.03199	5127.9
1627.33587	5153.3
1630.63757	5241.4
1633.93707	5418.5
1637.23439	5694.7
1640.52951	6157.4
1643.82246	6820.5
1647.11321	7623
1650.40179	8272.4
1653.68819	8253.5
1656.97241	7533.3
1660.25446	6585
1663.53433	5813.2
1666.81203	5260.6
1670.08756	4841.1
1673.36092	4581.7
1676.63211	4375.7
1679.90115	4211.8
1683.16801	4089.9
1686.43272	3982.7
1689.69527	3889.9
1692.95567	3805.9
1696.2139	3727
1699.46999	3663.3
1702.72392	3565.8
1705.97571	3481.6
1709.22535	3410.4
1712.47284	3334.1
1715.71819	3295
1718.96139	3251.8
1722.20246	3210.9
1725.44139	3180.5
1728.67818	3133.7
1731.91284	3102.3
1735.14537	3065.3
1738.37576	3037.9
1741.60403	3010.1
1744.83017	2996.3
1748.05418	2968
1751.27607	2954.4
1754.49584	2957.5
1757.71349	2928.5
1760.92903	2899.7
1764.14244	2899.6
1767.35375	2891.9
1770.56294	2873.2
1773.77002	2852.6
1776.97499	2846.2
1780.17785	2844.5
1783.37861	2825
1786.57727	2817.4
1789.77382	2801
1792.96828	2789.1
1796.16064	2776.5
1799.3509	2766.4
1802.53907	2759.2
1805.72514	2745.3
1808.90913	2731.4
1812.09102	2718.3
1815.27083	2704.2
1818.44856	2701.2
1821.6242	2693.7
1824.79776	2681
1827.96924	2660.7
1831.13864	2665.3
1834.30597	2663.3
1837.47122	2657.7
1840.6344	2638.1
1843.7955	2626.3
1846.95454	2627.6
1850.11151	2620.7
1853.26642	2608.1
1856.41926	2609.5
1859.57004	2604.8
1862.71876	2598.2
1865.86542	2588.5
1869.01003	2593.2
1872.15258	2576.3
1875.29308	2569.4
1878.43152	2554.1
1881.56792	2558.8
1884.70227	2563.8
1887.83457	2543.1
1890.96482	2540.4
1894.09304	2531.6
1897.21921	2523.5
1900.34335	2515.1
1903.46544	2505.8
1906.58551	2513.7
1909.70353	2505.4
1912.81953	2495.8
1915.93349	2481.2
1919.04543	2473.8
1922.15534	2482.9
1925.26322	2458.1
1928.36908	2465.8
1931.47292	2449.2
1934.57473	2440
1937.67453	2424.1
1940.77232	2408.5
1943.86808	2400.6
1946.96184	2401.6
1950.05358	2378.6
1953.14331	2376.4
1956.23103	2371.1
1959.31675	2356.6
1962.40046	2354.6
1965.48217	2331.1
1968.56188	2327
1971.63959	2323.8
1974.7153	2312.4
1977.78901	2304.2
1980.86073	2291.3
1983.93046	2284.2
1986.99819	2272.7
1990.06394	2264.1
1993.1277	2250.1
1996.18947	2241.6
1999.24925	2239.6
2002.30706	2217.7
2005.36288	2211.5
2008.41672	2195.5
2011.46859	2196.2
2014.51848	2189.1
2017.56639	2188.2
2020.61233	2171.2
2023.6563	2174
2026.6983	2145.5
2029.73833	2142.2
2032.7764	2129.7
2035.8125	2122.9
2038.84664	2120.5
2041.87881	2111.2
2044.90903	2110.7
2047.93729	2108.7
2050.96359	2104.6
2053.98794	2109.9
2057.01034	2091.7
2060.03078	2097.1
2063.04927	2093.7
2066.06582	2086.3
2069.08042	2084.6
2072.09307	2070.2
2075.10378	2063.7
2078.11255	2073.2
2081.11938	2073.4
2084.12426	2068.6
2087.12722	2060.4
2090.12824	2059
2093.12732	2058.5
2096.12447	2045.3
2099.11969	2045.7
2102.11299	2043.3
2105.10435	2035.8
2108.09379	2047
2111.08131	2036.1
2114.0669	2050.3
2117.05057	2049.4
2120.03233	2043
2123.01216	2038.1
2125.99008	2040.7
2128.96609	2041.3
2131.94018	2031.1
2134.91236	2041
2137.88263	2048.4
2140.851	2038.1
2143.81746	2036.2
2146.78201	2016.6
2149.74466	2028.7
2152.7054	2009.7
2155.66425	2010.6
2158.6212	2000.5
2161.57625	2016
2164.52941	1995.9
2167.48067	1999.4
2170.43004	2005.5
2173.37752	1999.1
2176.32311	1988.6
2179.26681	1987.1
2182.20863	1987.8
2185.14856	1986.8
2188.08661	1974.8
2191.02278	1965.5
2193.95707	1981.1
2196.88948	1971.5
2199.82001	1965.7
2202.74867	1955.6
2205.67545	1952.1
2208.60037	1947.7
2211.52341	1935.4
2214.44458	1943.1
2217.36388	1927
2220.28132	1922.1
2223.1969	1913.5
2226.11061	1913
2229.02246	1899.2
2231.93245	1891
2234.84058	1896.2
2237.74686	1899.7
2240.65128	1881.2
2243.55385	1892.6
2246.45456	1875.1
2249.35343	1863.3
2252.25044	1873.3
2255.14561	1865.7
2258.03893	1859.3
2260.93041	1854.1
2263.82004	1861.2
2266.70783	1845.7
2269.59378	1843.5
2272.4779	1831.5
2275.36017	1843
2278.24061	1823.5
2281.11922	1814
2283.996	1815.5
2286.87094	1806.6
2289.74405	1792.9
2292.61534	1795.5
2295.4848	1769.7
2298.35243	1779.3
2301.21824	1786
2304.08223	1770.3
2306.94439	1766.2
2309.80474	1766.1
2312.66327	1771.2
2315.51999	1764.4
2318.37489	1749.9
2321.22797	1762
2324.07925	1743.5
2326.92871	1739.3
2329.77637	1745.7
2332.62222	1732.5
2335.46626	1722.1
2338.3085	1718.3
2341.14893	1719.4
2343.98756	1717.8
2346.8244	1708.4
2349.65943	1711.4
2352.49267	1713.7
2355.32411	1709.2
2358.15376	1713.8
2360.98161	1715.6
2363.80768	1716.7
2366.63195	1716.6
2369.45444	1724.4
2372.27514	1722.5
2375.09405	1718.2
2377.91118	1718.1
2380.72652	1693.6
2383.54009	1697.2
2386.35187	1688.4
2389.16188	1679
2391.97011	1673.3
2394.77657	1661.8
2397.58125	1650.8
2400.38416	1653.8
2403.18529	1649.4
2405.98466	1644.8
2408.78226	1634.1
2411.57809	1622.6
2414.37216	1627.9
2417.16446	1622
2419.955	1621.5
2422.74378	1621.1
2425.5308	1620.8
2428.31606	1618.9
2431.09956	1599.2
2433.88131	1603.8
2436.6613	1598
2439.43954	1601
2442.21603	1596
2444.99077	1593.3
2447.76377	1590.9
2450.53501	1590.3
2453.30451	1578.7
2456.07226	1582.3
2458.83827	1584.3
2461.60254	1584.3
2464.36507	1581.9
2467.12586	1573.9
2469.88492	1562.8
2472.64224	1566.3
2475.39782	1568.5
2478.15167	1567.2
2480.90379	1563.1
2483.65417	1573.3
2486.40283	1580.1
2489.14976	1567.2
2491.89497	1576.9
2494.63845	1573.2
2497.3802	1570
2500.12024	1563.4
2502.85855	1557.5
2505.59514	1563.1
2508.33002	1550.6
2511.06318	1532.4
2513.79462	1527.5
2516.52435	1520.5
2519.25237	1515.5
2521.97867	1513.1
2524.70327	1510.8
2527.42616	1493.9
2530.14734	1495
2532.86681	1492.8
2535.58458	1481.4
2538.30065	1489.5
2541.01501	1479.8
2543.72768	1482.7
2546.43864	1471.3
2549.14791	1467.4
2551.85548	1473.1
2554.56136	1467.3
2557.26554	1464.2
2559.96803	1469.5
2562.66883	1454.9
2565.36794	1452.7
2568.06536	1451.1
2570.7611	1445.5
2573.45514	1444.6
2576.14751	1447
2578.83819	1429.2
2581.52719	1428.1
2584.21451	1422.9
2586.90015	1414.4
2589.58411	1418.8
2592.2664	1416.8
2594.94701	1406.1
2597.62594	1406
2600.30321	1399.3
2602.9788	1399.2
2605.65273	1394.4
2608.32498	1398.4
2610.99557	1397.8
2613.66449	1392.7
2616.33175	1391.3
2618.99734	1389.8
2621.66128	1379.1
2624.32355	1381.8
2626.98416	1390.3
2629.64311	1374.9
2632.30041	1374.6
2634.95605	1369.3
2637.61004	1367.5
2640.26238	1360.9
2642.91306	1361.7
2645.56209	1360.6
2648.20948	1366.9
2650.85521	1353.9
2653.4993	1360.6
2656.14175	1350.6
2658.78255	1349.4
2661.42171	1363.6
2664.05923	1349.6
2666.6951	1360.3
2669.32934	1345.1
2671.96194	1352.8
2674.59291	1360.9
2677.22224	1354.4
2679.84993	1351.1
2682.476	1355.2
2685.10043	1346.2
2687.72324	1350.3
2690.34441	1355.3
2692.96396	1352.3
2695.58188	1343
2698.19818	1347
2700.81285	1351.5
2703.4259	1356.2
2706.03733	1357.9
2708.64714	1347.6
2711.25533	1356
2713.86191	1346.2
2716.46687	1356.3
2719.07021	1362.1
2721.67194	1359.3
2724.27206	1363.8
2726.87057	1368.7
2729.46747	1360.6
2732.06276	1367.3
2734.65644	1364.4
2737.24852	1352.7
2739.83899	1345.9
2742.42786	1347.9
2745.01513	1343
2747.60079	1340.2
2750.18486	1340
2752.76733	1340.8
2755.3482	1337.3
2757.92747	1331.4
2760.50515	1324.1
2763.08123	1339
2765.65573	1327.8
2768.22863	1331.5
2770.79994	1324.1
2773.36967	1322.3
2775.9378	1330.3
2778.50435	1322.1
2781.06932	1321.6
2783.6327	1327.7
2786.1945	1333.7
2788.75471	1324.4
2791.31335	1325.8
2793.87041	1333.7
2796.42589	1320.6
2798.97979	1329.5
2801.53212	1322.2
2804.08288	1324.1
2806.63206	1313.3
2809.17967	1319.3
2811.72571	1324.4
2814.27018	1324.6
2816.81308	1320.3
2819.35442	1314.8
2821.89419	1310.2
2824.43239	1317.1
2826.96904	1318.2
2829.50412	1325.2
2832.03763	1322
2834.56959	1326.5
2837.1	1333.8
2839.62884	1328.6
2842.15613	1333.5
2844.68186	1348.3
2847.20604	1364.1
2849.72867	1379.7
2852.24974	1372.4
2854.76927	1382.5
2857.28724	1388.1
2859.80367	1383.4
2862.31855	1374.8
2864.83189	1381
2867.34368	1377.1
2869.85393	1372.7
2872.36264	1374.1
2874.8698	1378.6
2877.37543	1370.6
2879.87952	1383.5
2882.38207	1376.1
2884.88308	1369.9
2887.38256	1372.5
2889.88051	1366.2
2892.37692	1373.9
2894.8718	1370.2
2897.36515	1372.1
2899.85698	1377
2902.34727	1376.6
2904.83604	1369.4
2907.32328	1378.4
2909.809	1377.2
2912.29319	1384.9
2914.77587	1372.9
2917.25702	1385.6
2919.73665	1383.7
2922.21476	1382.2
2924.69136	1383.6
2927.16644	1378.2
2929.64	1372.6
2932.11205	1370.3
2934.58258	1353.9
2937.05161	1360
2939.51912	1353.8
2941.98513	1345.9
2944.44962	1335.8
2946.91261	1321.7
2949.37409	1303.6
2951.83407	1301.7
2954.29254	1286.1
2956.74951	1279.6
2959.20498	1280.7
2961.65895	1278.4
2964.11142	1278.1
2966.56239	1261.6
2969.01186	1226.5
2971.45984	1245.6
2973.90632	1260.5
2976.35131	1256.5
2978.7948	1248.1
2981.23681	1239.6
2983.67732	1242.7
2986.11635	1232.1
2988.55388	1232.6
2990.98993	1231.3
2993.4245	1232.4
2995.85758	1228.9
2998.28917	1224.8
3000.71928	1229.7
3003.14791	1218.3
3005.57506	1219.5
3008.00073	1213.3
3010.42493	1221.1
3012.84764	1222.4
3015.26888	1224.3
3017.68865	1218.5
3020.10694	1223.4
3022.52376	1222.5
3024.9391	1221.7
3027.35298	1224.9
3029.76539	1218.1
3032.17632	1225.2
3034.5858	1225.6
3036.9938	1218.6
3039.40034	1218.9
3041.80542	1228.1
3044.20903	1223
3046.61118	1227.3
3049.01187	1228.7
3051.4111	1235.1
3053.80888	1230.1
3056.20519	1235.4
3058.60005	1230.1
3060.99345	1228.3
3063.3854	1234.6
3065.7759	1238.3
3068.16494	1246.7
3070.55254	1235.3
3072.93868	1237.8
3075.32338	1243.6
3077.70662	1233.9
3080.08842	1241.4
3082.46878	1251.9
3084.84769	1244.7
3087.22515	1253.7
3089.60118	1260.7
3091.97576	1262.6
3094.3489	1261.4
3096.72061	1267
3099.09087	1270
3101.4597	1267.5
3103.82709	1277.7
3106.19305	1281.4
3108.55757	1292.1
3110.92066	1290.4
3113.28232	1304.6
3115.64255	1304.1
3118.00134	1304.4
3120.35871	1312.8
3122.71466	1313.3
3125.06917	1322.9
3127.42226	1321.1
3129.77393	1349.5
3132.12417	1340.4
3134.47299	1344.7
3136.82039	1358.2
3139.16636	1354.3
3141.51092	1374.5
3143.85406	1377.2
3146.19579	1387.1
3148.53609	1386.3
3150.87499	1394.2
3153.21246	1404.3
3155.54853	1415.5
3157.88318	1414.7
3160.21642	1433.8
3162.54826	1438.6
3164.87868	1448.4
3167.2077	1456.9
3169.5353	1463.8
3171.86151	1476.7
3174.18631	1479.8
3176.5097	1478.3
3178.83169	1482.5
3181.15228	1491.5
3183.47147	1486.4
3185.78926	1498.4
3188.10565	1505.9
3190.42065	1514.2
3192.73424	1516.5
3195.04645	1534
3197.35725	1528.1
3199.66667	1539.1
3201.97469	1536.4
3204.28132	1545.6
3206.58656	1551.6
3208.8904	1560.5
3211.19287	1560.5
3213.49394	1572
3215.79363	1575.6
3218.09193	1583.7
3220.38884	1586.4
3222.68438	1591.2
3224.97853	1593.6
3227.2713	1605.3
3229.56269	1604.2
3231.8527	1602.2
3234.14133	1594.2
3236.42858	1595.9
3238.71446	1598.6
3240.99896	1601.4
3243.28209	1590.4
3245.56384	1591.6
3247.84423	1595.4
3250.12324	1604.7
3252.40088	1602.7
3254.67715	1596.7
3256.95205	1601.3
3259.22558	1594
3261.49775	1599.1
3263.76855	1597.7
3266.03799	1597.6
3268.30606	1596.7
3270.57277	1585.5
3272.83812	1599.6
3275.10211	1594.8
3277.36474	1583.3
3279.62601	1582.4
3281.88593	1588.8
3284.14448	1584.9
3286.40168	1579.4
3288.65753	1586
3290.91202	1583.9
3293.16516	1575.5
3295.41695	1572.9
3297.66738	1566.3
3299.91647	1573.3
3302.16421	1551.9
3304.4106	1559.7
3306.65564	1544.9
3308.89933	1533.6
3311.14169	1529.7
3313.38269	1519.4
3315.62236	1512.2
3317.86068	1506.1
3320.09766	1486.9
3322.3333	1482.3
3324.5676	1476.5
3326.80056	1458.6
3329.03219	1450.4
3331.26248	0
3333.49143	-0.9
3335.71905	-0.4
