Data from AgNPs_APTES_FTO_UA_50uM_CRN_0uM_R6G_10uM_Scan_RamanShift__60__12-21-03-730.txt Node

Date: Tue Jul 05 12:21:03 BST 2022
User: TCL
Spectrometer: QEP01345
Trigger mode: 4
Integration Time (sec): 7.000000E0
Scans to average: 10
Electric dark correction enabled: true
Nonlinearity correction enabled: false
Boxcar width: 0
XAxis mode: Raman Shifts
Number of Pixels in Spectrum: 1044
>>>>>Begin Spectral Data<<<<<
46.04893	-0.1125
50.45542	-0.4125
54.85868	-1.1125
59.25871	-0.3125
63.6555	60.0875
68.04907	62.9875
72.43941	66.6875
76.82654	71.4875
81.21044	73.2875
85.59113	78.1875
89.96862	81.0875
94.34289	80.4875
98.71396	82.1875
103.08183	89.1875
107.4465	84.4875
111.80798	91.6875
116.16626	90.2875
120.52136	87.2875
124.87327	97.9875
129.222	98.3875
133.56755	104.3875
137.90993	105.7875
142.24913	114.2875
146.58517	128.6875
150.91804	141.3875
155.24774	165.3875
159.57429	200.0875
163.89768	251.5875
168.21792	330.6875
172.53501	447.2875
176.84895	619.3875
181.15975	857.2875
185.46741	1215.9875
189.77193	1676.3875
194.07331	2238.0875
198.37157	2880.7875
202.6667	3557.4875
206.9587	4227.0875
211.24758	4896.0875
215.53334	5516.1875
219.81599	6202.9875
224.09553	6933.3875
228.37195	7713.9875
232.64527	8629.8875
236.91549	9589.9875
241.18261	10611.4875
245.44663	11633.9875
249.70755	12554.8875
253.96539	13398.1875
258.22014	14035.4875
262.4718	14558.9875
266.72039	14871.5875
270.96589	14996.2875
275.20832	14972.0875
279.44768	14826.0875
283.68397	14576.4875
287.91719	14368.0875
292.14735	14157.9875
296.37445	14032.3875
300.59849	13923.8875
304.81948	13818.7875
309.03742	13782.2875
313.25231	13733.7875
317.46415	13638.7875
321.67296	13478.2875
325.87872	13448.9875
330.08145	13455.5875
334.28114	13508.3875
338.47781	13635.1875
342.67145	13779.8875
346.86207	13952.5875
351.04966	14126.4875
355.23424	14304.8875
359.4158	14515.9875
363.59435	14622.2875
367.76989	14773.9875
371.94243	14879.3875
376.11196	14951.2875
380.27849	15018.6875
384.44203	15152.8875
388.60257	15232.8875
392.76012	15306.6875
396.91468	15417.3875
401.06626	15568.5875
405.21485	15673.1875
409.36047	15695.8875
413.50311	15663.6875
417.64277	15619.1875
421.77947	15620.6875
425.9132	15702.9875
430.04396	15762.4875
434.17176	15865.2875
438.2966	15967.9875
442.41849	16116.0875
446.53742	16307.9875
450.6534	16468.8875
454.76644	16602.6875
458.87653	16752.3875
462.98368	16809.7875
467.08789	16830.2875
471.18916	16828.7875
475.2875	16782.1875
479.38291	16794.3875
483.4754	16774.0875
487.56496	16785.5875
491.6516	16752.5875
495.73531	16717.0875
499.81612	16717.2875
503.89401	16787.7875
507.96899	16829.0875
512.04106	16876.6875
516.11023	16883.6875
520.1765	16832.9875
524.23987	16767.9875
528.30034	16774.9875
532.35792	16728.0875
536.41261	16644.4875
540.46441	16591.9875
544.51333	16616.2875
548.55936	16692.1875
552.60252	16781.3875
556.64279	16917.6875
560.6802	17070.3875
564.71473	17180.1875
568.7464	17376.0875
572.7752	17587.6875
576.80114	17803.6875
580.82422	18028.4875
584.84444	18188.1875
588.86181	18397.7875
592.87633	18584.6875
596.888	18694.3875
600.89682	18644.1875
604.9028	18752.8875
608.90594	19198.0875
612.90624	19715.5875
616.90371	19153.9875
620.89834	18106.4875
624.89015	17654.4875
628.87913	17589.2875
632.86528	17625.7875
636.84862	17653.6875
640.82913	17523.0875
644.80683	17393.4875
648.78172	17262.7875
652.75379	17277.3875
656.72306	17373.7875
660.68952	17517.0875
664.65319	17582.4875
668.61405	17599.3875
672.57211	17633.8875
676.52738	17699.3875
680.47986	17743.5875
684.42955	17781.2875
688.37646	17811.0875
692.32058	17872.5875
696.26192	17923.9875
700.20048	17926.4875
704.13626	17983.2875
708.06928	17993.0875
711.99952	18004.3875
715.927	17972.9875
719.85171	17939.5875
723.77365	17883.4875
727.69284	17814.7875
731.60928	17752.1875
735.52295	17775.7875
739.43388	17730.6875
743.34206	17796.8875
747.24749	17850.4875
751.15017	17911.7875
755.05012	18071.6875
758.94733	18248.3875
762.8418	18506.5875
766.73354	18921.1875
770.62254	19419.3875
774.50882	19529.0875
778.39237	19378.3875
782.27321	18908.9875
786.15132	18492.8875
790.02671	18197.8875
793.89938	18024.9875
797.76935	17919.9875
801.6366	17930.4875
805.50115	17895.5875
809.36299	17885.8875
813.22213	17809.0875
817.07857	17815.7875
820.93231	17834.8875
824.78336	17840.2875
828.63172	17865.5875
832.47738	17832.0875
836.32036	17831.6875
840.16066	17868.1875
843.99827	17928.3875
847.8332	17942.6875
851.66546	17946.5875
855.49504	17935.7875
859.32195	17957.7875
863.1462	17987.0875
866.96777	17939.9875
870.78668	17962.9875
874.60293	18029.6875
878.41652	18042.1875
882.22745	18078.7875
886.03573	18125.8875
889.84136	18099.4875
893.64433	18087.9875
897.44466	18099.5875
901.24235	18094.5875
905.0374	18100.7875
908.8298	18090.2875
912.61957	18076.3875
916.40671	18123.0875
920.19121	18179.2875
923.97308	18212.5875
927.75233	18187.5875
931.52895	18185.0875
935.30295	18066.5875
939.07433	17900.9875
942.84309	17827.9875
946.60924	17767.0875
950.37278	17732.4875
954.13371	17668.6875
957.89203	17691.7875
961.64774	17684.5875
965.40086	17646.0875
969.15137	17622.2875
972.89929	17618.0875
976.64461	17598.8875
980.38733	17600.8875
984.12747	17565.5875
987.86502	17581.8875
991.59999	17625.1875
995.33237	17679.2875
999.06217	17759.4875
1002.78939	17864.7875
1006.51404	17932.2875
1010.23611	18103.4875
1013.95561	18183.0875
1017.67255	18198.3875
1021.38692	18092.8875
1025.09872	17996.5875
1028.80796	17917.3875
1032.51465	17837.6875
1036.21877	17864.1875
1039.92035	17887.7875
1043.61937	17929.4875
1047.31584	17978.9875
1051.00976	18010.8875
1054.70114	18034.4875
1058.38998	18115.9875
1062.07627	18207.9875
1065.76003	18277.8875
1069.44126	18321.4875
1073.11995	18427.9875
1076.79611	18549.0875
1080.46974	18635.1875
1084.14085	18662.1875
1087.80943	18621.9875
1091.47549	18755.5875
1095.13903	18727.9875
1098.80005	18677.4875
1102.45857	18592.6875
1106.11456	18531.6875
1109.76805	18422.4875
1113.41903	18357.3875
1117.06751	18334.8875
1120.71348	18383.0875
1124.35696	18429.4875
1127.99793	18542.4875
1131.63641	18615.0875
1135.2724	18572.6875
1138.90589	18558.4875
1142.5369	18532.7875
1146.16542	18537.9875
1149.79145	18537.0875
1153.415	18559.7875
1157.03607	18601.3875
1160.65467	18664.8875
1164.27079	18857.6875
1167.88443	19084.6875
1171.49561	19425.8875
1175.10432	19883.0875
1178.71056	20432.5875
1182.31434	20891.2875
1185.91565	21275.7875
1189.51451	21379.0875
1193.11091	21317.2875
1196.70485	21090.1875
1200.29634	20768.0875
1203.88538	20523.0875
1207.47197	20307.6875
1211.05612	20201.9875
1214.63782	20059.9875
1218.21708	19903.7875
1221.79391	19769.5875
1225.36829	19638.5875
1228.94024	19571.5875
1232.50976	19522.3875
1236.07685	19430.3875
1239.6415	19357.3875
1243.20374	19346.0875
1246.76355	19354.3875
1250.32093	19475.7875
1253.8759	19541.9875
1257.42845	19746.9875
1260.97859	19956.1875
1264.52631	20150.5875
1268.07163	20398.9875
1271.61453	20615.2875
1275.15503	20812.5875
1278.69312	20976.3875
1282.22882	21157.1875
1285.76211	21323.9875
1289.29301	21534.2875
1292.82151	21848.0875
1296.34761	22235.0875
1299.87133	22693.7875
1303.39266	23162.9875
1306.9116	23631.9875
1310.42815	24102.2875
1313.94233	24350.1875
1317.45412	24361.1875
1320.96354	24252.3875
1324.47058	24144.6875
1327.97525	23939.3875
1331.47754	23755.9875
1334.97747	23645.8875
1338.47502	23634.6875
1341.97022	23723.3875
1345.46305	23883.6875
1348.95352	23994.9875
1352.44163	23982.0875
1355.92738	23859.4875
1359.41078	23913.2875
1362.89183	23962.4875
1366.37053	23679.3875
1369.84688	22921.1875
1373.32088	22038.9875
1376.79254	21392.9875
1380.26186	21070.5875
1383.72883	20930.2875
1387.19347	20808.1875
1390.65578	20653.7875
1394.11575	20532.3875
1397.57339	20433.5875
1401.0287	20416.1875
1404.48168	20356.7875
1407.93234	20282.4875
1411.38068	20175.0875
1414.82669	19952.3875
1418.27039	19669.8875
1421.71177	19352.9875
1425.15083	19127.4875
1428.58758	18990.6875
1432.02203	18950.5875
1435.45416	19044.8875
1438.88399	19116.7875
1442.31151	19257.0875
1445.73673	19384.4875
1449.15965	19441.2875
1452.58027	19552.1875
1455.9986	19662.1875
1459.41463	19715.3875
1462.82837	19804.8875
1466.23982	19956.1875
1469.64898	20057.3875
1473.05586	20129.5875
1476.46045	20176.6875
1479.86276	20207.1875
1483.26279	20235.3875
1486.66054	20272.4875
1490.05602	20353.2875
1493.44922	20508.2875
1496.84016	20793.0875
1500.22882	21077.7875
1503.61521	21421.5875
1506.99934	21735.6875
1510.38121	21928.3875
1513.76081	21883.5875
1517.13816	21650.4875
1520.51324	21347.4875
1523.88607	21094.9875
1527.25665	20908.6875
1530.62498	20841.5875
1533.99105	20710.0875
1537.35488	20642.3875
1540.71647	20477.7875
1544.07581	20307.6875
1547.4329	20203.7875
1550.78776	20078.1875
1554.14038	20012.2875
1557.49077	20079.2875
1560.83892	20082.2875
1564.18484	20193.5875
1567.52853	20242.1875
1570.86999	20334.7875
1574.20922	20452.1875
1577.54624	20489.6875
1580.88103	20497.0875
1584.2136	20420.3875
1587.54395	20496.4875
1590.87208	20670.4875
1594.19801	20969.4875
1597.52172	21288.2875
1600.84321	21318.7875
1604.16251	21014.2875
1607.47959	20521.6875
1610.79447	19867.9875
1614.10715	19246.6875
1617.41763	18647.6875
1620.7259	18246.7875
1624.03199	18014.9875
1627.33587	17960.6875
1630.63757	18091.3875
1633.93707	18410.3875
1637.23439	18951.0875
1640.52951	19775.5875
1643.82246	20816.3875
1647.11321	21678.1875
1650.40179	21958.2875
1653.68819	21411.7875
1656.97241	20255.4875
1660.25446	19016.2875
1663.53433	18029.3875
1666.81203	17346.8875
1670.08756	16879.5875
1673.36092	16605.3875
1676.63211	16360.5875
1679.90115	16223.6875
1683.16801	16107.4875
1686.43272	16033.0875
1689.69527	16010.0875
1692.95567	15917.1875
1696.2139	15873.9875
1699.46999	15836.0875
1702.72392	15812.0875
1705.97571	15779.3875
1709.22535	15762.7875
1712.47284	15759.3875
1715.71819	15720.1875
1718.96139	15737.1875
1722.20246	15674.6875
1725.44139	15593.3875
1728.67818	15564.9875
1731.91284	15521.2875
1735.14537	15466.0875
1738.37576	15332.4875
1741.60403	15310.1875
1744.83017	15289.1875
1748.05418	15240.5875
1751.27607	15231.6875
1754.49584	15197.3875
1757.71349	15178.1875
1760.92903	15156.1875
1764.14244	15124.0875
1767.35375	15122.0875
1770.56294	15097.3875
1773.77002	15079.7875
1776.97499	15037.1875
1780.17785	15049.7875
1783.37861	15043.9875
1786.57727	15011.1875
1789.77382	14939.6875
1792.96828	14900.3875
1796.16064	14902.2875
1799.3509	14842.3875
1802.53907	14816.3875
1805.72514	14751.8875
1808.90913	14776.3875
1812.09102	14768.3875
1815.27083	14728.7875
1818.44856	14683.5875
1821.6242	14674.1875
1824.79776	14659.5875
1827.96924	14618.8875
1831.13864	14623.7875
1834.30597	14608.2875
1837.47122	14557.6875
1840.6344	14552.7875
1843.7955	14514.7875
1846.95454	14514.7875
1850.11151	14475.5875
1853.26642	14504.0875
1856.41926	14504.1875
1859.57004	14504.7875
1862.71876	14502.4875
1865.86542	14480.3875
1869.01003	14455.8875
1872.15258	14472.5875
1875.29308	14455.0875
1878.43152	14393.2875
1881.56792	14364.2875
1884.70227	14334.4875
1887.83457	14320.0875
1890.96482	14271.5875
1894.09304	14263.2875
1897.21921	14254.0875
1900.34335	14185.4875
1903.46544	14219.1875
1906.58551	14168.0875
1909.70353	14133.2875
1912.81953	14123.2875
1915.93349	14114.4875
1919.04543	14097.5875
1922.15534	14059.8875
1925.26322	14034.1875
1928.36908	14012.3875
1931.47292	13951.9875
1934.57473	13924.8875
1937.67453	13901.4875
1940.77232	13864.3875
1943.86808	13798.8875
1946.96184	13764.4875
1950.05358	13723.8875
1953.14331	13676.0875
1956.23103	13645.3875
1959.31675	13580.5875
1962.40046	13546.9875
1965.48217	13503.6875
1968.56188	13452.0875
1971.63959	13394.0875
1974.7153	13374.3875
1977.78901	13319.2875
1980.86073	13313.9875
1983.93046	13272.5875
1986.99819	13193.1875
1990.06394	13150.1875
1993.1277	13142.7875
1996.18947	13062.1875
1999.24925	13019.8875
2002.30706	12998.8875
2005.36288	12936.8875
2008.41672	12930.3875
2011.46859	12902.1875
2014.51848	12835.4875
2017.56639	12801.9875
2020.61233	12765.2875
2023.6563	12727.4875
2026.6983	12677.6875
2029.73833	12627.5875
2032.7764	12576.0875
2035.8125	12586.8875
2038.84664	12527.0875
2041.87881	12499.8875
2044.90903	12485.2875
2047.93729	12448.8875
2050.96359	12431.3875
2053.98794	12406.3875
2057.01034	12412.0875
2060.03078	12375.5875
2063.04927	12373.4875
2066.06582	12352.6875
2069.08042	12326.2875
2072.09307	12296.9875
2075.10378	12282.9875
2078.11255	12293.3875
2081.11938	12322.4875
2084.12426	12298.8875
2087.12722	12290.8875
2090.12824	12251.6875
2093.12732	12245.4875
2096.12447	12262.4875
2099.11969	12266.1875
2102.11299	12224.0875
2105.10435	12257.0875
2108.09379	12220.9875
2111.08131	12257.3875
2114.0669	12264.0875
2117.05057	12293.2875
2120.03233	12285.6875
2123.01216	12272.2875
2125.99008	12293.1875
2128.96609	12299.6875
2131.94018	12300.5875
2134.91236	12335.3875
2137.88263	12310.2875
2140.851	12327.0875
2143.81746	12352.4875
2146.78201	12289.3875
2149.74466	12292.2875
2152.7054	12272.9875
2155.66425	12274.2875
2158.6212	12251.8875
2161.57625	12262.0875
2164.52941	12239.0875
2167.48067	12238.2875
2170.43004	12256.5875
2173.37752	12248.0875
2176.32311	12216.2875
2179.26681	12225.6875
2182.20863	12197.0875
2185.14856	12214.9875
2188.08661	12199.4875
2191.02278	12167.9875
2193.95707	12165.0875
2196.88948	12170.1875
2199.82001	12178.7875
2202.74867	12124.9875
2205.67545	12070.7875
2208.60037	12073.0875
2211.52341	12030.9875
2214.44458	12017.8875
2217.36388	11988.1875
2220.28132	11954.5875
2223.1969	11938.7875
2226.11061	11945.7875
2229.02246	11910.4875
2231.93245	11859.1875
2234.84058	11843.6875
2237.74686	11848.8875
2240.65128	11836.1875
2243.55385	11820.0875
2246.45456	11764.1875
2249.35343	11731.8875
2252.25044	11722.0875
2255.14561	11683.5875
2258.03893	11683.2875
2260.93041	11686.9875
2263.82004	11626.7875
2266.70783	11572.3875
2269.59378	11529.9875
2272.4779	11509.5875
2275.36017	11463.1875
2278.24061	11451.2875
2281.11922	11412.0875
2283.996	11407.1875
2286.87094	11351.9875
2289.74405	11346.8875
2292.61534	11318.5875
2295.4848	11319.2875
2298.35243	11316.0875
2301.21824	11314.0875
2304.08223	11301.3875
2306.94439	11259.5875
2309.80474	11263.6875
2312.66327	11249.3875
2315.51999	11240.6875
2318.37489	11226.1875
2321.22797	11201.6875
2324.07925	11168.7875
2326.92871	11125.7875
2329.77637	11150.3875
2332.62222	11102.8875
2335.46626	11066.4875
2338.3085	11074.1875
2341.14893	11014.4875
2343.98756	11023.0875
2346.8244	10999.1875
2349.65943	10989.9875
2352.49267	10974.4875
2355.32411	10951.1875
2358.15376	10955.1875
2360.98161	10953.8875
2363.80768	10928.4875
2366.63195	10924.8875
2369.45444	10938.3875
2372.27514	10907.2875
2375.09405	10903.9875
2377.91118	10852.4875
2380.72652	10843.4875
2383.54009	10808.7875
2386.35187	10777.3875
2389.16188	10749.2875
2391.97011	10714.0875
2394.77657	10705.9875
2397.58125	10626.7875
2400.38416	10643.3875
2403.18529	10605.6875
2405.98466	10603.6875
2408.78226	10607.7875
2411.57809	10571.7875
2414.37216	10548.2875
2417.16446	10543.2875
2419.955	10509.7875
2422.74378	10537.2875
2425.5308	10510.4875
2428.31606	10510.1875
2431.09956	10501.9875
2433.88131	10462.2875
2436.6613	10462.0875
2439.43954	10439.4875
2442.21603	10427.3875
2444.99077	10423.1875
2447.76377	10395.5875
2450.53501	10393.2875
2453.30451	10356.5875
2456.07226	10334.0875
2458.83827	10324.9875
2461.60254	10315.7875
2464.36507	10305.7875
2467.12586	10276.5875
2469.88492	10241.6875
2472.64224	10242.9875
2475.39782	10246.1875
2478.15167	10255.9875
2480.90379	10230.2875
2483.65417	10235.1875
2486.40283	10221.0875
2489.14976	10229.0875
2491.89497	10204.0875
2494.63845	10193.1875
2497.3802	10164.1875
2500.12024	10143.0875
2502.85855	10134.9875
2505.59514	10143.2875
2508.33002	10130.0875
2511.06318	10102.2875
2513.79462	10075.2875
2516.52435	10050.2875
2519.25237	10065.8875
2521.97867	10045.2875
2524.70327	10014.9875
2527.42616	9983.6875
2530.14734	9960.4875
2532.86681	9950.2875
2535.58458	9951.8875
2538.30065	9919.9875
2541.01501	9911.8875
2543.72768	9866.8875
2546.43864	9843.4875
2549.14791	9807.1875
2551.85548	9808.6875
2554.56136	9804.7875
2557.26554	9806.0875
2559.96803	9774.2875
2562.66883	9880.3875
2565.36794	9700.6875
2568.06536	9684.5875
2570.7611	9676.1875
2573.45514	9655.9875
2576.14751	9659.7875
2578.83819	9619.8875
2581.52719	9595.6875
2584.21451	9579.4875
2586.90015	9543.3875
2589.58411	9528.8875
2592.2664	9507.5875
2594.94701	9521.0875
2597.62594	9472.8875
2600.30321	9430.1875
2602.9788	9424.1875
2605.65273	9389.4875
2608.32498	9403.2875
2610.99557	9378.0875
2613.66449	9392.7875
2616.33175	9358.2875
2618.99734	9343.5875
2621.66128	9348.7875
2624.32355	9338.3875
2626.98416	9301.2875
2629.64311	9286.0875
2632.30041	9262.7875
2634.95605	9273.6875
2637.61004	9258.5875
2640.26238	9209.8875
2642.91306	9197.8875
2645.56209	9212.4875
2648.20948	9193.9875
2650.85521	9197.7875
2653.4993	9176.4875
2656.14175	9169.3875
2658.78255	9157.8875
2661.42171	9148.1875
2664.05923	9157.9875
2666.6951	9137.8875
2669.32934	9169.7875
2671.96194	9130.2875
2674.59291	9133.2875
2677.22224	9142.3875
2679.84993	9102.3875
2682.476	9091.5875
2685.10043	9125.3875
2687.72324	9113.7875
2690.34441	9098.9875
2692.96396	9103.8875
2695.58188	9076.2875
2698.19818	9072.2875
2700.81285	9053.9875
2703.4259	9029.8875
2706.03733	9061.2875
2708.64714	9038.1875
2711.25533	9032.2875
2713.86191	9047.0875
2716.46687	9031.0875
2719.07021	9033.7875
2721.67194	9045.7875
2724.27206	9040.1875
2726.87057	9047.8875
2729.46747	9025.2875
2732.06276	9034.8875
2734.65644	9032.5875
2737.24852	9005.9875
2739.83899	8992.2875
2742.42786	8973.8875
2745.01513	8968.2875
2747.60079	8941.5875
2750.18486	8953.8875
2752.76733	8945.5875
2755.3482	8913.0875
2757.92747	8922.6875
2760.50515	8910.8875
2763.08123	8868.8875
2765.65573	8854.3875
2768.22863	8850.1875
2770.79994	8812.6875
2773.36967	8804.8875
2775.9378	8788.1875
2778.50435	8777.5875
2781.06932	8758.3875
2783.6327	8749.1875
2786.1945	8746.2875
2788.75471	8736.3875
2791.31335	8703.1875
2793.87041	8686.1875
2796.42589	8649.5875
2798.97979	8647.9875
2801.53212	8627.6875
2804.08288	8596.2875
2806.63206	8546.6875
2809.17967	8542.6875
2811.72571	8515.3875
2814.27018	8505.0875
2816.81308	8477.8875
2819.35442	8441.9875
2821.89419	8399.1875
2824.43239	8381.3875
2826.96904	8399.8875
2829.50412	8378.4875
2832.03763	8359.4875
2834.56959	8375.9875
2837.1	8361.2875
2839.62884	8324.9875
2842.15613	8311.0875
2844.68186	8311.5875
2847.20604	8276.4875
2849.72867	8296.5875
2852.24974	8266.8875
2854.76927	8275.6875
2857.28724	8242.4875
2859.80367	8263.8875
2862.31855	8238.0875
2864.83189	8221.2875
2867.34368	8182.5875
2869.85393	8206.9875
2872.36264	8174.8875
2874.8698	8159.2875
2877.37543	8184.7875
2879.87952	8162.0875
2882.38207	8176.8875
2884.88308	8151.0875
2887.38256	8142.8875
2889.88051	8119.3875
2892.37692	8110.5875
2894.8718	8117.3875
2897.36515	8094.9875
2899.85698	8098.5875
2902.34727	8102.4875
2904.83604	8088.9875
2907.32328	8113.9875
2909.809	8108.4875
2912.29319	8123.9875
2914.77587	8077.3875
2917.25702	8102.2875
2919.73665	8090.7875
2922.21476	8094.2875
2924.69136	8065.0875
2927.16644	8054.8875
2929.64	8030.5875
2932.11205	8044.2875
2934.58258	8009.3875
2937.05161	8028.8875
2939.51912	8026.3875
2941.98513	8031.0875
2944.44962	7993.5875
2946.91261	7998.2875
2949.37409	7969.1875
2951.83407	7986.9875
2954.29254	7974.6875
2956.74951	7935.0875
2959.20498	7958.8875
2961.65895	7945.6875
2964.11142	7969.4875
2966.56239	7933.7875
2969.01186	7907.7875
2971.45984	7929.4875
2973.90632	7944.1875
2976.35131	7929.5875
2978.7948	7880.5875
2981.23681	7887.6875
2983.67732	7878.4875
2986.11635	7836.7875
2988.55388	7829.3875
2990.98993	7833.2875
2993.4245	7823.2875
2995.85758	7792.3875
2998.28917	7795.6875
3000.71928	7760.8875
3003.14791	7752.3875
3005.57506	7726.9875
3008.00073	7709.6875
3010.42493	7700.4875
3012.84764	7677.8875
3015.26888	7679.3875
3017.68865	7638.7875
3020.10694	7639.3875
3022.52376	7622.4875
3024.9391	7629.1875
3027.35298	7610.3875
3029.76539	7590.4875
3032.17632	7604.1875
3034.5858	7584.6875
3036.9938	7577.8875
3039.40034	7581.0875
3041.80542	7554.9875
3044.20903	7554.3875
3046.61118	7542.1875
3049.01187	7524.2875
3051.4111	7503.9875
3053.80888	7504.3875
3056.20519	7493.9875
3058.60005	7494.7875
3060.99345	7474.2875
3063.3854	7445.0875
3065.7759	7429.2875
3068.16494	7388.4875
3070.55254	7372.6875
3072.93868	7359.9875
3075.32338	7355.7875
3077.70662	7361.0875
3080.08842	7316.8875
3082.46878	7299.7875
3084.84769	7296.3875
3087.22515	7295.4875
3089.60118	7304.1875
3091.97576	7302.4875
3094.3489	7309.2875
3096.72061	7310.0875
3099.09087	7299.2875
3101.4597	7311.7875
3103.82709	7300.7875
3106.19305	7310.9875
3108.55757	7311.1875
3110.92066	7292.3875
3113.28232	7293.2875
3115.64255	7258.0875
3118.00134	7238.9875
3120.35871	7203.9875
3122.71466	7212.1875
3125.06917	7205.1875
3127.42226	7204.5875
3129.77393	7196.6875
3132.12417	7185.4875
3134.47299	7190.9875
3136.82039	7195.8875
3139.16636	7179.4875
3141.51092	7193.6875
3143.85406	7171.5875
3146.19579	7180.7875
3148.53609	7202.7875
3150.87499	7206.3875
3153.21246	7195.7875
3155.54853	7184.0875
3157.88318	7187.3875
3160.21642	7212.6875
3162.54826	7214.1875
3164.87868	7203.2875
3167.2077	7221.4875
3169.5353	7223.7875
3171.86151	7209.6875
3174.18631	7208.2875
3176.5097	7215.0875
3178.83169	7196.5875
3181.15228	7182.1875
3183.47147	7183.0875
3185.78926	7152.0875
3188.10565	7148.8875
3190.42065	7170.5875
3192.73424	7146.7875
3195.04645	7125.3875
3197.35725	7139.8875
3199.66667	7126.0875
3201.97469	7139.1875
3204.28132	7113.1875
3206.58656	7135.4875
3208.8904	7138.8875
3211.19287	7118.7875
3213.49394	7127.8875
3215.79363	7147.0875
3218.09193	7149.9875
3220.38884	7132.5875
3222.68438	7154.0875
3224.97853	7153.6875
3227.2713	7137.7875
3229.56269	7131.2875
3231.8527	7145.2875
3234.14133	7100.9875
3236.42858	7098.2875
3238.71446	7087.4875
3240.99896	7058.0875
3243.28209	7023.4875
3245.56384	7030.3875
3247.84423	7026.7875
3250.12324	7015.6875
3252.40088	7004.4875
3254.67715	6999.2875
3256.95205	6959.6875
3259.22558	6986.8875
3261.49775	6965.8875
3263.76855	6967.0875
3266.03799	6951.5875
3268.30606	6928.7875
3270.57277	6934.6875
3272.83812	6932.0875
3275.10211	6905.5875
3277.36474	6873.9875
3279.62601	6885.1875
3281.88593	6858.1875
3284.14448	6848.1875
3286.40168	6841.9875
3288.65753	6841.7875
3290.91202	6834.2875
3293.16516	6812.7875
3295.41695	6802.6875
3297.66738	6781.8875
3299.91647	6741.7875
3302.16421	6708.1875
3304.4106	6669.8875
3306.65564	6642.7875
3308.89933	6623.7875
3311.14169	6564.7875
3313.38269	6533.1875
3315.62236	6471.7875
3317.86068	6426.0875
3320.09766	6387.4875
3322.3333	6343.1875
3324.5676	6322.4875
3326.80056	6238.7875
3329.03219	6189.4875
3331.26248	2.8875
3333.49143	-0.0125
3335.71905	-1.0125
