Data from AgNPs_APTES_FTO_UA_50uM_CRN_0uM_R6G_10uM_Scan_RamanShift__55__12-15-13-723.txt Node

Date: Tue Jul 05 12:15:13 BST 2022
User: TCL
Spectrometer: QEP01345
Trigger mode: 4
Integration Time (sec): 7.000000E0
Scans to average: 10
Electric dark correction enabled: true
Nonlinearity correction enabled: false
Boxcar width: 0
XAxis mode: Raman Shifts
Number of Pixels in Spectrum: 1044
>>>>>Begin Spectral Data<<<<<
46.04893	-1.9
50.45542	-0.6
54.85868	-0.1
59.25871	0.7
63.6555	67.5
68.04907	68.5
72.43941	76.2
76.82654	81.3
81.21044	83.4
85.59113	88.2
89.96862	90.2
94.34289	94.2
98.71396	97.5
103.08183	98.8
107.4465	99.4
111.80798	105.2
116.16626	104
120.52136	104.1
124.87327	114.6
129.222	114.7
133.56755	118.6
137.90993	125.7
142.24913	135.1
146.58517	153.7
150.91804	174.7
155.24774	206.1
159.57429	248.9
163.89768	313.3
168.21792	416.3
172.53501	567.7
176.84895	785.6
181.15975	1109.4
185.46741	1552.8
189.77193	2146.4
194.07331	2866.6
198.37157	3705.7
202.6667	4566.7
206.9587	5421.2
211.24758	6272.6
215.53334	7117.5
219.81599	7990.4
224.09553	8943
228.37195	10014.2
232.64527	11177.7
236.91549	12394.6
241.18261	13686.4
245.44663	14978.6
249.70755	16152.4
253.96539	17167.7
258.22014	17982.6
262.4718	18613.6
266.72039	18955.2
270.96589	19111.7
275.20832	19040.6
279.44768	18835.8
283.68397	18548.5
287.91719	18251.7
292.14735	18027.8
296.37445	17848.2
300.59849	17752.2
304.81948	17699.1
309.03742	17610.2
313.25231	17549.6
317.46415	17389.8
321.67296	17227.5
325.87872	17063.9
330.08145	17062.4
334.28114	17103.3
338.47781	17262.1
342.67145	17471.9
346.86207	17712.3
351.04966	17934.2
355.23424	18218.5
359.4158	18440.9
363.59435	18625
367.76989	18789.9
371.94243	18968.1
376.11196	19051.5
380.27849	19121.7
384.44203	19200.8
388.60257	19347.2
392.76012	19436.5
396.91468	19590.6
401.06626	19783.2
405.21485	19964.8
409.36047	19952.2
413.50311	19835.9
417.64277	19751.2
421.77947	19754.2
425.9132	19817.4
430.04396	19928.2
434.17176	20005.1
438.2966	20148.4
442.41849	20337.2
446.53742	20583.2
450.6534	20829.6
454.76644	21030.8
458.87653	21188.7
462.98368	21242.1
467.08789	21322.8
471.18916	21267.6
475.2875	21192.5
479.38291	21166.6
483.4754	21138.2
487.56496	21149.8
491.6516	21097.8
495.73531	21069.4
499.81612	20969
503.89401	21085.9
507.96899	21211.4
512.04106	21223.5
516.11023	21275.7
520.1765	21166.1
524.23987	21064.1
528.30034	21017.9
532.35792	20944
536.41261	20872
540.46441	20769.8
544.51333	20735.4
548.55936	20846.5
552.60252	20979.9
556.64279	21212.1
560.6802	21405.9
564.71473	21598.5
568.7464	21810.2
572.7752	22128.3
576.80114	22419.4
580.82422	22639.4
584.84444	22844.3
588.86181	23104.3
592.87633	23367.5
596.888	23504.2
600.89682	23384.4
604.9028	23582.2
608.90594	24401.8
612.90624	25275.1
616.90371	24453
620.89834	22783.6
624.89015	22010.8
628.87913	21898.9
632.86528	21988.3
636.84862	22075.8
640.82913	21895.3
644.80683	21678.5
648.78172	21539.9
652.75379	21520.2
656.72306	21659.1
660.68952	21923.5
664.65319	21913.3
668.61405	21891.7
672.57211	21925.9
676.52738	22031.1
680.47986	22073.6
684.42955	22072.4
688.37646	22060.9
692.32058	22119.2
696.26192	22158.4
700.20048	22221
704.13626	22296.1
708.06928	22295.6
711.99952	22291.4
715.927	22243.9
719.85171	22213.8
723.77365	22155.1
727.69284	22021.4
731.60928	21908.6
735.52295	21916.6
739.43388	21926
743.34206	22039.6
747.24749	22068.5
751.15017	22200.1
755.05012	22348.9
758.94733	22609
762.8418	23036.9
766.73354	23726.6
770.62254	24425.4
774.50882	24608.7
778.39237	24317.2
782.27321	23635.2
786.15132	22991
790.02671	22547.8
793.89938	22289.7
797.76935	22206
801.6366	22160.7
805.50115	22140.3
809.36299	22101.5
813.22213	22016.3
817.07857	21998.8
820.93231	22031.7
824.78336	22006.1
828.63172	21988.5
832.47738	21930.8
836.32036	21936.8
840.16066	21981.2
843.99827	22022.5
847.8332	22087.5
851.66546	22027.2
855.49504	22090.2
859.32195	22085.4
863.1462	22075.5
866.96777	22060.8
870.78668	22092.3
874.60293	22141.5
878.41652	22186.8
882.22745	22210.1
886.03573	22243.4
889.84136	22264.5
893.64433	22251.5
897.44466	22217
901.24235	22223.9
905.0374	22220.5
908.8298	22188.7
912.61957	22187.4
916.40671	22244.7
920.19121	22301.1
923.97308	22383
927.75233	22374.1
931.52895	22286
935.30295	22184.6
939.07433	22015.6
942.84309	21843.1
946.60924	21794
950.37278	21742.8
954.13371	21666.7
957.89203	21691.1
961.64774	21677
965.40086	21637.4
969.15137	21622.3
972.89929	21606.3
976.64461	21549
980.38733	21562.8
984.12747	21506.7
987.86502	21489.3
991.59999	21578.8
995.33237	21625.2
999.06217	21740.1
1002.78939	21907.2
1006.51404	22045.6
1010.23611	22219.9
1013.95561	22343.7
1017.67255	22384.9
1021.38692	22264
1025.09872	22148.1
1028.80796	21973.1
1032.51465	21923.7
1036.21877	21927.1
1039.92035	21940.8
1043.61937	21998
1047.31584	22062.2
1051.00976	22102
1054.70114	22164.7
1058.38998	22244.6
1062.07627	22384.4
1065.76003	22506.3
1069.44126	22588.4
1073.11995	22700.2
1076.79611	22939.7
1080.46974	23058.1
1084.14085	23051.8
1087.80943	23083.3
1091.47549	23212.8
1095.13903	23202.2
1098.80005	23139.8
1102.45857	22924.4
1106.11456	22817.2
1109.76805	22723.6
1113.41903	22635.3
1117.06751	22625.3
1120.71348	22728.4
1124.35696	22823.5
1127.99793	22954
1131.63641	23036.2
1135.2724	23041.4
1138.90589	22952.3
1142.5369	22941.3
1146.16542	22940.3
1149.79145	22921
1153.415	22923
1157.03607	22943.9
1160.65467	23072.6
1164.27079	23340.3
1167.88443	23697.6
1171.49561	24205.3
1175.10432	24884.7
1178.71056	25727
1182.31434	26504.8
1185.91565	26961.1
1189.51451	27065.3
1193.11091	26878.5
1196.70485	26532.4
1200.29634	26086.8
1203.88538	25712.2
1207.47197	25458.7
1211.05612	25239.3
1214.63782	25060.1
1218.21708	24840.4
1221.79391	24543.1
1225.36829	24381.9
1228.94024	24266.8
1232.50976	24169.6
1236.07685	24017.9
1239.6415	23921.8
1243.20374	23901.8
1246.76355	24017.1
1250.32093	24097.3
1253.8759	24256.5
1257.42845	24570.5
1260.97859	24890.6
1264.52631	25212.3
1268.07163	25559.2
1271.61453	25915.3
1275.15503	26139.6
1278.69312	26368.8
1282.22882	26605.9
1285.76211	26849.3
1289.29301	27169.3
1292.82151	27632.3
1296.34761	28127.9
1299.87133	28805.1
1303.39266	29521.3
1306.9116	30190.2
1310.42815	30941.1
1313.94233	31258.2
1317.45412	31325.2
1320.96354	31105.1
1324.47058	30870
1327.97525	30637.7
1331.47754	30416
1334.97747	30214.9
1338.47502	30189.2
1341.97022	30248.1
1345.46305	30418.7
1348.95352	30663.7
1352.44163	30623.4
1355.92738	30580.7
1359.41078	30780.1
1362.89183	31077.2
1366.37053	30794.2
1369.84688	29566.9
1373.32088	28063.8
1376.79254	26994.3
1380.26186	26499.2
1383.72883	26280.3
1387.19347	26140.1
1390.65578	25885.9
1394.11575	25719.7
1397.57339	25508.5
1401.0287	25528.9
1404.48168	25486.9
1407.93234	25410.2
1411.38068	25240.4
1414.82669	24934.1
1418.27039	24546.7
1421.71177	24172.7
1425.15083	23858.4
1428.58758	23727.4
1432.02203	23680.8
1435.45416	23825.5
1438.88399	24037.6
1442.31151	24224.9
1445.73673	24356.1
1449.15965	24458.1
1452.58027	24568.3
1455.9986	24617.9
1459.41463	24725.7
1462.82837	24889.2
1466.23982	25069
1469.64898	25291.9
1473.05586	25405.4
1476.46045	25465.7
1479.86276	25500.3
1483.26279	25543.5
1486.66054	25563.9
1490.05602	25716.8
1493.44922	26057.4
1496.84016	26456.6
1500.22882	26910.1
1503.61521	27523.6
1506.99934	28053.1
1510.38121	28421.9
1513.76081	28416.6
1517.13816	27966
1520.51324	27313.3
1523.88607	26843.5
1527.25665	26489.3
1530.62498	26313.7
1533.99105	26209.6
1537.35488	26016.6
1540.71647	25761.6
1544.07581	25510.8
1547.4329	25282.1
1550.78776	25113.4
1554.14038	25025.8
1557.49077	25088.7
1560.83892	25158.9
1564.18484	25274.5
1567.52853	25371.2
1570.86999	25568.4
1574.20922	25744
1577.54624	25870.3
1580.88103	25865.4
1584.2136	25751
1587.54395	25793.1
1590.87208	26060.3
1594.19801	26485.2
1597.52172	26992.2
1600.84321	27025.4
1604.16251	26542.2
1607.47959	25831.7
1610.79447	24952
1614.10715	23968.5
1617.41763	23179
1620.7259	22639.1
1624.03199	22286.6
1627.33587	22270.7
1630.63757	22439.8
1633.93707	22865.9
1637.23439	23638.6
1640.52951	24865.7
1643.82246	26403.1
1647.11321	27689.4
1650.40179	28158
1653.68819	27426.8
1656.97241	25706.8
1660.25446	23895
1663.53433	22480.9
1666.81203	21521.7
1670.08756	20884.8
1673.36092	20484.4
1676.63211	20207.3
1679.90115	19997.8
1683.16801	19812.3
1686.43272	19742.1
1689.69527	19657.9
1692.95567	19537.9
1696.2139	19497
1699.46999	19493.2
1702.72392	19429.5
1705.97571	19412.5
1709.22535	19405.8
1712.47284	19337
1715.71819	19339.5
1718.96139	19311.3
1722.20246	19266.5
1725.44139	19200.9
1728.67818	19121.4
1731.91284	19072.1
1735.14537	18978.5
1738.37576	18893.6
1741.60403	18826.7
1744.83017	18823.6
1748.05418	18743.8
1751.27607	18742.6
1754.49584	18731.9
1757.71349	18664.8
1760.92903	18591.9
1764.14244	18601.7
1767.35375	18610.6
1770.56294	18568.2
1773.77002	18513
1776.97499	18504.1
1780.17785	18493
1783.37861	18491.3
1786.57727	18452.8
1789.77382	18402.3
1792.96828	18345.5
1796.16064	18332.7
1799.3509	18282.6
1802.53907	18231.3
1805.72514	18196.2
1808.90913	18173.7
1812.09102	18128.9
1815.27083	18116.6
1818.44856	18086.4
1821.6242	18058.9
1824.79776	18041.8
1827.96924	17983.8
1831.13864	17946
1834.30597	17979
1837.47122	17924.5
1840.6344	17900.9
1843.7955	17855.5
1846.95454	17832.3
1850.11151	17858.5
1853.26642	17825.8
1856.41926	17856.5
1859.57004	17859.6
1862.71876	17829.7
1865.86542	17816.5
1869.01003	17833.2
1872.15258	17798.5
1875.29308	17743.4
1878.43152	17702.1
1881.56792	17656.2
1884.70227	17646
1887.83457	17610.7
1890.96482	17584
1894.09304	17563.2
1897.21921	17542.3
1900.34335	17502
1903.46544	17488.6
1906.58551	17453
1909.70353	17393.6
1912.81953	17396.9
1915.93349	17395.8
1919.04543	17352
1922.15534	17305.2
1925.26322	17318.7
1928.36908	17228
1931.47292	17195.5
1934.57473	17166.4
1937.67453	17104.7
1940.77232	17074.4
1943.86808	17028.4
1946.96184	16959.4
1950.05358	16910.5
1953.14331	16891
1956.23103	16839.3
1959.31675	16747.2
1962.40046	16699.1
1965.48217	16656.3
1968.56188	16558.3
1971.63959	16528.2
1974.7153	16465.8
1977.78901	16418.8
1980.86073	16411.9
1983.93046	16376.9
1986.99819	16271.2
1990.06394	16248.1
1993.1277	16219.3
1996.18947	16131.2
1999.24925	16086.8
2002.30706	16013.7
2005.36288	15977.8
2008.41672	15936.6
2011.46859	15899.3
2014.51848	15865.6
2017.56639	15790.6
2020.61233	15754.8
2023.6563	15702.9
2026.6983	15643.8
2029.73833	15581.8
2032.7764	15542
2035.8125	15512.3
2038.84664	15436.4
2041.87881	15438.3
2044.90903	15426.4
2047.93729	15385.4
2050.96359	15383.3
2053.98794	15315.9
2057.01034	15315.7
2060.03078	15281.4
2063.04927	15281.3
2066.06582	15279.4
2069.08042	15246
2072.09307	15170.1
2075.10378	15168.6
2078.11255	15203.2
2081.11938	15235
2084.12426	15196.1
2087.12722	15173.4
2090.12824	15160.6
2093.12732	15165.1
2096.12447	15132.9
2099.11969	15159.1
2102.11299	15124.6
2105.10435	15140
2108.09379	15141.3
2111.08131	15158.7
2114.0669	15183.5
2117.05057	15191.6
2120.03233	15216.7
2123.01216	15203.2
2125.99008	15203.7
2128.96609	15208.7
2131.94018	15227.2
2134.91236	15260.5
2137.88263	15256.2
2140.851	15264.9
2143.81746	15242.8
2146.78201	15233.6
2149.74466	15231.7
2152.7054	15211.3
2155.66425	15184.8
2158.6212	15184.6
2161.57625	15163.2
2164.52941	15154
2167.48067	15190.2
2170.43004	15162.4
2173.37752	15159.2
2176.32311	15125.4
2179.26681	15135.9
2182.20863	15167.7
2185.14856	15148.5
2188.08661	15107.5
2191.02278	15111.5
2193.95707	15089.7
2196.88948	15105.8
2199.82001	15090.1
2202.74867	15031.3
2205.67545	14976.5
2208.60037	14943.7
2211.52341	14921.4
2214.44458	14909.4
2217.36388	14869.4
2220.28132	14830.3
2223.1969	14811.4
2226.11061	14779.9
2229.02246	14754.7
2231.93245	14715.1
2234.84058	14695.4
2237.74686	14699
2240.65128	14682.9
2243.55385	14631.6
2246.45456	14582.3
2249.35343	14539.7
2252.25044	14534.5
2255.14561	14515.5
2258.03893	14523.3
2260.93041	14451
2263.82004	14441.1
2266.70783	14387.6
2269.59378	14326.8
2272.4779	14271.7
2275.36017	14269.7
2278.24061	14217.3
2281.11922	14181
2283.996	14141.1
2286.87094	14148.6
2289.74405	14097.5
2292.61534	14074.6
2295.4848	14040.5
2298.35243	14065.5
2301.21824	14064.3
2304.08223	14045.9
2306.94439	14012.1
2309.80474	13972.3
2312.66327	13989.1
2315.51999	13991.5
2318.37489	13962.6
2321.22797	13931.4
2324.07925	13900.6
2326.92871	13819.7
2329.77637	13817.2
2332.62222	13815.9
2335.46626	13750.6
2338.3085	13731
2341.14893	13715.1
2343.98756	13697.6
2346.8244	13683.9
2349.65943	13658.5
2352.49267	13651.2
2355.32411	13622.1
2358.15376	13643.5
2360.98161	13639.1
2363.80768	13616.6
2366.63195	13628.9
2369.45444	13592.7
2372.27514	13624.9
2375.09405	13560.6
2377.91118	13528.2
2380.72652	13495.4
2383.54009	13478.2
2386.35187	13436.7
2389.16188	13367.8
2391.97011	13355.3
2394.77657	13286
2397.58125	13290.4
2400.38416	13264.5
2403.18529	13221.6
2405.98466	13209.5
2408.78226	13188.2
2411.57809	13159.2
2414.37216	13143.5
2417.16446	13148.9
2419.955	13130.9
2422.74378	13129
2425.5308	13130.1
2428.31606	13082.4
2431.09956	13098.6
2433.88131	13049.2
2436.6613	13036.4
2439.43954	13016
2442.21603	13011.7
2444.99077	12998.9
2447.76377	12980.4
2450.53501	12941.8
2453.30451	12942.5
2456.07226	12903.1
2458.83827	12912.2
2461.60254	12881.5
2464.36507	12854.8
2467.12586	12844.4
2469.88492	12811.2
2472.64224	12797.1
2475.39782	12794.6
2478.15167	12799.8
2480.90379	12792.4
2483.65417	12793.7
2486.40283	12768
2489.14976	12767.7
2491.89497	12721.2
2494.63845	12700.4
2497.3802	12700.3
2500.12024	12694.1
2502.85855	12658
2505.59514	12679.3
2508.33002	12672.9
2511.06318	12618.3
2513.79462	12578.7
2516.52435	12575.6
2519.25237	12576.4
2521.97867	12540.2
2524.70327	12520.6
2527.42616	12531.6
2530.14734	12493.5
2532.86681	12424.7
2535.58458	12449.2
2538.30065	12433.2
2541.01501	12396.3
2543.72768	12373.9
2546.43864	12284.6
2549.14791	12275.2
2551.85548	12292.1
2554.56136	12280.1
2557.26554	12258
2559.96803	12220.2
2562.66883	12171.1
2565.36794	12183
2568.06536	12120.8
2570.7611	12091.8
2573.45514	12073.9
2576.14751	12073.9
2578.83819	12026.9
2581.52719	12014.8
2584.21451	11974.2
2586.90015	11969.4
2589.58411	11942.8
2592.2664	11922.3
2594.94701	11898.3
2597.62594	11839.2
2600.30321	11822.6
2602.9788	11823.4
2605.65273	11787.9
2608.32498	11782.9
2610.99557	11744.2
2613.66449	11775.5
2616.33175	11765.8
2618.99734	11716.5
2621.66128	11728.2
2624.32355	11686.1
2626.98416	11682.2
2629.64311	11620.1
2632.30041	11628.2
2634.95605	11610.7
2637.61004	11585.5
2640.26238	11569.8
2642.91306	11563.5
2645.56209	11526.9
2648.20948	11531.1
2650.85521	11526.8
2653.4993	11520.4
2656.14175	11476.6
2658.78255	11490
2661.42171	11485.9
2664.05923	11488.5
2666.6951	11501
2669.32934	11464
2671.96194	11475.8
2674.59291	11464.6
2677.22224	11451
2679.84993	11434
2682.476	11441.5
2685.10043	11441.3
2687.72324	11448.3
2690.34441	11425.4
2692.96396	11413.1
2695.58188	11402.4
2698.19818	11387.6
2700.81285	11363.5
2703.4259	11364
2706.03733	11377.2
2708.64714	11366.3
2711.25533	11364.7
2713.86191	11341
2716.46687	11374
2719.07021	11362.5
2721.67194	11374.6
2724.27206	11353.8
2726.87057	11346.5
2729.46747	11359.9
2732.06276	11344.6
2734.65644	11345.8
2737.24852	11356.1
2739.83899	11316.9
2742.42786	11339.8
2745.01513	11257.1
2747.60079	11251.9
2750.18486	11249.6
2752.76733	11259.2
2755.3482	11224.7
2757.92747	11203.8
2760.50515	11201
2763.08123	11189.8
2765.65573	11151.6
2768.22863	11116.6
2770.79994	11075.5
2773.36967	11077.6
2775.9378	11074.8
2778.50435	11043.1
2781.06932	11036.3
2783.6327	11022.9
2786.1945	11012.8
2788.75471	11015.6
2791.31335	10975.2
2793.87041	10938.7
2796.42589	10925.7
2798.97979	10901
2801.53212	10847
2804.08288	10825.5
2806.63206	10805.6
2809.17967	10770.4
2811.72571	10754.7
2814.27018	10713.7
2816.81308	10683.5
2819.35442	10657.1
2821.89419	10614.5
2824.43239	10606.5
2826.96904	10572.9
2829.50412	10559
2832.03763	10547.5
2834.56959	10542.1
2837.1	10516
2839.62884	10494.6
2842.15613	10480.2
2844.68186	10537.1
2847.20604	10484.9
2849.72867	10460.9
2852.24974	10444
2854.76927	10437.1
2857.28724	10403.5
2859.80367	10386.1
2862.31855	10374.2
2864.83189	10375.9
2867.34368	10346.8
2869.85393	10344.7
2872.36264	10309.8
2874.8698	10337.3
2877.37543	10332.9
2879.87952	10314
2882.38207	10292.2
2884.88308	10259.6
2887.38256	10266
2889.88051	10273.8
2892.37692	10235.6
2894.8718	10230.7
2897.36515	10222.8
2899.85698	10210.2
2902.34727	10245.5
2904.83604	10215.6
2907.32328	10249.2
2909.809	10256.6
2912.29319	10246.2
2914.77587	10226
2917.25702	10247.1
2919.73665	10208.3
2922.21476	10230.2
2924.69136	10193.6
2927.16644	10179.3
2929.64	10154.3
2932.11205	10157
2934.58258	10127.3
2937.05161	10138
2939.51912	10117.1
2941.98513	10114.5
2944.44962	10124.2
2946.91261	10085.3
2949.37409	10077.7
2951.83407	10074.3
2954.29254	10063.2
2956.74951	10037.5
2959.20498	10038.6
2961.65895	10040
2964.11142	10038.6
2966.56239	10023.1
2969.01186	10019.8
2971.45984	10033.4
2973.90632	10011.4
2976.35131	9992.1
2978.7948	9977.9
2981.23681	9941
2983.67732	9947.1
2986.11635	9894.4
2988.55388	9868.5
2990.98993	9870.1
2993.4245	9873.1
2995.85758	9839.1
2998.28917	9834
3000.71928	9790.7
3003.14791	9752
3005.57506	9747.8
3008.00073	9724.9
3010.42493	9728.7
3012.84764	9691.6
3015.26888	9676.6
3017.68865	9651.6
3020.10694	9638.6
3022.52376	9627.4
3024.9391	9597.5
3027.35298	9620.5
3029.76539	9585.9
3032.17632	9576.2
3034.5858	9559.9
3036.9938	9545.9
3039.40034	9535.6
3041.80542	9530.4
3044.20903	9536.9
3046.61118	9513.3
3049.01187	9485.8
3051.4111	9460.2
3053.80888	9465.4
3056.20519	9457.7
3058.60005	9425.3
3060.99345	9422
3063.3854	9375.8
3065.7759	9337.9
3068.16494	9325.9
3070.55254	9295.2
3072.93868	9263.1
3075.32338	9261.9
3077.70662	9249.9
3080.08842	9208.3
3082.46878	9187.9
3084.84769	9181.1
3087.22515	9197.5
3089.60118	9211.7
3091.97576	9197.7
3094.3489	9186.6
3096.72061	9191.7
3099.09087	9193.2
3101.4597	9177.7
3103.82709	9182.1
3106.19305	9206.4
3108.55757	9181
3110.92066	9165.8
3113.28232	9169.8
3115.64255	9117.5
3118.00134	9088.5
3120.35871	9091
3122.71466	9077.7
3125.06917	9062.1
3127.42226	9055.5
3129.77393	9042.2
3132.12417	9009.2
3134.47299	9028.8
3136.82039	8994.8
3139.16636	9011.4
3141.51092	8986.5
3143.85406	8998.4
3146.19579	9008.9
3148.53609	9014.8
3150.87499	9021.2
3153.21246	9020.6
3155.54853	9003.6
3157.88318	8995.4
3160.21642	9052.5
3162.54826	9014
3164.87868	9026.4
3167.2077	9009.8
3169.5353	9028.4
3171.86151	9017.7
3174.18631	9015.5
3176.5097	9005.3
3178.83169	9010.1
3181.15228	8973.7
3183.47147	8952.6
3185.78926	8959.4
3188.10565	8945
3190.42065	8929.6
3192.73424	8930.2
3195.04645	8923.2
3197.35725	8914.7
3199.66667	8895.2
3201.97469	8916.7
3204.28132	8885.6
3206.58656	8901
3208.8904	8898.2
3211.19287	8903.1
3213.49394	8897.9
3215.79363	8905.6
3218.09193	8894.7
3220.38884	8912
3222.68438	8925.6
3224.97853	8901.3
3227.2713	8912.8
3229.56269	8895.1
3231.8527	8872.9
3234.14133	8868.1
3236.42858	8849.7
3238.71446	8819.6
3240.99896	8764.8
3243.28209	8782.6
3245.56384	8762.4
3247.84423	8759
3250.12324	8744.2
3252.40088	8739.9
3254.67715	8748.6
3256.95205	8694.2
3259.22558	8696.9
3261.49775	8680.4
3263.76855	8684
3266.03799	8669.6
3268.30606	8656.6
3270.57277	8632.4
3272.83812	8619.4
3275.10211	8595
3277.36474	8568.3
3279.62601	8579
3281.88593	8548.4
3284.14448	8555.9
3286.40168	8521.1
3288.65753	8522.6
3290.91202	8506.6
3293.16516	8497.3
3295.41695	8477.4
3297.66738	8444.4
3299.91647	8414.5
3302.16421	8359
3304.4106	8332.3
3306.65564	8278.9
3308.89933	8229.4
3311.14169	8181
3313.38269	8122
3315.62236	8061.6
3317.86068	8002.2
3320.09766	7929.5
3322.3333	7903.6
3324.5676	7890.4
3326.80056	7767
3329.03219	7717.6
3331.26248	3.4
3333.49143	0.4
3335.71905	-1.6
