Data from AgNPs_APTES_FTO_UA_50uM_CRN_0uM_R6G_10uM_Scan_RamanShift__75__12-38-33-750.txt Node

Date: Tue Jul 05 12:38:33 BST 2022
User: TCL
Spectrometer: QEP01345
Trigger mode: 4
Integration Time (sec): 7.000000E0
Scans to average: 10
Electric dark correction enabled: true
Nonlinearity correction enabled: false
Boxcar width: 0
XAxis mode: Raman Shifts
Number of Pixels in Spectrum: 1044
>>>>>Begin Spectral Data<<<<<
46.04893	0.3375
50.45542	-0.7625
54.85868	-1.0625
59.25871	-0.7625
63.6555	38.2375
68.04907	45.6375
72.43941	45.1375
76.82654	48.4375
81.21044	50.9375
85.59113	57.4375
89.96862	58.9375
94.34289	58.9375
98.71396	60.2375
103.08183	61.5375
107.4465	62.8375
111.80798	67.1375
116.16626	61.6375
120.52136	65.4375
124.87327	69.1375
129.222	69.9375
133.56755	72.7375
137.90993	72.3375
142.24913	75.4375
146.58517	84.6375
150.91804	93.6375
155.24774	104.8375
159.57429	126.3375
163.89768	153.7375
168.21792	200.2375
172.53501	266.5375
176.84895	367.0375
181.15975	517.7375
185.46741	724.6375
189.77193	990.2375
194.07331	1330.7375
198.37157	1713.6375
202.6667	2095.9375
206.9587	2510.5375
211.24758	2889.2375
215.53334	3266.5375
219.81599	3665.6375
224.09553	4080.1375
228.37195	4542.7375
232.64527	5083.5375
236.91549	5642.2375
241.18261	6226.6375
245.44663	6848.8375
249.70755	7426.6375
253.96539	7946.4375
258.22014	8373.1375
262.4718	8679.0375
266.72039	8902.8375
270.96589	9019.9375
275.20832	9021.7375
279.44768	8949.4375
283.68397	8824.2375
287.91719	8704.6375
292.14735	8572.7375
296.37445	8465.7375
300.59849	8396.8375
304.81948	8328.8375
309.03742	8298.0375
313.25231	8251.9375
317.46415	8226.4375
321.67296	8234.4375
325.87872	8235.3375
330.08145	8280.8375
334.28114	8340.7375
338.47781	8430.7375
342.67145	8565.2375
346.86207	8677.6375
351.04966	8778.5375
355.23424	8902.8375
359.4158	9049.2375
363.59435	9146.0375
367.76989	9276.4375
371.94243	9444.0375
376.11196	9524.2375
380.27849	9624.5375
384.44203	9725.3375
388.60257	9814.6375
392.76012	9890.6375
396.91468	9956.0375
401.06626	10020.2375
405.21485	10111.3375
409.36047	10179.5375
413.50311	10206.1375
417.64277	10219.5375
421.77947	10213.7375
425.9132	10304.7375
430.04396	10373.5375
434.17176	10436.0375
438.2966	10546.4375
442.41849	10604.0375
446.53742	10735.8375
450.6534	10843.8375
454.76644	10924.9375
458.87653	11022.8375
462.98368	11077.4375
467.08789	11137.9375
471.18916	11156.2375
475.2875	11174.7375
479.38291	11190.7375
483.4754	11180.3375
487.56496	11202.8375
491.6516	11208.6375
495.73531	11267.4375
499.81612	11271.2375
503.89401	11321.5375
507.96899	11382.4375
512.04106	11431.7375
516.11023	11469.2375
520.1765	11488.6375
524.23987	11537.4375
528.30034	11589.4375
532.35792	11643.5375
536.41261	11667.1375
540.46441	11647.2375
544.51333	11675.1375
548.55936	11719.0375
552.60252	11766.5375
556.64279	11870.1375
560.6802	11932.7375
564.71473	11967.2375
568.7464	11997.1375
572.7752	12018.0375
576.80114	12003.2375
580.82422	12023.3375
584.84444	12071.1375
588.86181	12112.1375
592.87633	12179.7375
596.888	12233.0375
600.89682	12312.3375
604.9028	12461.4375
608.90594	12795.3375
612.90624	13094.7375
616.90371	12956.9375
620.89834	12599.9375
624.89015	12426.4375
628.87913	12461.2375
632.86528	12510.4375
636.84862	12557.0375
640.82913	12566.7375
644.80683	12543.3375
648.78172	12557.8375
652.75379	12559.9375
656.72306	12641.2375
660.68952	12724.7375
664.65319	12785.6375
668.61405	12853.2375
672.57211	12889.1375
676.52738	12965.8375
680.47986	12984.7375
684.42955	13045.3375
688.37646	13105.6375
692.32058	13196.1375
696.26192	13266.3375
700.20048	13296.5375
704.13626	13318.1375
708.06928	13365.2375
711.99952	13365.2375
715.927	13378.1375
719.85171	13392.8375
723.77365	13363.0375
727.69284	13316.0375
731.60928	13331.9375
735.52295	13320.1375
739.43388	13310.1375
743.34206	13351.9375
747.24749	13405.4375
751.15017	13410.0375
755.05012	13423.0375
758.94733	13497.7375
762.8418	13590.6375
766.73354	13747.3375
770.62254	13935.7375
774.50882	14033.5375
778.39237	14069.6375
782.27321	13996.5375
786.15132	13859.9375
790.02671	13729.6375
793.89938	13660.2375
797.76935	13633.9375
801.6366	13664.8375
805.50115	13650.0375
809.36299	13637.2375
813.22213	13633.0375
817.07857	13644.6375
820.93231	13675.8375
824.78336	13729.8375
828.63172	13755.8375
832.47738	13764.4375
836.32036	13773.9375
840.16066	13805.8375
843.99827	13827.4375
847.8332	13895.8375
851.66546	13930.5375
855.49504	13931.0375
859.32195	13937.7375
863.1462	13989.9375
866.96777	14007.5375
870.78668	14014.6375
874.60293	14071.9375
878.41652	14104.0375
882.22745	14155.4375
886.03573	14141.9375
889.84136	14158.1375
893.64433	14167.7375
897.44466	14187.7375
901.24235	14200.5375
905.0374	14252.8375
908.8298	14307.3375
912.61957	14284.6375
916.40671	14293.1375
920.19121	14296.3375
923.97308	14276.6375
927.75233	14290.7375
931.52895	14288.3375
935.30295	14257.1375
939.07433	14239.6375
942.84309	14203.7375
946.60924	14166.0375
950.37278	14147.4375
954.13371	14137.8375
957.89203	14183.8375
961.64774	14124.5375
965.40086	14134.7375
969.15137	14112.2375
972.89929	14067.8375
976.64461	14122.2375
980.38733	14116.4375
984.12747	14090.0375
987.86502	14134.5375
991.59999	14158.1375
995.33237	14186.2375
999.06217	14220.9375
1002.78939	14270.4375
1006.51404	14342.7375
1010.23611	14438.9375
1013.95561	14451.2375
1017.67255	14489.5375
1021.38692	14465.6375
1025.09872	14444.0375
1028.80796	14416.5375
1032.51465	14382.1375
1036.21877	14385.1375
1039.92035	14393.9375
1043.61937	14425.8375
1047.31584	14471.3375
1051.00976	14478.6375
1054.70114	14502.8375
1058.38998	14536.9375
1062.07627	14571.7375
1065.76003	14593.4375
1069.44126	14619.3375
1073.11995	14672.8375
1076.79611	14779.2375
1080.46974	14825.6375
1084.14085	14816.8375
1087.80943	14802.0375
1091.47549	14857.5375
1095.13903	14856.7375
1098.80005	14850.6375
1102.45857	14844.2375
1106.11456	14869.1375
1109.76805	14802.6375
1113.41903	14774.1375
1117.06751	14730.0375
1120.71348	14717.8375
1124.35696	14705.0375
1127.99793	14745.9375
1131.63641	14741.8375
1135.2724	14737.3375
1138.90589	14704.6375
1142.5369	14688.1375
1146.16542	14647.9375
1149.79145	14635.5375
1153.415	14568.4375
1157.03607	14546.6375
1160.65467	14543.5375
1164.27079	14588.7375
1167.88443	14641.6375
1171.49561	14728.0375
1175.10432	14848.2375
1178.71056	14989.3375
1182.31434	15174.7375
1185.91565	15327.6375
1189.51451	15438.2375
1193.11091	15465.8375
1196.70485	15456.7375
1200.29634	15423.3375
1203.88538	15396.4375
1207.47197	15276.1375
1211.05612	15179.1375
1214.63782	15087.5375
1218.21708	15023.2375
1221.79391	14932.3375
1225.36829	14901.6375
1228.94024	14883.0375
1232.50976	14853.9375
1236.07685	14848.5375
1239.6415	14833.6375
1243.20374	14877.7375
1246.76355	14922.6375
1250.32093	14957.9375
1253.8759	14998.7375
1257.42845	15093.9375
1260.97859	15139.7375
1264.52631	15220.1375
1268.07163	15253.1375
1271.61453	15317.6375
1275.15503	15308.1375
1278.69312	15352.5375
1282.22882	15316.9375
1285.76211	15301.4375
1289.29301	15310.1375
1292.82151	15324.4375
1296.34761	15365.0375
1299.87133	15475.8375
1303.39266	15558.7375
1306.9116	15696.1375
1310.42815	15902.0375
1313.94233	16023.5375
1317.45412	16065.5375
1320.96354	16056.0375
1324.47058	15982.7375
1327.97525	15858.7375
1331.47754	15676.1375
1334.97747	15601.4375
1338.47502	15650.9375
1341.97022	15779.1375
1345.46305	15991.7375
1348.95352	16224.1375
1352.44163	16259.8375
1355.92738	16261.4375
1359.41078	16214.5375
1362.89183	16168.6375
1366.37053	15989.7375
1369.84688	15682.1375
1373.32088	15399.7375
1376.79254	15139.0375
1380.26186	14979.8375
1383.72883	14845.6375
1387.19347	14704.0375
1390.65578	14584.8375
1394.11575	14538.0375
1397.57339	14422.4375
1401.0287	14397.6375
1404.48168	14385.7375
1407.93234	14365.8375
1411.38068	14335.4375
1414.82669	14355.3375
1418.27039	14310.8375
1421.71177	14249.1375
1425.15083	14206.9375
1428.58758	14164.7375
1432.02203	14156.5375
1435.45416	14134.6375
1438.88399	14105.1375
1442.31151	14108.9375
1445.73673	14106.4375
1449.15965	14085.1375
1452.58027	14106.2375
1455.9986	14099.0375
1459.41463	14119.4375
1462.82837	14166.5375
1466.23982	14252.6375
1469.64898	14321.5375
1473.05586	14406.8375
1476.46045	14378.2375
1479.86276	14430.5375
1483.26279	14462.7375
1486.66054	14451.5375
1490.05602	14491.5375
1493.44922	14562.0375
1496.84016	14688.3375
1500.22882	14828.2375
1503.61521	15031.5375
1506.99934	15169.3375
1510.38121	15255.7375
1513.76081	15233.3375
1517.13816	15107.8375
1520.51324	14953.2375
1523.88607	14862.6375
1527.25665	14780.2375
1530.62498	14694.8375
1533.99105	14669.2375
1537.35488	14663.1375
1540.71647	14652.3375
1544.07581	14667.5375
1547.4329	14698.2375
1550.78776	14687.4375
1554.14038	14698.7375
1557.49077	14670.9375
1560.83892	14696.4375
1564.18484	14706.4375
1567.52853	14723.0375
1570.86999	14751.8375
1574.20922	14798.9375
1577.54624	14756.7375
1580.88103	14744.8375
1584.2136	14625.0375
1587.54395	14606.8375
1590.87208	14624.7375
1594.19801	14664.0375
1597.52172	14828.8375
1600.84321	14903.3375
1604.16251	14906.1375
1607.47959	14845.9375
1610.79447	14721.9375
1614.10715	14485.0375
1617.41763	14297.6375
1620.7259	14112.3375
1624.03199	14045.2375
1627.33587	14048.0375
1630.63757	14007.8375
1633.93707	14002.3375
1637.23439	14100.5375
1640.52951	14252.0375
1643.82246	14463.0375
1647.11321	14621.2375
1650.40179	14658.5375
1653.68819	14556.7375
1656.97241	14298.3375
1660.25446	14021.4375
1663.53433	13834.8375
1666.81203	13703.1375
1670.08756	13613.0375
1673.36092	13551.6375
1676.63211	13464.8375
1679.90115	13452.9375
1683.16801	13398.5375
1686.43272	13368.2375
1689.69527	13340.9375
1692.95567	13303.9375
1696.2139	13318.8375
1699.46999	13292.8375
1702.72392	13294.8375
1705.97571	13306.2375
1709.22535	13321.0375
1712.47284	13316.5375
1715.71819	13362.5375
1718.96139	13331.3375
1722.20246	13300.8375
1725.44139	13277.5375
1728.67818	13238.0375
1731.91284	13226.5375
1735.14537	13176.9375
1738.37576	13155.7375
1741.60403	13094.7375
1744.83017	13081.0375
1748.05418	13024.5375
1751.27607	13049.6375
1754.49584	13014.6375
1757.71349	12966.1375
1760.92903	12946.4375
1764.14244	12912.6375
1767.35375	12939.6375
1770.56294	12922.1375
1773.77002	12896.4375
1776.97499	12938.8375
1780.17785	12929.5375
1783.37861	12953.0375
1786.57727	12912.0375
1789.77382	12878.5375
1792.96828	12858.4375
1796.16064	12847.1375
1799.3509	12809.4375
1802.53907	12789.5375
1805.72514	12733.6375
1808.90913	12774.4375
1812.09102	12719.2375
1815.27083	12692.0375
1818.44856	12724.8375
1821.6242	12698.9375
1824.79776	12685.9375
1827.96924	12640.7375
1831.13864	12627.8375
1834.30597	12624.7375
1837.47122	12633.5375
1840.6344	12571.8375
1843.7955	12559.4375
1846.95454	12539.0375
1850.11151	12566.6375
1853.26642	12543.2375
1856.41926	12566.0375
1859.57004	12557.3375
1862.71876	12526.9375
1865.86542	12544.3375
1869.01003	12532.9375
1872.15258	12493.9375
1875.29308	12493.0375
1878.43152	12474.1375
1881.56792	12439.4375
1884.70227	12450.9375
1887.83457	12405.2375
1890.96482	12366.1375
1894.09304	12381.8375
1897.21921	12368.9375
1900.34335	12326.5375
1903.46544	12327.7375
1906.58551	12306.9375
1909.70353	12286.0375
1912.81953	12260.3375
1915.93349	12268.4375
1919.04543	12257.2375
1922.15534	12222.8375
1925.26322	12203.5375
1928.36908	12190.2375
1931.47292	12174.7375
1934.57473	12135.5375
1937.67453	12128.8375
1940.77232	12068.0375
1943.86808	12061.1375
1946.96184	12018.9375
1950.05358	11999.4375
1953.14331	11957.1375
1956.23103	11917.9375
1959.31675	11878.3375
1962.40046	11830.2375
1965.48217	11788.3375
1968.56188	11779.3375
1971.63959	11721.7375
1974.7153	11683.9375
1977.78901	11660.7375
1980.86073	11653.9375
1983.93046	11596.8375
1986.99819	11568.6375
1990.06394	11510.2375
1993.1277	11508.7375
1996.18947	11460.8375
1999.24925	11419.5375
2002.30706	11382.1375
2005.36288	11349.6375
2008.41672	11320.7375
2011.46859	11298.3375
2014.51848	11270.3375
2017.56639	11246.7375
2020.61233	11202.7375
2023.6563	11174.9375
2026.6983	11115.8375
2029.73833	11076.2375
2032.7764	11060.6375
2035.8125	11026.7375
2038.84664	10981.9375
2041.87881	11001.7375
2044.90903	10980.7375
2047.93729	10924.9375
2050.96359	10939.9375
2053.98794	10918.4375
2057.01034	10894.5375
2060.03078	10870.9375
2063.04927	10888.3375
2066.06582	10856.3375
2069.08042	10843.5375
2072.09307	10809.7375
2075.10378	10807.5375
2078.11255	10814.9375
2081.11938	10824.6375
2084.12426	10822.7375
2087.12722	10814.6375
2090.12824	10809.1375
2093.12732	10781.4375
2096.12447	10773.3375
2099.11969	10805.0375
2102.11299	10772.6375
2105.10435	10798.9375
2108.09379	10799.5375
2111.08131	10807.0375
2114.0669	10813.0375
2117.05057	10820.8375
2120.03233	10830.2375
2123.01216	10843.0375
2125.99008	10825.4375
2128.96609	10847.3375
2131.94018	10841.0375
2134.91236	10867.3375
2137.88263	10893.5375
2140.851	10884.0375
2143.81746	10897.1375
2146.78201	10871.4375
2149.74466	10875.7375
2152.7054	10855.0375
2155.66425	10842.0375
2158.6212	10832.8375
2161.57625	10849.0375
2164.52941	10821.8375
2167.48067	10835.5375
2170.43004	10819.6375
2173.37752	10827.5375
2176.32311	10825.3375
2179.26681	10816.4375
2182.20863	10791.9375
2185.14856	10809.0375
2188.08661	10778.1375
2191.02278	10779.2375
2193.95707	10767.9375
2196.88948	10780.3375
2199.82001	10781.1375
2202.74867	10743.0375
2205.67545	10720.3375
2208.60037	10708.0375
2211.52341	10690.6375
2214.44458	10656.2375
2217.36388	10653.3375
2220.28132	10595.1375
2223.1969	10569.7375
2226.11061	10599.2375
2229.02246	10551.6375
2231.93245	10523.7375
2234.84058	10523.4375
2237.74686	10514.5375
2240.65128	10512.4375
2243.55385	10454.1375
2246.45456	10435.2375
2249.35343	10426.6375
2252.25044	10432.9375
2255.14561	10399.6375
2258.03893	10375.9375
2260.93041	10383.3375
2263.82004	10337.4375
2266.70783	10297.5375
2269.59378	10267.6375
2272.4779	10235.9375
2275.36017	10228.3375
2278.24061	10185.5375
2281.11922	10170.7375
2283.996	10159.8375
2286.87094	10124.1375
2289.74405	10098.0375
2292.61534	10100.5375
2295.4848	10061.1375
2298.35243	10065.4375
2301.21824	10053.5375
2304.08223	10080.3375
2306.94439	10035.8375
2309.80474	10025.5375
2312.66327	10031.9375
2315.51999	10025.8375
2318.37489	10016.2375
2321.22797	9997.2375
2324.07925	9950.8375
2326.92871	9900.3375
2329.77637	9916.0375
2332.62222	9923.9375
2335.46626	9863.3375
2338.3085	9876.8375
2341.14893	9841.7375
2343.98756	9822.1375
2346.8244	9799.8375
2349.65943	9791.9375
2352.49267	9773.0375
2355.32411	9781.1375
2358.15376	9770.5375
2360.98161	9752.0375
2363.80768	9751.8375
2366.63195	9738.9375
2369.45444	9729.6375
2372.27514	9740.0375
2375.09405	9697.8375
2377.91118	9662.2375
2380.72652	9652.3375
2383.54009	9656.5375
2386.35187	9615.3375
2389.16188	9570.5375
2391.97011	9584.8375
2394.77657	9515.7375
2397.58125	9502.2375
2400.38416	9501.5375
2403.18529	9465.9375
2405.98466	9473.6375
2408.78226	9457.2375
2411.57809	9425.9375
2414.37216	9424.0375
2417.16446	9397.9375
2419.955	9375.5375
2422.74378	9400.0375
2425.5308	9375.0375
2428.31606	9392.5375
2431.09956	9391.3375
2433.88131	9325.9375
2436.6613	9341.8375
2439.43954	9334.1375
2442.21603	9315.0375
2444.99077	9290.0375
2447.76377	9278.3375
2450.53501	9263.2375
2453.30451	9263.0375
2456.07226	9217.8375
2458.83827	9201.6375
2461.60254	9202.5375
2464.36507	9202.3375
2467.12586	9190.9375
2469.88492	9140.2375
2472.64224	9129.0375
2475.39782	9116.4375
2478.15167	9141.2375
2480.90379	9122.7375
2483.65417	9126.5375
2486.40283	9112.1375
2489.14976	9094.7375
2491.89497	9074.1375
2494.63845	9068.9375
2497.3802	9056.8375
2500.12024	9039.7375
2502.85855	9013.9375
2505.59514	9005.9375
2508.33002	9022.9375
2511.06318	8973.3375
2513.79462	8968.5375
2516.52435	8988.0375
2519.25237	8958.2375
2521.97867	8931.5375
2524.70327	8918.1375
2527.42616	8915.6375
2530.14734	8871.7375
2532.86681	8860.9375
2535.58458	8870.5375
2538.30065	8855.1375
2541.01501	8818.3375
2543.72768	8803.7375
2546.43864	8761.7375
2549.14791	8745.0375
2551.85548	8737.6375
2554.56136	8735.3375
2557.26554	8726.6375
2559.96803	8689.8375
2562.66883	8673.4375
2565.36794	8642.5375
2568.06536	8637.5375
2570.7611	8613.5375
2573.45514	8584.9375
2576.14751	8587.8375
2578.83819	8546.1375
2581.52719	8540.6375
2584.21451	8522.7375
2586.90015	8484.7375
2589.58411	8486.4375
2592.2664	8463.0375
2594.94701	8437.1375
2597.62594	8411.0375
2600.30321	8389.0375
2602.9788	8397.1375
2605.65273	8361.2375
2608.32498	8350.2375
2610.99557	8354.7375
2613.66449	8340.1375
2616.33175	8313.8375
2618.99734	8330.3375
2621.66128	8285.4375
2624.32355	8287.9375
2626.98416	8267.1375
2629.64311	8226.1375
2632.30041	8208.3375
2634.95605	8224.9375
2637.61004	8226.5375
2640.26238	8188.0375
2642.91306	8179.0375
2645.56209	8171.1375
2648.20948	8149.1375
2650.85521	8145.4375
2653.4993	8135.9375
2656.14175	8119.4375
2658.78255	8116.4375
2661.42171	8115.0375
2664.05923	8131.5375
2666.6951	8108.1375
2669.32934	8107.8375
2671.96194	8087.1375
2674.59291	8078.6375
2677.22224	8076.2375
2679.84993	8065.7375
2682.476	8061.1375
2685.10043	8067.6375
2687.72324	8066.6375
2690.34441	8059.0375
2692.96396	8065.6375
2695.58188	8036.7375
2698.19818	8036.6375
2700.81285	8030.4375
2703.4259	7981.5375
2706.03733	7993.2375
2708.64714	7983.0375
2711.25533	7984.3375
2713.86191	7996.7375
2716.46687	7982.5375
2719.07021	8007.7375
2721.67194	8011.7375
2724.27206	8011.4375
2726.87057	7994.5375
2729.46747	7980.0375
2732.06276	7988.4375
2734.65644	7977.6375
2737.24852	7964.8375
2739.83899	7938.8375
2742.42786	7949.5375
2745.01513	7947.1375
2747.60079	7896.5375
2750.18486	7906.7375
2752.76733	7895.1375
2755.3482	7875.6375
2757.92747	7875.5375
2760.50515	7880.5375
2763.08123	7850.7375
2765.65573	7826.3375
2768.22863	7795.3375
2770.79994	7773.7375
2773.36967	7779.2375
2775.9378	7761.2375
2778.50435	7720.4375
2781.06932	7729.0375
2783.6327	7717.0375
2786.1945	7696.6375
2788.75471	7689.6375
2791.31335	7659.2375
2793.87041	7640.9375
2796.42589	7630.3375
2798.97979	7622.3375
2801.53212	7601.6375
2804.08288	7567.3375
2806.63206	7547.6375
2809.17967	7536.2375
2811.72571	7530.8375
2814.27018	7494.0375
2816.81308	7465.9375
2819.35442	7452.6375
2821.89419	7422.6375
2824.43239	7416.0375
2826.96904	7381.9375
2829.50412	7388.5375
2832.03763	7375.7375
2834.56959	7346.1375
2837.1	7349.5375
2839.62884	7342.1375
2842.15613	7316.6375
2844.68186	7318.2375
2847.20604	7290.1375
2849.72867	7291.7375
2852.24974	7292.7375
2854.76927	7254.6375
2857.28724	7235.5375
2859.80367	7238.6375
2862.31855	7232.1375
2864.83189	7210.2375
2867.34368	7213.4375
2869.85393	7201.6375
2872.36264	7186.3375
2874.8698	7166.9375
2877.37543	7193.4375
2879.87952	7190.3375
2882.38207	7198.1375
2884.88308	7159.8375
2887.38256	7152.9375
2889.88051	7148.2375
2892.37692	7154.4375
2894.8718	7142.3375
2897.36515	7131.3375
2899.85698	7104.0375
2902.34727	7107.0375
2904.83604	7106.7375
2907.32328	7144.4375
2909.809	7125.7375
2912.29319	7107.7375
2914.77587	7105.8375
2917.25702	7119.8375
2919.73665	7107.9375
2922.21476	7083.9375
2924.69136	7093.9375
2927.16644	7077.7375
2929.64	7040.6375
2932.11205	7060.3375
2934.58258	7044.9375
2937.05161	7049.6375
2939.51912	7042.8375
2941.98513	7034.4375
2944.44962	7050.7375
2946.91261	7027.1375
2949.37409	7030.7375
2951.83407	7022.8375
2954.29254	7021.0375
2956.74951	6999.4375
2959.20498	6998.4375
2961.65895	6989.8375
2964.11142	7023.2375
2966.56239	6982.0375
2969.01186	6974.8375
2971.45984	6994.7375
2973.90632	6989.2375
2976.35131	6969.3375
2978.7948	6962.4375
2981.23681	6956.3375
2983.67732	6946.9375
2986.11635	6910.6375
2988.55388	6911.3375
2990.98993	6905.4375
2993.4245	6904.3375
2995.85758	6884.0375
2998.28917	6880.1375
3000.71928	6861.1375
3003.14791	6844.1375
3005.57506	6822.5375
3008.00073	6797.3375
3010.42493	6800.7375
3012.84764	6803.2375
3015.26888	6782.5375
3017.68865	6754.2375
3020.10694	6767.6375
3022.52376	6753.0375
3024.9391	6747.0375
3027.35298	6732.8375
3029.76539	6754.1375
3032.17632	6741.8375
3034.5858	6718.4375
3036.9938	6694.2375
3039.40034	6699.1375
3041.80542	6690.7375
3044.20903	6665.9375
3046.61118	6670.5375
3049.01187	6665.2375
3051.4111	6639.3375
3053.80888	6622.3375
3056.20519	6659.4375
3058.60005	6626.7375
3060.99345	6625.8375
3063.3854	6570.2375
3065.7759	6565.1375
3068.16494	6561.6375
3070.55254	6534.2375
3072.93868	6536.6375
3075.32338	6522.3375
3077.70662	6520.1375
3080.08842	6465.5375
3082.46878	6472.3375
3084.84769	6475.7375
3087.22515	6497.0375
3089.60118	6496.9375
3091.97576	6463.2375
3094.3489	6470.6375
3096.72061	6486.3375
3099.09087	6485.0375
3101.4597	6484.2375
3103.82709	6496.6375
3106.19305	6488.9375
3108.55757	6493.6375
3110.92066	6472.2375
3113.28232	6473.9375
3115.64255	6430.0375
3118.00134	6429.2375
3120.35871	6416.7375
3122.71466	6422.5375
3125.06917	6398.2375
3127.42226	6409.9375
3129.77393	6415.3375
3132.12417	6406.4375
3134.47299	6394.2375
3136.82039	6400.7375
3139.16636	6402.2375
3141.51092	6395.6375
3143.85406	6388.1375
3146.19579	6398.3375
3148.53609	6399.3375
3150.87499	6405.1375
3153.21246	6408.8375
3155.54853	6406.6375
3157.88318	6409.4375
3160.21642	6423.0375
3162.54826	6434.4375
3164.87868	6433.9375
3167.2077	6432.4375
3169.5353	6435.5375
3171.86151	6425.4375
3174.18631	6427.3375
3176.5097	6435.2375
3178.83169	6422.6375
3181.15228	6404.4375
3183.47147	6397.9375
3185.78926	6373.1375
3188.10565	6360.5375
3190.42065	6357.1375
3192.73424	6383.2375
3195.04645	6373.1375
3197.35725	6362.5375
3199.66667	6385.0375
3201.97469	6368.1375
3204.28132	6366.5375
3206.58656	6361.7375
3208.8904	6359.2375
3211.19287	6368.6375
3213.49394	6383.3375
3215.79363	6386.5375
3218.09193	6365.5375
3220.38884	6363.8375
3222.68438	6385.0375
3224.97853	6370.7375
3227.2713	6388.3375
3229.56269	6351.6375
3231.8527	6355.4375
3234.14133	6352.7375
3236.42858	6326.8375
3238.71446	6321.0375
3240.99896	6303.7375
3243.28209	6290.4375
3245.56384	6261.9375
3247.84423	6277.7375
3250.12324	6272.5375
3252.40088	6288.2375
3254.67715	6242.1375
3256.95205	6239.8375
3259.22558	6249.9375
3261.49775	6247.6375
3263.76855	6207.8375
3266.03799	6223.9375
3268.30606	6216.6375
3270.57277	6194.5375
3272.83812	6202.4375
3275.10211	6191.1375
3277.36474	6157.6375
3279.62601	6158.9375
3281.88593	6137.2375
3284.14448	6123.3375
3286.40168	6117.5375
3288.65753	6129.8375
3290.91202	6111.6375
3293.16516	6118.7375
3295.41695	6096.4375
3297.66738	6071.9375
3299.91647	6041.7375
3302.16421	5995.0375
3304.4106	5980.4375
3306.65564	5945.4375
3308.89933	5905.9375
3311.14169	5899.9375
3313.38269	5837.2375
3315.62236	5817.5375
3317.86068	5764.7375
3320.09766	5711.4375
3322.3333	5690.7375
3324.5676	5684.3375
3326.80056	5588.9375
3329.03219	5560.2375
3331.26248	1.7375
3333.49143	0.0375
3335.71905	-0.2625
