Data from AgNPs_APTES_FTO_UA_50uM_CRN_0uM_R6G_10uM_Scan_RamanShift__47__12-05-53-712.txt Node

Date: Tue Jul 05 12:05:53 BST 2022
User: TCL
Spectrometer: QEP01345
Trigger mode: 4
Integration Time (sec): 7.000000E0
Scans to average: 10
Electric dark correction enabled: true
Nonlinearity correction enabled: false
Boxcar width: 0
XAxis mode: Raman Shifts
Number of Pixels in Spectrum: 1044
>>>>>Begin Spectral Data<<<<<
46.04893	-1.7
50.45542	-1.1
54.85868	-0.2
59.25871	0.7
63.6555	60.8
68.04907	62.4
72.43941	70.5
76.82654	72.3
81.21044	76.6
85.59113	77.6
89.96862	80.9
94.34289	81.6
98.71396	86.5
103.08183	94
107.4465	89.7
111.80798	91.3
116.16626	91.8
120.52136	94.1
124.87327	98.9
129.222	100.5
133.56755	104.6
137.90993	110.8
142.24913	121.8
146.58517	129.3
150.91804	147
155.24774	169.4
159.57429	202.2
163.89768	259.8
168.21792	339.8
172.53501	457.6
176.84895	631.8
181.15975	878.6
185.46741	1229.6
189.77193	1692.8
194.07331	2266.3
198.37157	2891.4
202.6667	3576.5
206.9587	4250.7
211.24758	4888.8
215.53334	5553.2
219.81599	6252
224.09553	7011.9
228.37195	7867.3
232.64527	8794.4
236.91549	9751.1
241.18261	10762.8
245.44663	11674.6
249.70755	12509.4
253.96539	13190.5
258.22014	13751.3
262.4718	14143.3
266.72039	14434.1
270.96589	14522.2
275.20832	14484.8
279.44768	14298.3
283.68397	14010.1
287.91719	13829.5
292.14735	13678.3
296.37445	13624.3
300.59849	13615.7
304.81948	13665.7
309.03742	13699.1
313.25231	13675.3
317.46415	13527.6
321.67296	13308.6
325.87872	13119.8
330.08145	13049
334.28114	13038.1
338.47781	13141.8
342.67145	13297.7
346.86207	13506.6
351.04966	13721.3
355.23424	13992.6
359.4158	14181.5
363.59435	14343.1
367.76989	14452.8
371.94243	14557.4
376.11196	14628.1
380.27849	14663.9
384.44203	14731.2
388.60257	14830.9
392.76012	14923.2
396.91468	15054.2
401.06626	15224.1
405.21485	15401
409.36047	15354.9
413.50311	15246.6
417.64277	15142.6
421.77947	15105.9
425.9132	15156.8
430.04396	15233.2
434.17176	15315.4
438.2966	15361
442.41849	15562.5
446.53742	15811.6
450.6534	16106.1
454.76644	16278.3
458.87653	16325.4
462.98368	16312.2
467.08789	16277.7
471.18916	16162.7
475.2875	16032.4
479.38291	15947.5
483.4754	15909.6
487.56496	15869.9
491.6516	15885.7
495.73531	15941.4
499.81612	15956.2
503.89401	16098.1
507.96899	16110.9
512.04106	16157
516.11023	16073.1
520.1765	16015.5
524.23987	15945.1
528.30034	15852.8
532.35792	15815.5
536.41261	15668.1
540.46441	15532.1
544.51333	15497.8
548.55936	15533.2
552.60252	15735.6
556.64279	15944.3
560.6802	16130.8
564.71473	16207
568.7464	16322.3
572.7752	16544.8
576.80114	16723.8
580.82422	16898.7
584.84444	17273
588.86181	17772.6
592.87633	18187.4
596.888	18195.2
600.89682	17873.5
604.9028	18026.2
608.90594	19060.7
612.90624	20244.9
616.90371	19454.6
620.89834	17405.6
624.89015	16461.4
628.87913	16403.7
632.86528	16592.2
636.84862	16789
640.82913	16719.7
644.80683	16512
648.78172	16309.7
652.75379	16219.5
656.72306	16295.7
660.68952	16403.5
664.65319	16309.1
668.61405	16080.4
672.57211	16060.7
676.52738	16138
680.47986	16182.1
684.42955	16100.7
688.37646	16061.2
692.32058	16060.9
696.26192	16121.6
700.20048	16189.9
704.13626	16289.5
708.06928	16236.3
711.99952	16199.9
715.927	16175.3
719.85171	16209.2
723.77365	16197.6
727.69284	16034.8
731.60928	15996.2
735.52295	15973
739.43388	15979.4
743.34206	16035.4
747.24749	16089.1
751.15017	16219
755.05012	16332.9
758.94733	16613.7
762.8418	17136.6
766.73354	17956.2
770.62254	18728.8
774.50882	18944.3
778.39237	18469.5
782.27321	17638.4
786.15132	16924.8
790.02671	16489.5
793.89938	16224.9
797.76935	16176.2
801.6366	16163.7
805.50115	16199.4
809.36299	16196.6
813.22213	16144.5
817.07857	16099.1
820.93231	16002.4
824.78336	15903.5
828.63172	15853.6
832.47738	15794.1
836.32036	15813.1
840.16066	15828.9
843.99827	15858.6
847.8332	15873.6
851.66546	15887.9
855.49504	15861.9
859.32195	15856.1
863.1462	15894.7
866.96777	15835.1
870.78668	15871.6
874.60293	15913.2
878.41652	15993
882.22745	16095.8
886.03573	16156.8
889.84136	16176.5
893.64433	16152.3
897.44466	16088.8
901.24235	16041.9
905.0374	15987
908.8298	15930.6
912.61957	15896.6
916.40671	15908.9
920.19121	16006.1
923.97308	16063.1
927.75233	16068.5
931.52895	16051.9
935.30295	15949.1
939.07433	15755.3
942.84309	15603.4
946.60924	15531.1
950.37278	15465.4
954.13371	15490
957.89203	15473.6
961.64774	15433.2
965.40086	15382.7
969.15137	15381.7
972.89929	15358.1
976.64461	15377.2
980.38733	15372.8
984.12747	15380
987.86502	15405.9
991.59999	15445.2
995.33237	15540.9
999.06217	15687.9
1002.78939	15869.6
1006.51404	16059.1
1010.23611	16223.4
1013.95561	16382.8
1017.67255	16454.2
1021.38692	16343.8
1025.09872	16172.2
1028.80796	16065.1
1032.51465	16034.7
1036.21877	16038.9
1039.92035	16095.2
1043.61937	16088.2
1047.31584	16099.7
1051.00976	16065.3
1054.70114	16020.9
1058.38998	16086.8
1062.07627	16206.7
1065.76003	16361.3
1069.44126	16440.1
1073.11995	16633.3
1076.79611	16893.2
1080.46974	17010.5
1084.14085	17072.3
1087.80943	17151.7
1091.47549	17217.5
1095.13903	17188
1098.80005	17004.2
1102.45857	16785.3
1106.11456	16587.7
1109.76805	16536
1113.41903	16546.6
1117.06751	16672.3
1120.71348	16812.6
1124.35696	17077.2
1127.99793	17354.1
1131.63641	17594.1
1135.2724	17604.5
1138.90589	17524.7
1142.5369	17478.4
1146.16542	17353.6
1149.79145	17254.3
1153.415	17127.5
1157.03607	17037.6
1160.65467	17129.9
1164.27079	17408.8
1167.88443	17828.8
1171.49561	18359.5
1175.10432	19104.9
1178.71056	20091.5
1182.31434	21004.7
1185.91565	21421.7
1189.51451	21417.1
1193.11091	21056.6
1196.70485	20649.5
1200.29634	20242.8
1203.88538	19921.1
1207.47197	19652.7
1211.05612	19350.1
1214.63782	19157.3
1218.21708	18863.6
1221.79391	18632.6
1225.36829	18482.7
1228.94024	18405.6
1232.50976	18276.4
1236.07685	18127.4
1239.6415	17996.5
1243.20374	17978.8
1246.76355	18070
1250.32093	18228.2
1253.8759	18444
1257.42845	18787.6
1260.97859	19127.8
1264.52631	19454
1268.07163	19763.5
1271.61453	20094.4
1275.15503	20349.1
1278.69312	20585.1
1282.22882	20825.7
1285.76211	21159.2
1289.29301	21569.9
1292.82151	22102.5
1296.34761	22738.1
1299.87133	23537.5
1303.39266	24381.2
1306.9116	25220.3
1310.42815	26096.5
1313.94233	26547.9
1317.45412	26374.2
1320.96354	25816.1
1324.47058	25267
1327.97525	24786.8
1331.47754	24446.3
1334.97747	24219.8
1338.47502	24131.5
1341.97022	24061.6
1345.46305	24201.9
1348.95352	24516.5
1352.44163	24860.2
1355.92738	25422.1
1359.41078	26376.3
1362.89183	27269.4
1366.37053	27120.3
1369.84688	25521.3
1373.32088	23406.2
1376.79254	21958.2
1380.26186	21258.2
1383.72883	21014.2
1387.19347	20824.4
1390.65578	20553.5
1394.11575	20298.4
1397.57339	20204.9
1401.0287	20211.1
1404.48168	20207.8
1407.93234	20095
1411.38068	19856.8
1414.82669	19594.8
1418.27039	19209.8
1421.71177	18855.3
1425.15083	18629.7
1428.58758	18487.5
1432.02203	18624.1
1435.45416	18863.9
1438.88399	19146.3
1442.31151	19292
1445.73673	19337
1449.15965	19331.4
1452.58027	19335
1455.9986	19274.3
1459.41463	19368.7
1462.82837	19501.5
1466.23982	19770.1
1469.64898	20018.9
1473.05586	20157.9
1476.46045	20200.2
1479.86276	20206.9
1483.26279	20261.5
1486.66054	20342.9
1490.05602	20432.2
1493.44922	20699.2
1496.84016	21048.9
1500.22882	21605.3
1503.61521	22263.5
1506.99934	23061.2
1510.38121	23638.9
1513.76081	23834.9
1517.13816	23283.8
1520.51324	22373.6
1523.88607	21619.1
1527.25665	21169.6
1530.62498	20942.3
1533.99105	20771.9
1537.35488	20651.2
1540.71647	20384.9
1544.07581	20124.1
1547.4329	19890.1
1550.78776	19675.9
1554.14038	19607.3
1557.49077	19584.5
1560.83892	19589.6
1564.18484	19653.3
1567.52853	19802.2
1570.86999	19977.4
1574.20922	20179.9
1577.54624	20268.9
1580.88103	20221.4
1584.2136	20064.7
1587.54395	20130.4
1590.87208	20506.8
1594.19801	21150.7
1597.52172	21853.6
1600.84321	22071.7
1604.16251	21597.2
1607.47959	20671
1610.79447	19659.8
1614.10715	18725.6
1617.41763	17938.8
1620.7259	17418.9
1624.03199	17178.7
1627.33587	17177
1630.63757	17434.4
1633.93707	17882.6
1637.23439	18740.3
1640.52951	20128.3
1643.82246	21772.9
1647.11321	23158.1
1650.40179	23607.3
1653.68819	22688.6
1656.97241	20750.8
1660.25446	18873.5
1663.53433	17490
1666.81203	16580.7
1670.08756	16057.1
1673.36092	15681.4
1676.63211	15444.6
1679.90115	15273.4
1683.16801	15082.5
1686.43272	14946.3
1689.69527	14804
1692.95567	14694.1
1696.2139	14595.9
1699.46999	14533
1702.72392	14416.9
1705.97571	14376.3
1709.22535	14349.4
1712.47284	14315.4
1715.71819	14294.3
1718.96139	14282.1
1722.20246	14214.3
1725.44139	14157.9
1728.67818	14125.4
1731.91284	14070.7
1735.14537	13987.8
1738.37576	13916.3
1741.60403	13837.3
1744.83017	13821.1
1748.05418	13815.7
1751.27607	13804.4
1754.49584	13805
1757.71349	13766.8
1760.92903	13735
1764.14244	13701
1767.35375	13712.3
1770.56294	13692.4
1773.77002	13680.3
1776.97499	13659.7
1780.17785	13662.9
1783.37861	13657.1
1786.57727	13619.3
1789.77382	13557.3
1792.96828	13520.1
1796.16064	13516.4
1799.3509	13510.5
1802.53907	13476.1
1805.72514	13426.6
1808.90913	13443.7
1812.09102	13410.4
1815.27083	13395.9
1818.44856	13381.6
1821.6242	13325.7
1824.79776	13320.6
1827.96924	13321.4
1831.13864	13294.3
1834.30597	13296.4
1837.47122	13297.4
1840.6344	13265.8
1843.7955	13234.1
1846.95454	13220
1850.11151	13210.3
1853.26642	13254.5
1856.41926	13224.8
1859.57004	13217.1
1862.71876	13230.6
1865.86542	13220.6
1869.01003	13195
1872.15258	13192.8
1875.29308	13181.1
1878.43152	13152.5
1881.56792	13130.1
1884.70227	13107.7
1887.83457	13102.3
1890.96482	13084.4
1894.09304	13065.9
1897.21921	13030.6
1900.34335	13001.8
1903.46544	13001.9
1906.58551	12990.3
1909.70353	12957.1
1912.81953	12944.5
1915.93349	12937.1
1919.04543	12931
1922.15534	12925.3
1925.26322	12861.1
1928.36908	12820.2
1931.47292	12819.1
1934.57473	12795.8
1937.67453	12779.4
1940.77232	12738.3
1943.86808	12688.2
1946.96184	12682.2
1950.05358	12630.9
1953.14331	12594.2
1956.23103	12566.8
1959.31675	12541.4
1962.40046	12492.7
1965.48217	12446.1
1968.56188	12399.7
1971.63959	12391.2
1974.7153	12339.7
1977.78901	12308
1980.86073	12302.2
1983.93046	12266.2
1986.99819	12212.6
1990.06394	12189.3
1993.1277	12157.6
1996.18947	12124.1
1999.24925	12086.7
2002.30706	12037.4
2005.36288	12003.6
2008.41672	11982.9
2011.46859	11945.7
2014.51848	11913.1
2017.56639	11881.7
2020.61233	11888.5
2023.6563	11816.7
2026.6983	11796.4
2029.73833	11761.4
2032.7764	11735.6
2035.8125	11729
2038.84664	11666.1
2041.87881	11671.4
2044.90903	11653.8
2047.93729	11611.1
2050.96359	11627.4
2053.98794	11596.5
2057.01034	11589.7
2060.03078	11580.9
2063.04927	11561.8
2066.06582	11582.1
2069.08042	11541.7
2072.09307	11510.3
2075.10378	11525.2
2078.11255	11534.2
2081.11938	11522.3
2084.12426	11539.8
2087.12722	11544.4
2090.12824	11511.6
2093.12732	11475.4
2096.12447	11521.9
2099.11969	11526.2
2102.11299	11516.8
2105.10435	11518.9
2108.09379	11511.3
2111.08131	11526.5
2114.0669	11540.2
2117.05057	11556.8
2120.03233	11560.9
2123.01216	11568.9
2125.99008	11560.9
2128.96609	11580.6
2131.94018	11588.7
2134.91236	11617.8
2137.88263	11629.8
2140.851	11618.1
2143.81746	11645.4
2146.78201	11605.8
2149.74466	11593.5
2152.7054	11601.2
2155.66425	11604.7
2158.6212	11583.2
2161.57625	11589.3
2164.52941	11572
2167.48067	11584.5
2170.43004	11602.7
2173.37752	11606
2176.32311	11592.3
2179.26681	11581.3
2182.20863	11598.5
2185.14856	11587
2188.08661	11587.2
2191.02278	11567.5
2193.95707	11531.8
2196.88948	11577.7
2199.82001	11560.8
2202.74867	11521.9
2205.67545	11530.8
2208.60037	11491.1
2211.52341	11460.9
2214.44458	11434.1
2217.36388	11402.2
2220.28132	11407.7
2223.1969	11362
2226.11061	11398.2
2229.02246	11323
2231.93245	11317.9
2234.84058	11326.5
2237.74686	11317.1
2240.65128	11333.1
2243.55385	11276.3
2246.45456	11235.7
2249.35343	11232.9
2252.25044	11202.9
2255.14561	11217
2258.03893	11193
2260.93041	11190.2
2263.82004	11161.3
2266.70783	11103.7
2269.59378	11076.3
2272.4779	11052.2
2275.36017	11047.3
2278.24061	11030.7
2281.11922	10979.3
2283.996	10992.8
2286.87094	10945.8
2289.74405	10938.8
2292.61534	10925.7
2295.4848	10922.1
2298.35243	10933.7
2301.21824	10916.5
2304.08223	10909
2306.94439	10883.6
2309.80474	10872.8
2312.66327	10909.4
2315.51999	10875
2318.37489	10864.7
2321.22797	10846.6
2324.07925	10841
2326.92871	10795.3
2329.77637	10771.2
2332.62222	10796.4
2335.46626	10754.1
2338.3085	10741
2341.14893	10713.3
2343.98756	10719
2346.8244	10709.8
2349.65943	10704.1
2352.49267	10684
2355.32411	10698.1
2358.15376	10703
2360.98161	10666.5
2363.80768	10683.5
2366.63195	10703.7
2369.45444	10676.1
2372.27514	10694.7
2375.09405	10669.6
2377.91118	10617.2
2380.72652	10602.8
2383.54009	10578.6
2386.35187	10544.2
2389.16188	10506.5
2391.97011	10503.1
2394.77657	10488.6
2397.58125	10439
2400.38416	10450.2
2403.18529	10433.4
2405.98466	10406.9
2408.78226	10407.1
2411.57809	10393.1
2414.37216	10355.3
2417.16446	10361.9
2419.955	10354.5
2422.74378	10352.7
2425.5308	10347.5
2428.31606	10342.7
2431.09956	10332.6
2433.88131	10310.6
2436.6613	10299.1
2439.43954	10296.6
2442.21603	10304.6
2444.99077	10275.5
2447.76377	10269.6
2450.53501	10282.7
2453.30451	10260.8
2456.07226	10236.1
2458.83827	10239.2
2461.60254	10239.3
2464.36507	10217
2467.12586	10193.6
2469.88492	10175.4
2472.64224	10176.4
2475.39782	10188.5
2478.15167	10220
2480.90379	10186.8
2483.65417	10170.4
2486.40283	10179.7
2489.14976	10176.4
2491.89497	10140.6
2494.63845	10149.5
2497.3802	10172.6
2500.12024	10154.6
2502.85855	10134.6
2505.59514	10116.8
2508.33002	10123.5
2511.06318	10096.6
2513.79462	10074.9
2516.52435	10070.1
2519.25237	10059.8
2521.97867	10038.4
2524.70327	10052.2
2527.42616	10033
2530.14734	9976.5
2532.86681	9972.6
2535.58458	9977.3
2538.30065	9963.1
2541.01501	9948
2543.72768	9941.8
2546.43864	9883
2549.14791	9867.5
2551.85548	9864.2
2554.56136	9885
2557.26554	9864.4
2559.96803	9851.5
2562.66883	9832.2
2565.36794	9807.8
2568.06536	9772.6
2570.7611	9767
2573.45514	9760
2576.14751	9767
2578.83819	9735.2
2581.52719	9703.7
2584.21451	9691.4
2586.90015	9665.1
2589.58411	9658.9
2592.2664	9671.5
2594.94701	9645
2597.62594	9612.9
2600.30321	9583.1
2602.9788	9558.8
2605.65273	9585.3
2608.32498	9554.9
2610.99557	9563.3
2613.66449	9536.8
2616.33175	9551.2
2618.99734	9537.6
2621.66128	9515.6
2624.32355	9510.7
2626.98416	9495.9
2629.64311	9477.2
2632.30041	9469.7
2634.95605	9459.7
2637.61004	9482.2
2640.26238	9445.5
2642.91306	9439.8
2645.56209	9423.1
2648.20948	9433.2
2650.85521	9404.9
2653.4993	9414.1
2656.14175	9401.3
2658.78255	9415.4
2661.42171	9401.5
2664.05923	9414.9
2666.6951	9413
2669.32934	9428.1
2671.96194	9402.9
2674.59291	9384.2
2677.22224	9394.1
2679.84993	9395.9
2682.476	9357.6
2685.10043	9389.1
2687.72324	9398.8
2690.34441	9381.7
2692.96396	9376.3
2695.58188	9363.4
2698.19818	9356.1
2700.81285	9352.7
2703.4259	9342.6
2706.03733	9386.1
2708.64714	9355.3
2711.25533	9385.4
2713.86191	9359.2
2716.46687	9360.9
2719.07021	9387.1
2721.67194	9392.1
2724.27206	9376.1
2726.87057	9386.2
2729.46747	9378.5
2732.06276	9373.3
2734.65644	9360.4
2737.24852	9360.7
2739.83899	9333.4
2742.42786	9347.2
2745.01513	9347.5
2747.60079	9308.4
2750.18486	9323.4
2752.76733	9310.9
2755.3482	9305.1
2757.92747	9286.5
2760.50515	9254.5
2763.08123	9273.1
2765.65573	9265.9
2768.22863	9233.7
2770.79994	9211.9
2773.36967	9205.2
2775.9378	9197.2
2778.50435	9179.3
2781.06932	9165.2
2783.6327	9189.1
2786.1945	9175.8
2788.75471	9150.2
2791.31335	9125.6
2793.87041	9110.5
2796.42589	9083.7
2798.97979	9094.1
2801.53212	9046.9
2804.08288	9035.4
2806.63206	8994.4
2809.17967	8996.4
2811.72571	8992.4
2814.27018	8961.6
2816.81308	8921.4
2819.35442	8901.4
2821.89419	8860.9
2824.43239	8863.7
2826.96904	8861.3
2829.50412	8863.9
2832.03763	8847.9
2834.56959	8846.6
2837.1	8840.5
2839.62884	8816.8
2842.15613	8787.5
2844.68186	8830.3
2847.20604	8848.6
2849.72867	8807.5
2852.24974	8811.3
2854.76927	8798.1
2857.28724	8782.8
2859.80367	8806.4
2862.31855	8782.4
2864.83189	8781.2
2867.34368	8763.1
2869.85393	8750.1
2872.36264	8729.8
2874.8698	8728.4
2877.37543	8738.3
2879.87952	8745
2882.38207	8753.8
2884.88308	8720.2
2887.38256	8704.8
2889.88051	8702.7
2892.37692	8711.8
2894.8718	8704.8
2897.36515	8714.5
2899.85698	8694.5
2902.34727	8729.9
2904.83604	8694
2907.32328	8728.9
2909.809	8728.2
2912.29319	8738
2914.77587	8730.7
2917.25702	8732.2
2919.73665	8718.6
2922.21476	8708.7
2924.69136	8699.2
2927.16644	8702
2929.64	8662.5
2932.11205	8684.4
2934.58258	8662.9
2937.05161	8688.9
2939.51912	8642.6
2941.98513	8662.3
2944.44962	8639.2
2946.91261	8607.7
2949.37409	8629.7
2951.83407	8600.4
2954.29254	8611.5
2956.74951	8596.2
2959.20498	8576.8
2961.65895	8569.8
2964.11142	8585.3
2966.56239	8557
2969.01186	8546.5
2971.45984	8544.8
2973.90632	8562.4
2976.35131	8536
2978.7948	8522.6
2981.23681	8508.7
2983.67732	8489.9
2986.11635	8480
2988.55388	8462.3
2990.98993	8465.6
2993.4245	8436.1
2995.85758	8433.1
2998.28917	8397.2
3000.71928	8403.5
3003.14791	8367.9
3005.57506	8338.6
3008.00073	8340.6
3010.42493	8327.9
3012.84764	8325
3015.26888	8313.2
3017.68865	8294.8
3020.10694	8315
3022.52376	8249.5
3024.9391	8268.9
3027.35298	8260.5
3029.76539	8255.2
3032.17632	8245.5
3034.5858	8235.5
3036.9938	8230.8
3039.40034	8215.5
3041.80542	8200.8
3044.20903	8190.5
3046.61118	8210
3049.01187	8176.9
3051.4111	8170.2
3053.80888	8157
3056.20519	8148.9
3058.60005	8139
3060.99345	8128.2
3063.3854	8131.1
3065.7759	8079
3068.16494	8088.8
3070.55254	8056.2
3072.93868	8053.5
3075.32338	8025
3077.70662	7999.6
3080.08842	7998.9
3082.46878	7977
3084.84769	7973.9
3087.22515	7974.2
3089.60118	7971.3
3091.97576	8000.3
3094.3489	7989.7
3096.72061	7972.6
3099.09087	7984.3
3101.4597	7975.9
3103.82709	7995.2
3106.19305	8000.1
3108.55757	8010
3110.92066	7965.1
3113.28232	7979.6
3115.64255	7917.8
3118.00134	7931.8
3120.35871	7907.4
3122.71466	7885.2
3125.06917	7905.9
3127.42226	7890.5
3129.77393	7908.3
3132.12417	7876.2
3134.47299	7885.6
3136.82039	7893.7
3139.16636	7879.5
3141.51092	7859.7
3143.85406	7886.8
3146.19579	7910.9
3148.53609	7911.5
3150.87499	7901.1
3153.21246	7891.7
3155.54853	7910.6
3157.88318	7897.8
3160.21642	7929.3
3162.54826	7935.3
3164.87868	7933.2
3167.2077	7942.8
3169.5353	7938.8
3171.86151	7969.9
3174.18631	7953.3
3176.5097	7940.6
3178.83169	7936.9
3181.15228	7927
3183.47147	7901.6
3185.78926	7892.5
3188.10565	7886.4
3190.42065	7875.9
3192.73424	7893.5
3195.04645	7895.9
3197.35725	7881.8
3199.66667	7873.9
3201.97469	7899.8
3204.28132	7870.4
3206.58656	7885.6
3208.8904	7857.5
3211.19287	7882.2
3213.49394	7882.5
3215.79363	7908.6
3218.09193	7910.1
3220.38884	7912.2
3222.68438	7916.7
3224.97853	7899.5
3227.2713	7921.9
3229.56269	7887.7
3231.8527	7913.5
3234.14133	7914.1
3236.42858	7868.4
3238.71446	7853.3
3240.99896	7793.1
3243.28209	7811.4
3245.56384	7809.4
3247.84423	7811.9
3250.12324	7795
3252.40088	7782.4
3254.67715	7763
3256.95205	7756.4
3259.22558	7757.2
3261.49775	7750.1
3263.76855	7769.3
3266.03799	7738.1
3268.30606	7733.4
3270.57277	7708.2
3272.83812	7716.5
3275.10211	7682.1
3277.36474	7651.8
3279.62601	7658.7
3281.88593	7649.3
3284.14448	7634
3286.40168	7624.8
3288.65753	7633.5
3290.91202	7637.6
3293.16516	7589.3
3295.41695	7595.6
3297.66738	7557.9
3299.91647	7533.3
3302.16421	7490.2
3304.4106	7477.8
3306.65564	7414.5
3308.89933	7375.2
3311.14169	7333.2
3313.38269	7298.4
3315.62236	7231.8
3317.86068	7188.8
3320.09766	7142
3322.3333	7097.3
3324.5676	7089.6
3326.80056	6988.6
3329.03219	6948.2
3331.26248	2.6
3333.49143	-0.4
3335.71905	-0.4
