Data from AgNPs_APTES_FTO_UA_50uM_CRN_0uM_R6G_10uM_Scan_RamanShift__65__12-26-53-737.txt Node

Date: Tue Jul 05 12:26:53 BST 2022
User: TCL
Spectrometer: QEP01345
Trigger mode: 4
Integration Time (sec): 7.000000E0
Scans to average: 10
Electric dark correction enabled: true
Nonlinearity correction enabled: false
Boxcar width: 0
XAxis mode: Raman Shifts
Number of Pixels in Spectrum: 1044
>>>>>Begin Spectral Data<<<<<
46.04893	-0.1
50.45542	-0.1
54.85868	-1.7
59.25871	0.5
63.6555	43.1
68.04907	47.7
72.43941	49.6
76.82654	52.1
81.21044	55
85.59113	59.5
89.96862	59.5
94.34289	61.2
98.71396	64.3
103.08183	66.6
107.4465	66.9
111.80798	71.8
116.16626	69.6
120.52136	69.1
124.87327	73.6
129.222	75
133.56755	74.3
137.90993	76.7
142.24913	83.1
146.58517	88.2
150.91804	97.7
155.24774	113.5
159.57429	134.2
163.89768	162.8
168.21792	209.3
172.53501	282.3
176.84895	390.2
181.15975	541.1
185.46741	767.7
189.77193	1049
194.07331	1413.8
198.37157	1814.6
202.6667	2235.3
206.9587	2661.3
211.24758	3063.1
215.53334	3478.6
219.81599	3884.7
224.09553	4338.7
228.37195	4838.6
232.64527	5390
236.91549	6006
241.18261	6644.9
245.44663	7285.6
249.70755	7884.3
253.96539	8424.5
258.22014	8844.3
262.4718	9196.8
266.72039	9427.4
270.96589	9502.8
275.20832	9460.9
279.44768	9371.6
283.68397	9226.8
287.91719	9053.4
292.14735	8936.3
296.37445	8817
300.59849	8715.6
304.81948	8658.9
309.03742	8626.7
313.25231	8575
317.46415	8553.9
321.67296	8531
325.87872	8510.9
330.08145	8553
334.28114	8596.8
338.47781	8689.5
342.67145	8801
346.86207	8875.7
351.04966	8995.3
355.23424	9101.1
359.4158	9217
363.59435	9298.2
367.76989	9426.6
371.94243	9526.7
376.11196	9591.9
380.27849	9703.5
384.44203	9739.1
388.60257	9815.4
392.76012	9906.7
396.91468	9966.6
401.06626	10062.2
405.21485	10137.3
409.36047	10174.1
413.50311	10205.9
417.64277	10203.6
421.77947	10212.5
425.9132	10275
430.04396	10319.3
434.17176	10421.2
438.2966	10452.6
442.41849	10554.3
446.53742	10642.9
450.6534	10746.6
454.76644	10832.4
458.87653	10902.4
462.98368	10952
467.08789	10983.3
471.18916	11011.6
475.2875	10985.5
479.38291	10995.2
483.4754	11008
487.56496	11029.2
491.6516	11036.6
495.73531	11019.7
499.81612	11041.3
503.89401	11122.5
507.96899	11150.5
512.04106	11189.7
516.11023	11208.3
520.1765	11224.6
524.23987	11217.2
528.30034	11243.4
532.35792	11264.9
536.41261	11264.8
540.46441	11262.3
544.51333	11256.4
548.55936	11289
552.60252	11331.8
556.64279	11421.6
560.6802	11480.4
564.71473	11548.9
568.7464	11565.3
572.7752	11640.9
576.80114	11703.7
580.82422	11728
584.84444	11798.9
588.86181	11906.6
592.87633	12003
596.888	12088.6
600.89682	12132
604.9028	12231.5
608.90594	12514.5
612.90624	12774.9
616.90371	12568.1
620.89834	12109.8
624.89015	11957.4
628.87913	11923.8
632.86528	11957.1
636.84862	11988.8
640.82913	11983.9
644.80683	11931.7
648.78172	11893.6
652.75379	11938.6
656.72306	11990.3
660.68952	12061.3
664.65319	12110.7
668.61405	12154.1
672.57211	12218.5
676.52738	12259.1
680.47986	12305.3
684.42955	12357.1
688.37646	12445.4
692.32058	12464.6
696.26192	12524.8
700.20048	12521.6
704.13626	12578.8
708.06928	12573.2
711.99952	12567.5
715.927	12561.7
719.85171	12539
723.77365	12524.5
727.69284	12468.3
731.60928	12464.2
735.52295	12443
739.43388	12467.4
743.34206	12508.4
747.24749	12518.8
751.15017	12556.2
755.05012	12611.7
758.94733	12693.2
762.8418	12783.7
766.73354	12963.1
770.62254	13180
774.50882	13313.2
778.39237	13219.1
782.27321	13103.1
786.15132	12923.7
790.02671	12784.2
793.89938	12708.7
797.76935	12662.7
801.6366	12672.4
805.50115	12639.8
809.36299	12648.6
813.22213	12620.5
817.07857	12614.3
820.93231	12641.8
824.78336	12670.3
828.63172	12685.8
832.47738	12691
836.32036	12699.8
840.16066	12712.5
843.99827	12774.2
847.8332	12814.4
851.66546	12804.1
855.49504	12802.9
859.32195	12837.3
863.1462	12850.9
866.96777	12854.4
870.78668	12882.3
874.60293	12908.2
878.41652	12945.1
882.22745	12927.3
886.03573	12969.7
889.84136	12984.4
893.64433	12977.2
897.44466	12996.7
901.24235	13000.8
905.0374	13033
908.8298	13050.3
912.61957	13081.8
916.40671	13103.3
920.19121	13083.5
923.97308	13106.8
927.75233	13101.2
931.52895	13061.5
935.30295	13047.7
939.07433	12975
942.84309	12917.8
946.60924	12898.7
950.37278	12870.7
954.13371	12864.2
957.89203	12887.5
961.64774	12837.8
965.40086	12828.8
969.15137	12825.5
972.89929	12807.3
976.64461	12806.7
980.38733	12803.1
984.12747	12771
987.86502	12786.2
991.59999	12849.1
995.33237	12851.7
999.06217	12888.5
1002.78939	12954.7
1006.51404	12994.6
1010.23611	13057.6
1013.95561	13109.1
1017.67255	13147.2
1021.38692	13102.8
1025.09872	13067.9
1028.80796	13025.5
1032.51465	12990.7
1036.21877	13011.5
1039.92035	13032
1043.61937	13044.6
1047.31584	13093.9
1051.00976	13090.9
1054.70114	13142.2
1058.38998	13146.2
1062.07627	13196.5
1065.76003	13228
1069.44126	13231
1073.11995	13261.8
1076.79611	13359.3
1080.46974	13409.4
1084.14085	13401.8
1087.80943	13356.8
1091.47549	13419
1095.13903	13397.8
1098.80005	13424.4
1102.45857	13364.2
1106.11456	13339.6
1109.76805	13306.7
1113.41903	13266.8
1117.06751	13239.3
1120.71348	13260.6
1124.35696	13282.3
1127.99793	13287.5
1131.63641	13340.4
1135.2724	13324.8
1138.90589	13299.5
1142.5369	13292.3
1146.16542	13275.3
1149.79145	13259
1153.415	13217.6
1157.03607	13214.1
1160.65467	13214.5
1164.27079	13283.3
1167.88443	13358.1
1171.49561	13479
1175.10432	13657.9
1178.71056	13851.9
1182.31434	14071.2
1185.91565	14212.5
1189.51451	14303.4
1193.11091	14319.3
1196.70485	14272.8
1200.29634	14187.9
1203.88538	14103.4
1207.47197	13956
1211.05612	13857.8
1214.63782	13813.1
1218.21708	13757.7
1221.79391	13654.7
1225.36829	13660.1
1228.94024	13618.3
1232.50976	13596.1
1236.07685	13588.3
1239.6415	13567
1243.20374	13601.9
1246.76355	13611.2
1250.32093	13646
1253.8759	13710
1257.42845	13788.5
1260.97859	13850.2
1264.52631	13943.6
1268.07163	14008.1
1271.61453	14108.1
1275.15503	14155.2
1278.69312	14175.8
1282.22882	14202.6
1285.76211	14237.1
1289.29301	14309.3
1292.82151	14371.2
1296.34761	14494.9
1299.87133	14628.6
1303.39266	14808.3
1306.9116	14963.6
1310.42815	15197.1
1313.94233	15323.6
1317.45412	15298.1
1320.96354	15308
1324.47058	15247.7
1327.97525	15138.2
1331.47754	15035.5
1334.97747	14949.2
1338.47502	14996.2
1341.97022	15053.1
1345.46305	15228.7
1348.95352	15381.2
1352.44163	15454.5
1355.92738	15460.7
1359.41078	15442.5
1362.89183	15389.9
1366.37053	15211.6
1369.84688	14891.4
1373.32088	14489
1376.79254	14205.3
1380.26186	13997.7
1383.72883	13904.6
1387.19347	13808.2
1390.65578	13704.2
1394.11575	13575.3
1397.57339	13518.5
1401.0287	13506.5
1404.48168	13487.3
1407.93234	13483.7
1411.38068	13436.6
1414.82669	13384.4
1418.27039	13292.2
1421.71177	13201.5
1425.15083	13109.2
1428.58758	13051.1
1432.02203	13013.8
1435.45416	13011.6
1438.88399	13011.5
1442.31151	13048
1445.73673	13069.4
1449.15965	13068.1
1452.58027	13106.2
1455.9986	13096.6
1459.41463	13126.5
1462.82837	13216.3
1466.23982	13283.1
1469.64898	13355.7
1473.05586	13445
1476.46045	13471
1479.86276	13480
1483.26279	13533.8
1486.66054	13548
1490.05602	13573.2
1493.44922	13661.5
1496.84016	13748.1
1500.22882	13921.6
1503.61521	14122.9
1506.99934	14264.3
1510.38121	14299.8
1513.76081	14286.6
1517.13816	14170.3
1520.51324	14026.6
1523.88607	13918.3
1527.25665	13841.1
1530.62498	13788
1533.99105	13779.9
1537.35488	13731.7
1540.71647	13690.1
1544.07581	13698
1547.4329	13682.1
1550.78776	13643.9
1554.14038	13628.3
1557.49077	13649.4
1560.83892	13666.5
1564.18484	13675.5
1567.52853	13740.7
1570.86999	13750.6
1574.20922	13790.1
1577.54624	13765.7
1580.88103	13747.6
1584.2136	13674.5
1587.54395	13653.8
1590.87208	13704.8
1594.19801	13823.1
1597.52172	13990.4
1600.84321	14050.8
1604.16251	13986.7
1607.47959	13841.6
1610.79447	13633.8
1614.10715	13335.4
1617.41763	13108.8
1620.7259	12917.5
1624.03199	12785.6
1627.33587	12768.4
1630.63757	12756.3
1633.93707	12833.6
1637.23439	12989.2
1640.52951	13238.2
1643.82246	13591.9
1647.11321	13850.8
1650.40179	13943.5
1653.68819	13784.1
1656.97241	13389.4
1660.25446	12969.9
1663.53433	12614.2
1666.81203	12395.1
1670.08756	12216.6
1673.36092	12107.9
1676.63211	12022.3
1679.90115	11966.1
1683.16801	11903
1686.43272	11853.6
1689.69527	11816.9
1692.95567	11821.4
1696.2139	11804.6
1699.46999	11783.6
1702.72392	11770.4
1705.97571	11762
1709.22535	11788.4
1712.47284	11739.8
1715.71819	11745
1718.96139	11769.8
1722.20246	11717.4
1725.44139	11676.2
1728.67818	11677.4
1731.91284	11636.7
1735.14537	11585.2
1738.37576	11528.4
1741.60403	11482.2
1744.83017	11483.1
1748.05418	11477.7
1751.27607	11433.3
1754.49584	11435.4
1757.71349	11408.4
1760.92903	11363.8
1764.14244	11368
1767.35375	11357.6
1770.56294	11336.1
1773.77002	11312.9
1776.97499	11324.8
1780.17785	11324.7
1783.37861	11341.3
1786.57727	11302.1
1789.77382	11288.4
1792.96828	11253.4
1796.16064	11219.8
1799.3509	11191.9
1802.53907	11176.5
1805.72514	11155
1808.90913	11154.3
1812.09102	11154.2
1815.27083	11100.9
1818.44856	11122.3
1821.6242	11072.8
1824.79776	11072.9
1827.96924	11045.4
1831.13864	11021.7
1834.30597	11012.8
1837.47122	11039.5
1840.6344	10984.7
1843.7955	10963.1
1846.95454	10956.9
1850.11151	10962.5
1853.26642	10970.8
1856.41926	10960.8
1859.57004	10971.9
1862.71876	10959.6
1865.86542	10982.7
1869.01003	10972
1872.15258	10920.9
1875.29308	10893.8
1878.43152	10887.6
1881.56792	10872.6
1884.70227	10873.2
1887.83457	10796.1
1890.96482	10818.7
1894.09304	10803
1897.21921	10780.1
1900.34335	10760.9
1903.46544	10745.8
1906.58551	10730
1909.70353	10721.6
1912.81953	10700.9
1915.93349	10710.8
1919.04543	10665.4
1922.15534	10639.4
1925.26322	10645
1928.36908	10615.7
1931.47292	10594.2
1934.57473	10577.1
1937.67453	10547.9
1940.77232	10522.3
1943.86808	10478.5
1946.96184	10466.8
1950.05358	10438.9
1953.14331	10394.9
1956.23103	10382
1959.31675	10317.2
1962.40046	10310.7
1965.48217	10254.8
1968.56188	10235.1
1971.63959	10211.5
1974.7153	10160.7
1977.78901	10141.7
1980.86073	10121.2
1983.93046	10093.9
1986.99819	10043.3
1990.06394	10010.6
1993.1277	10008
1996.18947	9966.3
1999.24925	9919.1
2002.30706	9910.4
2005.36288	9857.7
2008.41672	9861.2
2011.46859	9813.7
2014.51848	9792.5
2017.56639	9767.7
2020.61233	9730.2
2023.6563	9728.8
2026.6983	9648.8
2029.73833	9620.7
2032.7764	9608.2
2035.8125	9574.4
2038.84664	9553.8
2041.87881	9532.5
2044.90903	9506.3
2047.93729	9509.3
2050.96359	9510
2053.98794	9468.8
2057.01034	9439
2060.03078	9450.2
2063.04927	9447.4
2066.06582	9435.4
2069.08042	9417.2
2072.09307	9393.2
2075.10378	9383.7
2078.11255	9419.3
2081.11938	9417
2084.12426	9404.6
2087.12722	9401
2090.12824	9357.3
2093.12732	9344.9
2096.12447	9344.8
2099.11969	9335.1
2102.11299	9350.2
2105.10435	9365.5
2108.09379	9375.8
2111.08131	9357.8
2114.0669	9370
2117.05057	9392.6
2120.03233	9415.6
2123.01216	9426.3
2125.99008	9412
2128.96609	9409.9
2131.94018	9410.9
2134.91236	9428.5
2137.88263	9460.5
2140.851	9447.8
2143.81746	9436.7
2146.78201	9425.4
2149.74466	9422.9
2152.7054	9431.3
2155.66425	9427.3
2158.6212	9425.2
2161.57625	9411.6
2164.52941	9388.5
2167.48067	9397.1
2170.43004	9398.5
2173.37752	9391
2176.32311	9374.2
2179.26681	9368.3
2182.20863	9373.3
2185.14856	9375.2
2188.08661	9358.5
2191.02278	9365.5
2193.95707	9327.6
2196.88948	9347.6
2199.82001	9351.2
2202.74867	9325.9
2205.67545	9297.4
2208.60037	9280.4
2211.52341	9247.9
2214.44458	9242.1
2217.36388	9202.3
2220.28132	9211
2223.1969	9196
2226.11061	9174.5
2229.02246	9151.7
2231.93245	9124.3
2234.84058	9111.7
2237.74686	9107.1
2240.65128	9104.2
2243.55385	9060.3
2246.45456	9053.9
2249.35343	9019.8
2252.25044	9023.9
2255.14561	9014.7
2258.03893	8992.6
2260.93041	8982.3
2263.82004	8949.3
2266.70783	8913.7
2269.59378	8891.3
2272.4779	8847.9
2275.36017	8841.9
2278.24061	8825.8
2281.11922	8799.8
2283.996	8796.8
2286.87094	8763.3
2289.74405	8746.2
2292.61534	8731.6
2295.4848	8720.1
2298.35243	8715.6
2301.21824	8718.5
2304.08223	8700.4
2306.94439	8698.6
2309.80474	8687.3
2312.66327	8688.6
2315.51999	8638.7
2318.37489	8660.7
2321.22797	8648.9
2324.07925	8593.9
2326.92871	8582.5
2329.77637	8587.2
2332.62222	8583.4
2335.46626	8543.6
2338.3085	8523.1
2341.14893	8492.7
2343.98756	8508.3
2346.8244	8470.9
2349.65943	8478.1
2352.49267	8444.3
2355.32411	8433.3
2358.15376	8429.3
2360.98161	8425.6
2363.80768	8423.4
2366.63195	8443.2
2369.45444	8419.9
2372.27514	8417.9
2375.09405	8393.4
2377.91118	8360.3
2380.72652	8364.6
2383.54009	8337.2
2386.35187	8311
2389.16188	8286.5
2391.97011	8264.6
2394.77657	8223.7
2397.58125	8202.2
2400.38416	8217.7
2403.18529	8202.6
2405.98466	8169.5
2408.78226	8177.3
2411.57809	8150.6
2414.37216	8132.7
2417.16446	8133.2
2419.955	8128.8
2422.74378	8139.6
2425.5308	8121.9
2428.31606	8098.5
2431.09956	8093.2
2433.88131	8063.6
2436.6613	8066.8
2439.43954	8070.3
2442.21603	8042.7
2444.99077	8039.8
2447.76377	8047.3
2450.53501	8017.5
2453.30451	7982.2
2456.07226	7965.8
2458.83827	7981.3
2461.60254	7946.4
2464.36507	7928.3
2467.12586	7919.6
2469.88492	7899.3
2472.64224	7921.8
2475.39782	7907.7
2478.15167	7897.8
2480.90379	7878.5
2483.65417	7874.3
2486.40283	7868.3
2489.14976	7887.3
2491.89497	7868.7
2494.63845	7836.3
2497.3802	7835
2500.12024	7819.6
2502.85855	7806.4
2505.59514	7820.6
2508.33002	7830.3
2511.06318	7886.9
2513.79462	7806.8
2516.52435	7776
2519.25237	7759.8
2521.97867	7752
2524.70327	7717.7
2527.42616	7712.5
2530.14734	7705.1
2532.86681	7675.4
2535.58458	7620.6
2538.30065	7648.4
2541.01501	7620.3
2543.72768	7602.1
2546.43864	7588.1
2549.14791	7540.9
2551.85548	7569.1
2554.56136	7533
2557.26554	7566.1
2559.96803	7520.9
2562.66883	7490
2565.36794	7489.3
2568.06536	7456.6
2570.7611	7447.6
2573.45514	7422.8
2576.14751	7409.3
2578.83819	7414.5
2581.52719	7393.1
2584.21451	7356.6
2586.90015	7354.8
2589.58411	7331.1
2592.2664	7323.5
2594.94701	7307.8
2597.62594	7284.1
2600.30321	7232.8
2602.9788	7266.1
2605.65273	7225.1
2608.32498	7237.8
2610.99557	7216.2
2613.66449	7210.1
2616.33175	7206.4
2618.99734	7174.8
2621.66128	7184.9
2624.32355	7160.7
2626.98416	7165.1
2629.64311	7128.4
2632.30041	7116.1
2634.95605	7120.7
2637.61004	7090.1
2640.26238	7075.5
2642.91306	7075
2645.56209	7080.6
2648.20948	7037
2650.85521	7051.8
2653.4993	7034.4
2656.14175	7043.5
2658.78255	7026.7
2661.42171	7023.6
2664.05923	7030.6
2666.6951	7030.5
2669.32934	7029
2671.96194	6996.8
2674.59291	7004.3
2677.22224	6976.7
2679.84993	6977.4
2682.476	6987.9
2685.10043	6985.9
2687.72324	6999.1
2690.34441	6974
2692.96396	6978.1
2695.58188	6955.8
2698.19818	6951.5
2700.81285	6946.5
2703.4259	6929.2
2706.03733	6940.7
2708.64714	6937.5
2711.25533	6928.6
2713.86191	6932.9
2716.46687	6916.9
2719.07021	6907.5
2721.67194	6948.4
2724.27206	6906.7
2726.87057	6939.9
2729.46747	6917.5
2732.06276	6909.8
2734.65644	6895
2737.24852	6890.1
2739.83899	6870.6
2742.42786	6898.1
2745.01513	6881.8
2747.60079	6860.2
2750.18486	6852.5
2752.76733	6826.6
2755.3482	6836
2757.92747	6826.9
2760.50515	6810.1
2763.08123	6801.1
2765.65573	6772.1
2768.22863	6754.8
2770.79994	6743.3
2773.36967	6744.9
2775.9378	6747
2778.50435	6713.4
2781.06932	6687
2783.6327	6681.4
2786.1945	6677.7
2788.75471	6678.1
2791.31335	6650.2
2793.87041	6626
2796.42589	6609.8
2798.97979	6610.7
2801.53212	6578.7
2804.08288	6581.3
2806.63206	6529.9
2809.17967	6534.1
2811.72571	6510.6
2814.27018	6507.6
2816.81308	6468.8
2819.35442	6455.7
2821.89419	6428.5
2824.43239	6409.5
2826.96904	6413.2
2829.50412	6381.7
2832.03763	6375.1
2834.56959	6377.4
2837.1	6371.1
2839.62884	6350.3
2842.15613	6336.6
2844.68186	6350.4
2847.20604	6321.6
2849.72867	6355.6
2852.24974	6306.6
2854.76927	6319.7
2857.28724	6301.2
2859.80367	6293.4
2862.31855	6269.2
2864.83189	6268.3
2867.34368	6265.4
2869.85393	6238.3
2872.36264	6217.5
2874.8698	6232.2
2877.37543	6241
2879.87952	6245.4
2882.38207	6226
2884.88308	6219.5
2887.38256	6204.2
2889.88051	6202.3
2892.37692	6201.4
2894.8718	6201.9
2897.36515	6178.3
2899.85698	6182.3
2902.34727	6197.3
2904.83604	6179
2907.32328	6169.5
2909.809	6191
2912.29319	6184.3
2914.77587	6177.8
2917.25702	6168.1
2919.73665	6161.8
2922.21476	6162.8
2924.69136	6154.7
2927.16644	6131.8
2929.64	6123.4
2932.11205	6133.1
2934.58258	6115.3
2937.05161	6117.2
2939.51912	6116.7
2941.98513	6114.1
2944.44962	6116.2
2946.91261	6107.7
2949.37409	6089.5
2951.83407	6086.5
2954.29254	6083.7
2956.74951	6083.9
2959.20498	6066.5
2961.65895	6069.2
2964.11142	6088.3
2966.56239	6083.6
2969.01186	6033.4
2971.45984	6060.6
2973.90632	6056.1
2976.35131	6059.5
2978.7948	6033.8
2981.23681	6019.4
2983.67732	6021.6
2986.11635	5984.1
2988.55388	5984.4
2990.98993	5989.3
2993.4245	6002.1
2995.85758	5962.2
2998.28917	5953.5
3000.71928	5961.3
3003.14791	5923.9
3005.57506	5910.4
3008.00073	5897.8
3010.42493	5910.2
3012.84764	5881.4
3015.26888	5901.3
3017.68865	5865
3020.10694	5873.3
3022.52376	5858.6
3024.9391	5849.1
3027.35298	5826.5
3029.76539	5846.1
3032.17632	5827.3
3034.5858	5821.5
3036.9938	5816.8
3039.40034	5794.3
3041.80542	5803.3
3044.20903	5793.9
3046.61118	5775
3049.01187	5764.7
3051.4111	5769.1
3053.80888	5775.9
3056.20519	5753.5
3058.60005	5728.4
3060.99345	5740.4
3063.3854	5707.7
3065.7759	5703
3068.16494	5699
3070.55254	5678.7
3072.93868	5656.4
3075.32338	5660.5
3077.70662	5644.7
3080.08842	5620.2
3082.46878	5618.1
3084.84769	5615
3087.22515	5631.4
3089.60118	5640.6
3091.97576	5630.2
3094.3489	5636.2
3096.72061	5628.5
3099.09087	5639.1
3101.4597	5648.9
3103.82709	5647.4
3106.19305	5632.6
3108.55757	5635.9
3110.92066	5630.3
3113.28232	5629.5
3115.64255	5612.8
3118.00134	5617.8
3120.35871	5579.2
3122.71466	5569.8
3125.06917	5559.6
3127.42226	5578.1
3129.77393	5586.8
3132.12417	5558.6
3134.47299	5574.8
3136.82039	5565.7
3139.16636	5571.6
3141.51092	5565.2
3143.85406	5565.1
3146.19579	5570.9
3148.53609	5572.7
3150.87499	5588.5
3153.21246	5587.1
3155.54853	5582.8
3157.88318	5573.7
3160.21642	5604.7
3162.54826	5618.5
3164.87868	5616.3
3167.2077	5603.3
3169.5353	5610.1
3171.86151	5621.3
3174.18631	5626.6
3176.5097	5608.6
3178.83169	5612.7
3181.15228	5600
3183.47147	5588.1
3185.78926	5583
3188.10565	5569.8
3190.42065	5566
3192.73424	5568
3195.04645	5556.6
3197.35725	5575.8
3199.66667	5587.6
3201.97469	5573.4
3204.28132	5563.6
3206.58656	5568.7
3208.8904	5577.5
3211.19287	5573.5
3213.49394	5589.6
3215.79363	5581.9
3218.09193	5563.1
3220.38884	5566.1
3222.68438	5596.9
3224.97853	5588.3
3227.2713	5571
3229.56269	5580.6
3231.8527	5554.2
3234.14133	5571.2
3236.42858	5546.7
3238.71446	5553
3240.99896	5520
3243.28209	5488.6
3245.56384	5495.1
3247.84423	5513.9
3250.12324	5503.4
3252.40088	5483.4
3254.67715	5488.9
3256.95205	5475.3
3259.22558	5463
3261.49775	5464.2
3263.76855	5459.8
3266.03799	5439.2
3268.30606	5459.3
3270.57277	5427.5
3272.83812	5422.1
3275.10211	5411.5
3277.36474	5404.3
3279.62601	5406.3
3281.88593	5366.8
3284.14448	5367.1
3286.40168	5376.6
3288.65753	5362.5
3290.91202	5345.4
3293.16516	5335.4
3295.41695	5341.3
3297.66738	5306.1
3299.91647	5285.7
3302.16421	5255
3304.4106	5236.6
3306.65564	5220.3
3308.89933	5166.6
3311.14169	5164.1
3313.38269	5105.6
3315.62236	5091
3317.86068	5042.7
3320.09766	5009
3322.3333	4979.6
3324.5676	4963.3
3326.80056	4906.7
3329.03219	4865.8
3331.26248	1.1
3333.49143	0.1
3335.71905	0.8
